Scale_setup.started,Scale_setup.stopped,participant,session,sex,age,date,expName,psychopyVersion,OS,frameRate,Intro.started,Intro.stopped,key_resp_2.keys,key_resp_2.rt,key_resp_2.duration,block.started,direction,Block_id,block.stopped,trial_direction,Block_resp_2.keys,Block_resp_2.rt,Block_resp_2.duration,ITI.started,ITI.stopped,Mask_2.started,Mask_2.stopped,encoding.started,encoding.stopped,Cue.started,Cue.stopped,Response.started,Response.stopped,keyDuration,Feedback_Time.started,FeedbackID_T,Feedback_Time.stopped,trials.thisRepN,trials.thisTrialN,trials.thisN,trials.thisIndex,trials.ran,TimeDur,Coherence1,TrialType
0.00020000000111508598,0.0003000000007489234,026578,001,男,19,2025-06-04_18h34.52.909,Serial_Dependence_U,2023.2.3,Win32,59.523809523799216,,,,,,,,,,,,,,,,,,,,,,,,,,,,,,,,,,,
,,026578,001,男,19,2025-06-04_18h34.52.909,Serial_Dependence_U,2023.2.3,Win32,59.523809523799216,13.958800000000764,15.391600000001517,space,1.4040999999996302,,,,,,,,,,,,,,,,,,,,,,,,,,,,,,,
,,026578,001,男,19,2025-06-04_18h34.52.909,Serial_Dependence_U,2023.2.3,Win32,59.523809523799216,,,,,,15.396800000000752,234,0,16.71160000000151,234,s,1.2942000000010978,,20.66300000000001,21.156700000001138,20.145800000000776,20.662900000000377,17.713700000001126,20.145600000001508,21.157500000000027,21.65700000000001,21.657500000000027,24.207200000001137,842,24.20760000000152,1,25.211700000001144,0,0,0,18,1,1.4,0.7,Time
,,026578,001,男,19,2025-06-04_18h34.52.909,Serial_Dependence_U,2023.2.3,Win32,59.523809523799216,,,,,,25.212000000000018,125,0,25.213000000000022,125,,,,29.408100000001497,29.910300000000774,28.89500000000001,29.407700000001142,26.228500000000025,28.89500000000001,29.910300000000774,30.406300000000755,30.406500000000023,32.146100000001496,1419,32.14620000000113,2,33.140100000001496,0,1,1,4,1,1.6,0.3,Time
,,026578,001,男,19,2025-06-04_18h34.52.909,Serial_Dependence_U,2023.2.3,Win32,59.523809523799216,,,,,,33.1414000000004,287,0,33.14180000000076,287,,,,36.89100000000002,37.389800000000776,36.377800000000775,36.89060000000151,34.1439000000004,36.37760000000151,37.38990000000038,37.889800000000776,37.890000000000015,39.47800000000001,1266,39.478200000001124,4,40.47620000000114,0,2,2,17,1,1.2,0.7,Time
,,026578,001,男,19,2025-06-04_18h34.52.909,Serial_Dependence_U,2023.2.3,Win32,59.523809523799216,,,,,,40.476500000000016,341,0,40.4766000000015,341,,,,44.22740000000039,44.72540000000038,43.71120000000113,44.22740000000039,41.47810000000152,43.711100000001494,44.72540000000038,45.22290000000038,45.22320000000113,47.26140000000038,1700,47.26140000000038,5,48.25600000000003,0,3,3,7,1,1.2,0.7,Time
,,026578,001,男,19,2025-06-04_18h34.52.909,Serial_Dependence_U,2023.2.3,Win32,59.523809523799216,,,,,,48.25740000000039,184,0,48.25780000000077,184,,,,51.80650000000003,52.31050000000002,51.292400000000384,51.80630000000076,49.257900000000376,51.29230000000075,52.31050000000002,52.80570000000114,52.80580000000077,54.205700000001144,1019,54.20600000000002,3,55.205700000001144,0,4,4,16,1,1,0.7,Time
,,026578,001,男,19,2025-06-04_18h34.52.909,Serial_Dependence_U,2023.2.3,Win32,59.523809523799216,,,,,,55.20700000000002,61,0,55.207400000000376,61,,,,59.210500000000025,59.71030000000076,58.69360000000151,59.210500000000025,56.22720000000115,58.69360000000151,59.71040000000039,60.205400000000395,60.205700000001144,61.71040000000039,1133,61.71040000000039,2,62.70560000000151,0,5,5,13,1,1.4,0.3,Time
,,026578,001,男,19,2025-06-04_18h34.52.909,Serial_Dependence_U,2023.2.3,Win32,59.523809523799216,,,,,,62.70670000000112,228,0,62.70720000000114,228,,,,66.67670000000115,67.17160000000152,66.15750000000003,66.67660000000151,63.72540000000038,66.15700000000001,67.17180000000076,67.67420000000112,67.67420000000112,69.16020000000114,1168,69.16030000000077,2,70.15510000000151,0,6,6,8,1,1.4,0.7,Time
,,026578,001,男,19,2025-06-04_18h34.52.909,Serial_Dependence_U,2023.2.3,Win32,59.523809523799216,,,,,,70.15640000000039,170,0,70.15680000000077,170,,,,74.34320000000113,74.84200000000001,73.83900000000003,74.34300000000002,71.17280000000076,73.83860000000152,74.84200000000001,75.34080000000077,75.34080000000077,77.14320000000114,1458,77.14330000000075,2,78.13770000000113,0,7,7,24,1,1.6,0.3,Time
,,026578,001,男,19,2025-06-04_18h34.52.909,Serial_Dependence_U,2023.2.3,Win32,59.523809523799216,,,,,,78.13910000000152,270,0,78.13950000000003,270,,,,81.94300000000001,82.43800000000002,81.42500000000001,81.94280000000077,79.15540000000038,81.42500000000001,82.43820000000113,82.93780000000075,82.93800000000002,84.57570000000112,1366,84.57570000000112,4,85.57060000000152,0,8,8,2,1,1.2,0.3,Time
,,026578,001,男,19,2025-06-04_18h34.52.909,Serial_Dependence_U,2023.2.3,Win32,59.523809523799216,,,,,,85.57220000000115,170,0,85.57250000000002,170,,,,89.7424000000004,90.2379000000004,89.22620000000114,89.74220000000113,86.57620000000114,89.22620000000114,90.2379000000004,90.7371000000015,90.73740000000038,92.62100000000001,1530,92.62120000000112,3,93.62040000000039,0,9,9,19,1,1.6,0.7,Time
,,026578,001,男,19,2025-06-04_18h34.52.909,Serial_Dependence_U,2023.2.3,Win32,59.523809523799216,,,,,,93.62170000000114,44,0,93.6221000000015,44,,,,97.40440000000038,97.90380000000076,96.89250000000001,97.40420000000114,94.62430000000077,96.89240000000038,97.90390000000039,98.3914000000004,98.39150000000001,100.1036000000015,1194,100.10380000000077,3,101.1036000000015,0,10,10,12,1,1.2,0.3,Time
,,026578,001,男,19,2025-06-04_18h34.52.909,Serial_Dependence_U,2023.2.3,Win32,59.523809523799216,,,,,,101.10480000000075,215,0,101.10520000000113,215,,,,104.47530000000077,104.97030000000075,103.95880000000076,104.47520000000114,102.12540000000038,103.95870000000113,104.97040000000038,105.47020000000114,105.47040000000038,107.1701000000015,1065,107.17030000000076,5,108.1584000000004,0,11,11,15,1,0.8,0.7,Time
,,026578,001,男,19,2025-06-04_18h34.52.909,Serial_Dependence_U,2023.2.3,Win32,59.523809523799216,,,,,,108.15880000000075,233,0,108.15890000000039,233,,,,111.52090000000038,112.02030000000076,111.00890000000038,111.52050000000003,109.15860000000151,111.00870000000114,112.02060000000151,112.52420000000114,112.52430000000075,113.95850000000002,1083,113.9586000000015,5,114.95770000000113,0,12,12,5,1,0.8,0.7,Time
,,026578,001,男,19,2025-06-04_18h34.52.909,Serial_Dependence_U,2023.2.3,Win32,59.523809523799216,,,,,,114.9579000000004,13,0,114.95810000000151,13,,,,118.5571000000015,119.05330000000077,118.03740000000039,118.5571000000015,115.97070000000113,118.03710000000152,119.05350000000001,119.55420000000115,119.55430000000075,120.9254000000004,1052,120.92550000000003,4,121.91970000000114,0,13,13,11,1,1,0.3,Time
,,026578,001,男,19,2025-06-04_18h34.52.909,Serial_Dependence_U,2023.2.3,Win32,59.523809523799216,,,,,,121.9211000000015,105,0,121.92150000000001,105,,,,125.91990000000038,126.41910000000152,125.40820000000113,125.91960000000151,122.9406000000015,125.40800000000002,126.41920000000113,126.91920000000113,126.9194000000004,128.3914000000004,1216,128.3915,2,129.38580000000076,0,14,14,3,1,1.4,0.3,Time
,,026578,001,男,19,2025-06-04_18h34.52.909,Serial_Dependence_U,2023.2.3,Win32,59.523809523799216,,,,,,129.38700000000003,236,0,129.38730000000075,236,,,,133.53680000000077,134.03930000000076,133.0245,133.5365,130.39090000000039,133.0244000000004,134.03930000000076,134.53960000000149,134.53960000000149,136.24110000000147,1377,136.24110000000147,2,137.23570000000112,0,15,15,29,1,1.6,0.7,Time
,,026578,001,男,19,2025-06-04_18h34.52.909,Serial_Dependence_U,2023.2.3,Win32,59.523809523799216,,,,,,137.23690000000036,297,0,137.23730000000072,297,,,,141.424,141.9187000000011,140.91960000000145,141.42380000000074,138.25310000000147,140.91930000000073,141.91890000000038,142.40649999999997,142.40649999999997,144.39060000000146,1644,144.39060000000146,3,145.38960000000148,0,16,16,14,1,1.6,0.3,Time
,,026578,001,男,19,2025-06-04_18h34.52.909,Serial_Dependence_U,2023.2.3,Win32,59.523809523799216,,,,,,145.38990000000038,342,0,145.39000000000001,342,,,,149.3692000000011,149.86910000000145,148.85710000000145,149.36890000000037,146.40590000000034,148.857,149.86930000000072,150.36840000000038,150.36860000000146,152.17480000000072,1467,152.17490000000035,3,153.17240000000035,0,17,17,28,1,1.4,0.7,Time
,,026578,001,男,19,2025-06-04_18h34.52.909,Serial_Dependence_U,2023.2.3,Win32,59.523809523799216,,,,,,153.1726000000015,187,0,153.1726000000015,187,,,,156.77140000000034,157.26760000000147,156.256,156.77140000000034,154.19080000000073,156.25590000000037,157.26790000000037,157.768,157.76830000000072,160.47340000000034,1766,160.47349999999997,5,161.46899999999997,0,18,18,21,1,1,0.3,Time
,,026578,001,男,19,2025-06-04_18h34.52.909,Serial_Dependence_U,2023.2.3,Win32,59.523809523799216,,,,,,161.47040000000035,332,0,161.4706000000015,332,,,,165.25530000000074,165.7507000000011,164.75220000000112,165.2552000000011,162.48570000000112,164.75190000000035,165.75090000000037,166.25540000000038,166.2555,167.92330000000075,1334,167.92330000000075,4,168.91880000000074,0,19,19,22,1,1.2,0.3,Time
,,026578,001,男,19,2025-06-04_18h34.52.909,Serial_Dependence_U,2023.2.3,Win32,59.523809523799216,,,,,,168.9201000000015,190,0,168.9203000000007,190,,,,173.07310000000146,173.56740000000033,172.5685,173.073,169.93499999999997,172.5682000000011,173.56749999999997,174.0677000000011,174.06780000000074,176.184,1807,176.18420000000108,4,177.18430000000072,0,20,20,9,1,1.6,0.7,Time
,,026578,001,男,19,2025-06-04_18h34.52.909,Serial_Dependence_U,2023.2.3,Win32,59.523809523799216,,,,,,177.1857000000011,168,0,177.18610000000146,168,,,,180.56810000000146,181.06740000000033,180.0515,180.56780000000074,178.18920000000108,180.05130000000074,181.06749999999997,181.56740000000033,181.5677000000011,182.88949999999997,1000,182.88949999999997,4,183.88380000000072,0,21,21,0,1,0.8,0.3,Time
,,026578,001,男,19,2025-06-04_18h34.52.909,Serial_Dependence_U,2023.2.3,Win32,59.523809523799216,,,,,,183.88510000000147,3,0,183.8855,3,,,,187.88460000000148,188.3835,187.37199999999999,187.8843000000007,184.90180000000075,187.37199999999999,188.38370000000108,188.88780000000074,188.88780000000074,192.4731000000015,1308,192.4731000000015,2,193.46640000000033,0,22,22,23,1,1.4,0.3,Time
,,026578,001,男,19,2025-06-04_18h34.52.909,Serial_Dependence_U,2023.2.3,Win32,59.523809523799216,,,,,,193.46790000000036,200,0,193.4683000000007,200,,,,196.82140000000035,197.3166000000015,196.3062000000011,196.82130000000072,194.4705,196.30610000000146,197.3168000000007,197.8162000000011,197.81630000000072,198.7663000000007,645,198.76640000000035,2,199.76620000000108,0,23,23,25,1,0.8,0.7,Time
,,026578,001,男,19,2025-06-04_18h34.52.909,Serial_Dependence_U,2023.2.3,Win32,59.523809523799216,,,,,,199.76730000000074,339,0,199.7677000000011,339,,,,203.15099999999998,203.6497000000011,202.63870000000108,203.15070000000108,200.7713000000007,202.63870000000108,203.64980000000074,204.14960000000147,204.1497000000011,205.55549999999997,1040,205.55560000000148,5,206.54930000000073,0,24,24,10,1,0.8,0.3,Time
,,026578,001,男,19,2025-06-04_18h34.52.909,Serial_Dependence_U,2023.2.3,Win32,59.523809523799216,,,,,,206.55060000000148,332,0,206.55110000000147,332,,,,209.93330000000074,210.43249999999998,209.42110000000147,209.93310000000147,207.5545,209.42099999999996,210.43270000000112,210.93640000000036,210.93640000000036,211.97090000000034,716,211.97090000000034,2,212.96640000000033,0,25,25,20,1,0.8,0.3,Time
,,026578,001,男,19,2025-06-04_18h34.52.909,Serial_Dependence_U,2023.2.3,Win32,59.523809523799216,,,,,,212.9677000000011,294,0,212.968,294,,,,216.52080000000072,217.01560000000146,216.0043000000007,216.52080000000072,213.97120000000112,216.0041000000015,217.0157000000011,217.5157000000011,217.516,218.8215,967,218.8216000000015,3,219.81550000000001,0,26,26,6,1,1,0.7,Time
,,026578,001,男,19,2025-06-04_18h34.52.909,Serial_Dependence_U,2023.2.3,Win32,59.523809523799216,,,,,,219.8168000000007,102,0,219.81720000000112,102,,,,223.42080000000075,223.91540000000035,222.9042000000011,223.42080000000075,220.83310000000145,222.90410000000148,223.9156000000015,224.41540000000035,224.41549999999998,225.9485,1268,225.94870000000108,4,226.94899999999998,0,27,27,1,1,1,0.3,Time
,,026578,001,男,19,2025-06-04_18h34.52.909,Serial_Dependence_U,2023.2.3,Win32,59.523809523799216,,,,,,226.95030000000074,12,0,226.95080000000073,12,,,,230.50199999999998,230.9982000000011,229.98810000000148,230.50190000000035,227.95390000000035,229.98799999999997,230.99830000000074,231.50310000000147,231.50310000000147,233.054,1232,233.05410000000145,4,234.04860000000147,0,28,28,26,1,1,0.7,Time
,,026578,001,男,19,2025-06-04_18h34.52.909,Serial_Dependence_U,2023.2.3,Win32,59.523809523799216,,,,,,234.04970000000108,78,0,234.05040000000034,78,,,,237.8199000000004,238.31420000000108,237.29930000000073,237.8199000000004,235.066,237.299,238.31440000000035,238.8021000000015,238.80220000000108,240.30430000000072,1134,240.30440000000036,2,241.29770000000113,0,29,29,27,1,1.2,0.7,Time
,,026578,001,男,19,2025-06-04_18h34.52.909,Serial_Dependence_U,2023.2.3,Win32,59.523809523799216,,,,,,241.299,11,1,243.61940000000035,11,s,2.3000000000000114,,247.76530000000074,248.2638000000007,247.25340000000037,247.76500000000001,244.61790000000033,247.25340000000037,248.26399999999998,248.7685,248.7686000000015,250.20280000000074,1283,250.20280000000074,2,250.20310000000146,1,0,30,9,1,1.6,0.7,Time
,,026578,001,男,19,2025-06-04_18h34.52.909,Serial_Dependence_U,2023.2.3,Win32,59.523809523799216,,,,,,250.2036000000015,161,1,250.20420000000112,161,,,,254.20290000000037,254.69730000000075,253.686,254.20280000000074,251.2195,253.68590000000037,254.69760000000147,255.18530000000075,255.18530000000075,257.2861000000015,1883,257.28620000000114,5,257.28649999999993,1,1,31,13,1,1.4,0.3,Time
,,026578,001,男,19,2025-06-04_18h34.52.909,Serial_Dependence_U,2023.2.3,Win32,59.523809523799216,,,,,,257.2871000000015,130,1,257.2872000000011,130,,,,261.0646000000015,261.5683000000007,260.5483000000007,261.0644000000003,258.2859000000003,260.548,261.56840000000034,262.06390000000033,262.0643000000007,264.24699999999996,1869,264.24720000000116,5,264.24799999999993,1,2,32,2,1,1.2,0.3,Time
,,026578,001,男,19,2025-06-04_18h34.52.909,Serial_Dependence_U,2023.2.3,Win32,59.523809523799216,,,,,,264.2487000000011,86,1,264.2489000000004,86,,,,267.634,268.1329000000004,267.13170000000116,267.6339000000004,265.2689000000004,267.1314000000003,268.1329000000004,268.6302000000011,268.63040000000035,270.38010000000145,1538,270.3803000000007,5,270.381,1,3,33,20,1,0.8,0.3,Time
,,026578,001,男,19,2025-06-04_18h34.52.909,Serial_Dependence_U,2023.2.3,Win32,59.523809523799216,,,,,,270.38170000000116,189,1,270.3819000000003,189,,,,273.7476000000015,274.2508000000007,273.23480000000075,273.7473000000007,271.3979000000004,273.23480000000075,274.2508000000007,274.74610000000143,274.7463000000007,276.6687000000011,1645,276.6688000000007,5,276.66890000000035,1,4,34,15,1,0.8,0.7,Time
,,026578,001,男,19,2025-06-04_18h34.52.909,Serial_Dependence_U,2023.2.3,Win32,59.523809523799216,,,,,,276.6696000000014,54,1,276.6698000000007,54,,,,280.6476000000015,281.14620000000116,280.13380000000075,280.64730000000077,277.66860000000145,280.1337000000011,281.1463000000007,281.6463000000007,281.64649999999995,283.4196000000014,1553,283.4196000000014,4,283.4198000000007,1,5,35,3,1,1.4,0.3,Time
,,026578,001,男,19,2025-06-04_18h34.52.909,Serial_Dependence_U,2023.2.3,Win32,59.523809523799216,,,,,,283.4203000000007,181,1,283.4204000000003,181,,,,287.35270000000105,287.8457000000011,286.85140000000035,287.35270000000105,284.4166000000015,286.8513000000007,287.84580000000074,288.346,288.3462000000011,290.2345,1347,290.2345,3,290.23480000000075,1,6,36,8,1,1.4,0.7,Time
,,026578,001,男,19,2025-06-04_18h34.52.909,Serial_Dependence_U,2023.2.3,Win32,59.523809523799216,,,,,,290.23540000000037,227,1,290.2355,227,,,,293.5996000000015,294.09580000000074,293.0839000000003,293.59950000000003,291.24640000000034,293.0838000000007,294.096,294.5984000000003,294.5984000000003,296.3349000000004,1517,296.3349000000004,5,296.3352000000011,1,7,37,5,1,0.8,0.7,Time
,,026578,001,男,19,2025-06-04_18h34.52.909,Serial_Dependence_U,2023.2.3,Win32,59.523809523799216,,,,,,296.3356000000015,317,1,296.3359000000004,317,,,,300.53410000000144,301.02910000000145,300.0137000000011,300.53410000000144,297.3491000000015,300.01330000000075,301.0292000000011,301.5295,301.52960000000144,303.81210000000146,1981,303.81230000000073,4,303.81290000000035,1,8,38,14,1,1.6,0.3,Time
,,026578,001,男,19,2025-06-04_18h34.52.909,Serial_Dependence_U,2023.2.3,Win32,59.523809523799216,,,,,,303.8135,42,1,303.8138000000007,42,,,,307.3818000000007,307.87830000000076,306.8679000000003,307.3818000000007,304.8339000000003,306.8678000000008,307.87850000000003,308.38249999999994,308.38249999999994,309.8673000000007,1191,309.8674000000003,4,309.86749999999995,1,9,39,16,1,1,0.7,Time
,,026578,001,男,19,2025-06-04_18h34.52.909,Serial_Dependence_U,2023.2.3,Win32,59.523809523799216,,,,,,309.8679000000003,320,1,309.8681000000015,320,,,,313.65040000000033,314.14490000000035,313.1336000000015,313.6503000000007,310.8836000000015,313.1336000000015,314.14510000000143,314.645,314.64520000000107,316.351,1398,316.351,4,316.3512000000011,1,10,40,27,1,1.2,0.7,Time
,,026578,001,男,19,2025-06-04_18h34.52.909,Serial_Dependence_U,2023.2.3,Win32,59.523809523799216,,,,,,316.35160000000144,126,1,316.35190000000034,126,,,,319.7288000000008,320.2281000000015,319.2168000000007,319.7286000000015,317.3504000000004,319.2167000000011,320.22820000000115,320.7278000000007,320.72799999999995,322.2115,1188,322.21160000000145,5,322.21260000000143,1,11,41,10,1,0.8,0.3,Time
,,026578,001,男,19,2025-06-04_18h34.52.909,Serial_Dependence_U,2023.2.3,Win32,59.523809523799216,,,,,,322.21349999999995,66,1,322.21370000000115,66,,,,325.8166000000015,326.3161000000015,325.2985,325.8165,323.2333000000008,325.29840000000036,326.3161000000015,326.8153000000008,326.8153000000008,328.71640000000036,1618,328.7165,5,328.7168000000007,1,12,42,11,1,1,0.3,Time
,,026578,001,男,19,2025-06-04_18h34.52.909,Serial_Dependence_U,2023.2.3,Win32,59.523809523799216,,,,,,328.71720000000107,205,1,328.7175,205,,,,332.91499999999996,333.4156000000015,332.3995,332.91490000000033,329.7284000000003,332.3993000000007,333.4156000000015,333.9109000000003,333.91099999999994,335.5988000000008,1449,335.5989000000004,2,335.59899999999993,1,13,43,24,1,1.6,0.3,Time
,,026578,001,男,19,2025-06-04_18h34.52.909,Serial_Dependence_U,2023.2.3,Win32,59.523809523799216,,,,,,335.59950000000003,129,1,335.59950000000003,129,,,,339.5949000000004,340.0938000000008,339.08270000000107,339.5947000000011,336.6158000000007,339.08260000000143,340.0939000000004,340.58160000000146,340.58160000000146,342.3657000000011,1483,342.3658000000007,4,342.366,1,14,44,23,1,1.4,0.3,Time
,,026578,001,男,19,2025-06-04_18h34.52.909,Serial_Dependence_U,2023.2.3,Win32,59.523809523799216,,,,,,342.3662000000011,177,1,342.3665,177,,,,346.1278000000008,346.62660000000153,345.61590000000035,346.1274000000003,343.38249999999994,345.6158000000007,346.6268000000007,347.1316000000015,347.1316000000015,348.716,1412,348.716,4,348.7162000000011,1,15,45,7,1,1.2,0.7,Time
,,026578,001,男,19,2025-06-04_18h34.52.909,Serial_Dependence_U,2023.2.3,Win32,59.523809523799216,,,,,,348.7165,245,1,348.7165,245,,,,352.88220000000115,353.37640000000033,352.36540000000036,352.8821000000015,349.73220000000106,352.36530000000073,353.37640000000033,353.8642000000011,353.8642000000011,355.5823000000007,1450,355.5823000000007,2,355.58260000000143,1,16,46,19,1,1.6,0.7,Time
,,026578,001,男,19,2025-06-04_18h34.52.909,Serial_Dependence_U,2023.2.3,Win32,59.523809523799216,,,,,,355.5831000000014,295,1,355.58320000000106,295,,,,359.1815,359.6764000000004,358.6654000000003,359.1814000000004,356.59399999999994,358.6653000000007,359.67650000000003,360.1761000000015,360.17630000000077,362.1136000000015,1615,362.1136000000015,5,362.11370000000113,1,17,47,1,1,1,0.3,Time
,,026578,001,男,19,2025-06-04_18h34.52.909,Serial_Dependence_U,2023.2.3,Win32,59.523809523799216,,,,,,362.11400000000003,89,1,362.1141000000015,89,,,,366.08130000000074,366.5762000000011,365.5648000000008,366.08130000000074,363.1298000000007,365.56470000000115,366.57630000000074,367.0765,367.0767000000011,368.83449999999993,1478,368.8346000000015,4,368.8351000000015,1,18,48,28,1,1.4,0.7,Time
,,026578,001,男,19,2025-06-04_18h34.52.909,Serial_Dependence_U,2023.2.3,Win32,59.523809523799216,,,,,,368.8354000000004,268,1,368.8355,268,,,,372.79780000000073,373.29260000000147,372.2814000000004,372.79780000000073,369.84799999999996,372.2813000000008,373.2927000000011,373.7937000000011,373.79390000000035,375.34899999999993,1350,375.34899999999993,3,375.3491000000015,1,19,49,18,1,1.4,0.7,Time
,,026578,001,男,19,2025-06-04_18h34.52.909,Serial_Dependence_U,2023.2.3,Win32,59.523809523799216,,,,,,375.3496000000015,313,1,375.3499000000004,313,,,,379.54360000000145,380.0466000000015,379.03099999999995,379.5433000000007,376.35980000000075,379.03099999999995,380.0466000000015,380.5425,380.5427000000011,382.6983000000007,1801,382.6983000000007,4,382.69849999999997,1,20,50,4,1,1.6,0.3,Time
,,026578,001,男,19,2025-06-04_18h34.52.909,Serial_Dependence_U,2023.2.3,Win32,59.523809523799216,,,,,,382.69899999999996,90,1,382.69899999999996,90,,,,386.8629000000003,387.3589000000003,386.34720000000107,386.8628000000007,383.71030000000076,386.34710000000143,387.3589999999999,387.8628000000007,387.8629000000003,389.71430000000066,1569,389.71430000000066,3,389.71449999999993,1,21,51,29,1,1.6,0.7,Time
,,026578,001,男,19,2025-06-04_18h34.52.909,Serial_Dependence_U,2023.2.3,Win32,59.523809523799216,,,,,,389.7151000000015,34,1,389.7152000000011,34,,,,393.09580000000074,393.5928000000007,392.57899999999995,393.09580000000074,390.7141000000014,392.5789000000003,393.5929000000003,394.0917000000011,394.09190000000035,396.0807000000011,1331,396.0807000000011,5,396.08080000000075,1,22,52,0,1,0.8,0.3,Time
,,026578,001,男,19,2025-06-04_18h34.52.909,Serial_Dependence_U,2023.2.3,Win32,59.523809523799216,,,,,,396.08130000000074,301,1,396.08160000000146,301,,,,399.8757000000011,400.37490000000037,399.36320000000103,399.8753000000007,397.09480000000076,399.3631000000014,400.37510000000145,400.8747000000011,400.87480000000073,403.0134999999999,1882,403.0136000000015,5,403.0137000000011,1,23,53,22,1,1.2,0.3,Time
,,026578,001,男,19,2025-06-04_18h34.52.909,Serial_Dependence_U,2023.2.3,Win32,59.523809523799216,,,,,,403.01430000000073,22,1,403.0145,22,,,,406.5757000000011,407.0788000000007,406.06360000000143,406.5754000000003,404.03099999999995,406.0635,407.0788000000007,407.57870000000105,407.5788000000007,408.89670000000103,1097,408.89670000000103,4,408.8969000000003,1,24,54,6,1,1,0.7,Time
,,026578,001,男,19,2025-06-04_18h34.52.909,Serial_Dependence_U,2023.2.3,Win32,59.523809523799216,,,,,,408.8974999999999,319,1,408.8977000000011,319,,,,412.67810000000145,413.17410000000143,412.1754000000003,412.678,409.91310000000146,412.1751000000014,413.17420000000106,413.6746000000014,413.67470000000105,415.67420000000106,1805,415.67449999999997,5,415.6751000000014,1,25,55,12,1,1.2,0.3,Time
,,026578,001,男,19,2025-06-04_18h34.52.909,Serial_Dependence_U,2023.2.3,Win32,59.523809523799216,,,,,,415.67599999999993,144,1,415.67620000000113,144,,,,419.24610000000143,419.7405,418.74140000000034,419.246,416.6793000000007,418.74110000000144,419.7407000000011,420.24110000000144,420.2413000000007,421.9633000000007,1475,421.9633000000007,5,421.9638000000007,1,26,56,21,1,1,0.3,Time
,,026578,001,男,19,2025-06-04_18h34.52.909,Serial_Dependence_U,2023.2.3,Win32,59.523809523799216,,,,,,421.96420000000103,72,1,421.96420000000103,72,,,,425.72720000000106,426.2241000000015,425.20849999999996,425.7271000000014,422.9746000000015,425.20820000000106,426.22430000000065,426.7236000000014,426.7239000000003,428.596,1657,428.59610000000146,5,428.5962000000011,1,27,57,17,1,1.2,0.7,Time
,,026578,001,男,19,2025-06-04_18h34.52.909,Serial_Dependence_U,2023.2.3,Win32,59.523809523799216,,,,,,428.5968000000007,181,1,428.597,181,,,,431.945200000001,432.44030000000066,431.42890000000034,431.945200000001,429.59399999999994,431.4288000000007,432.44049999999993,432.94310000000144,432.94310000000144,434.846,1734,434.84610000000146,5,434.8463000000007,1,28,58,25,1,0.8,0.7,Time
,,026578,001,男,19,2025-06-04_18h34.52.909,Serial_Dependence_U,2023.2.3,Win32,59.523809523799216,,,,,,434.8468000000007,138,1,434.84690000000035,138,,,,438.3956000000014,438.89010000000144,437.8789000000004,438.39540000000034,435.8439000000003,437.8789000000004,438.8903000000007,439.39040000000034,439.39070000000106,441.2453000000007,1582,441.24540000000036,5,441.2455,1,29,59,26,1,1,0.7,Time
,,026578,001,男,19,2025-06-04_18h34.52.909,Serial_Dependence_U,2023.2.3,Win32,59.523809523799216,,,,,,441.24590000000035,23,2,903.021200000001,23,s,461.75200000000007,,907.1591000000014,907.6588000000006,906.6585,907.1591000000014,904.026700000001,906.6584000000003,907.6588000000006,908.1541000000016,908.1543000000006,910.2768000000008,1750,910.2768000000008,4,910.277,2,0,60,19,1,1.6,0.7,Time
,,026578,001,男,19,2025-06-04_18h34.52.909,Serial_Dependence_U,2023.2.3,Win32,59.523809523799216,,,,,,910.2774999999999,245,2,910.278700000001,245,,,,914.0094999999999,914.5039000000004,913.5058000000008,914.0094000000004,911.2734000000003,913.5055,914.5041000000015,915.0046000000013,915.0047000000011,916.7426000000014,1349,916.7426000000014,4,916.7428000000007,2,1,61,17,1,1.2,0.7,Time
,,026578,001,男,19,2025-06-04_18h34.52.909,Serial_Dependence_U,2023.2.3,Win32,59.523809523799216,,,,,,916.7431000000015,106,2,916.743200000001,106,,,,920.1406000000015,920.6371000000015,919.6254999999999,920.1406000000015,917.7602000000011,919.6254999999999,920.637200000001,921.137,921.137200000001,922.4929000000004,1082,922.4929000000004,5,922.493200000001,2,2,62,0,1,0.8,0.3,Time
,,026578,001,男,19,2025-06-04_18h34.52.909,Serial_Dependence_U,2023.2.3,Win32,59.523809523799216,,,,,,922.4934000000003,335,2,922.4937000000011,335,,,,925.8711000000014,926.3714000000002,925.3591000000015,925.8708000000006,923.508,925.3589000000004,926.3715,926.8712000000012,926.8713000000007,928.4254000000003,1216,928.4254000000003,5,928.4256000000014,2,3,63,5,1,0.8,0.7,Time
,,026578,001,男,19,2025-06-04_18h34.52.909,Serial_Dependence_U,2023.2.3,Win32,59.523809523799216,,,,,,928.4263000000008,277,2,928.4264000000003,277,,,,931.8087000000012,932.303200000001,931.2927000000011,931.8086000000014,929.4233000000006,931.2926000000014,932.3033000000007,932.8073000000006,932.8074000000004,934.642700000001,1497,934.642700000001,5,934.6429000000003,2,4,64,10,1,0.8,0.3,Time
,,026578,001,男,19,2025-06-04_18h34.52.909,Serial_Dependence_U,2023.2.3,Win32,59.523809523799216,,,,,,934.6434999999999,192,2,934.6434999999999,192,,,,938.3883000000008,938.8906000000015,937.8756000000014,938.3881000000015,935.6419000000003,937.8754999999999,938.8906000000015,939.3864000000003,939.3865000000001,941.1253000000006,1433,941.1253000000006,4,941.1258000000007,2,5,65,7,1,1.2,0.7,Time
,,026578,001,男,19,2025-06-04_18h34.52.909,Serial_Dependence_U,2023.2.3,Win32,59.523809523799216,,,,,,941.1263000000008,101,2,941.1264000000003,101,,,,945.3207000000011,945.8197000000011,944.8086000000014,945.3203000000008,942.1407000000011,944.8084999999999,945.8198000000007,946.308,946.3081000000016,948.1195,1521,948.1196000000014,3,948.1201000000015,2,6,66,24,1,1.6,0.3,Time
,,026578,001,男,19,2025-06-04_18h34.52.909,Serial_Dependence_U,2023.2.3,Win32,59.523809523799216,,,,,,948.1209000000003,299,2,948.1211000000014,299,,,,952.1251000000013,952.6196000000014,951.6034999999999,952.125,949.1408000000008,951.6033000000007,952.6198000000006,953.1233000000007,953.1233000000007,954.5744000000004,1384,954.5744000000004,3,954.5746000000015,2,7,67,23,1,1.4,0.3,Time
,,026578,001,男,19,2025-06-04_18h34.52.909,Serial_Dependence_U,2023.2.3,Win32,59.523809523799216,,,,,,954.574700000001,166,2,954.5751000000014,166,,,,958.137,958.6354000000003,957.6246000000015,958.1367000000012,955.5915,957.6244999999999,958.6354999999999,959.1386000000014,959.1386000000014,960.7078000000008,1317,960.7078000000008,5,960.7079999999999,2,8,68,16,1,1,0.7,Time
,,026578,001,男,19,2025-06-04_18h34.52.909,Serial_Dependence_U,2023.2.3,Win32,59.523809523799216,,,,,,960.7086000000015,181,2,960.708700000001,181,,,,964.9032000000011,965.406,964.3908000000008,964.9028000000008,961.7241000000015,964.3907000000011,965.406,965.9023000000007,965.9024000000004,968.0736000000015,1961,968.073700000001,4,968.0740000000001,2,9,69,4,1,1.6,0.3,Time
,,026578,001,男,19,2025-06-04_18h34.52.909,Serial_Dependence_U,2023.2.3,Win32,59.523809523799216,,,,,,968.074700000001,276,2,968.0748000000008,276,,,,972.035700000001,972.5348000000008,971.5241000000015,972.0355,969.073700000001,971.5241000000015,972.5349000000003,973.0349000000003,973.0351000000014,974.6912000000011,1335,974.6912000000011,3,974.691700000001,2,10,70,18,1,1.4,0.7,Time
,,026578,001,男,19,2025-06-04_18h34.52.909,Serial_Dependence_U,2023.2.3,Win32,59.523809523799216,,,,,,974.692,253,2,974.692,253,,,,978.0719999999999,978.5683000000008,977.557,978.0719999999999,975.7055,977.5569000000003,978.5684000000003,979.0679000000002,979.0681000000016,980.2064000000003,932,980.2065,4,980.2067000000011,2,11,71,15,1,0.8,0.7,Time
,,026578,001,男,19,2025-06-04_18h34.52.909,Serial_Dependence_U,2023.2.3,Win32,59.523809523799216,,,,,,980.2069999999999,324,2,980.2073000000007,324,,,,983.569,984.0684000000003,983.0574999999999,983.5688000000007,981.2071000000014,983.0573000000006,984.0686000000014,984.5674999999999,984.567700000001,985.9733000000008,1166,985.9733000000008,5,985.9734000000003,2,12,72,25,1,0.8,0.7,Time
,,026578,001,男,19,2025-06-04_18h34.52.909,Serial_Dependence_U,2023.2.3,Win32,59.523809523799216,,,,,,985.9737000000011,50,2,985.9739999999999,50,,,,989.5705,990.068,989.0524000000003,989.5703000000008,986.9896000000015,989.0521000000015,990.0682000000011,990.5672000000011,990.5673000000006,992.0884000000003,1315,992.0884000000003,5,992.0885000000001,2,13,73,21,1,1,0.3,Time
,,026578,001,男,19,2025-06-04_18h34.52.909,Serial_Dependence_U,2023.2.3,Win32,59.523809523799216,,,,,,992.0888000000007,347,2,992.0889000000004,347,,,,996.2541000000015,996.7511000000015,995.7516000000014,996.2541000000015,993.0893000000008,995.7512000000011,996.7513000000008,997.2517000000012,997.2518000000007,999.3063000000006,1600,999.3063000000006,3,999.3064000000004,2,14,74,14,1,1.6,0.3,Time
,,026578,001,男,19,2025-06-04_18h34.52.909,Serial_Dependence_U,2023.2.3,Win32,59.523809523799216,,,,,,999.3071000000014,282,2,999.3072000000011,282,,,,1002.884700000001,1003.383700000001,1002.3683000000008,1002.8844000000004,1000.3062000000011,1002.3679999999999,1003.3838000000007,1003.888200000001,1003.888200000001,1005.5171000000014,1398,1005.5173000000007,5,1005.518,2,15,75,1,1,1,0.3,Time
,,026578,001,男,19,2025-06-04_18h34.52.909,Serial_Dependence_U,2023.2.3,Win32,59.523809523799216,,,,,,1005.518700000001,85,2,1005.5189000000003,85,,,,1009.4847000000011,1009.983200000001,1008.9724000000003,1009.4844000000003,1006.5348000000008,1008.9723000000008,1009.9834000000003,1010.4837000000011,1010.4839999999999,1012.3539000000003,1564,1012.354,4,1012.3541000000014,2,16,76,8,1,1.4,0.7,Time
,,026578,001,男,19,2025-06-04_18h34.52.909,Serial_Dependence_U,2023.2.3,Win32,59.523809523799216,,,,,,1012.3543000000006,95,2,1012.3543000000006,95,,,,1015.922,1016.4167000000011,1015.4051000000015,1015.9219000000003,1013.3712000000012,1015.4051000000015,1016.4167000000011,1016.9171000000015,1016.9173000000008,1018.4831000000015,1349,1018.4833000000008,5,1018.4839999999999,2,17,77,26,1,1,0.7,Time
,,026578,001,男,19,2025-06-04_18h34.52.909,Serial_Dependence_U,2023.2.3,Win32,59.523809523799216,,,,,,1018.4847000000011,198,2,1018.4849999999999,198,,,,1022.4884000000004,1022.9831000000015,1021.9676000000015,1022.4884000000004,1019.5009000000002,1021.9673000000007,1022.983200000001,1023.4833000000008,1023.4836000000014,1025.4057000000012,1612,1025.4058000000007,4,1025.406,2,18,78,3,1,1.4,0.3,Time
,,026578,001,男,19,2025-06-04_18h34.52.909,Serial_Dependence_U,2023.2.3,Win32,59.523809523799216,,,,,,1025.4065,75,2,1025.4067000000011,75,,,,1029.3714000000002,1029.866200000001,1028.854700000001,1029.3713000000007,1026.4216000000015,1028.8545,1029.8663000000006,1030.366,1030.3661000000016,1031.9886000000015,1382,1031.9886000000015,3,1031.989,2,19,79,28,1,1.4,0.7,Time
,,026578,001,男,19,2025-06-04_18h34.52.909,Serial_Dependence_U,2023.2.3,Win32,59.523809523799216,,,,,,1031.9895,71,2,1031.9896000000015,71,,,,1035.7504999999999,1036.249700000001,1035.2381000000014,1035.7503000000006,1033.0004999999999,1035.238,1036.2499000000003,1036.7495,1036.749700000001,1038.538700000001,1434,1038.538700000001,4,1038.5389000000002,2,20,80,27,1,1.2,0.7,Time
,,026578,001,男,19,2025-06-04_18h34.52.909,Serial_Dependence_U,2023.2.3,Win32,59.523809523799216,,,,,,1038.5391000000016,270,2,1038.539200000001,270,,,,1042.5338000000006,1043.0324000000003,1042.0207000000012,1042.5335,1039.5498000000007,1042.0207000000012,1043.0326000000014,1043.5365,1043.5365,1157.4665,1439,1157.4666000000016,3,1157.4671000000014,2,21,81,13,1,1.4,0.3,Time
,,026578,001,男,19,2025-06-04_18h34.52.909,Serial_Dependence_U,2023.2.3,Win32,59.523809523799216,,,,,,1157.4673000000007,66,2,1157.4674000000002,66,,,,1161.2659999999998,1161.7609000000002,1160.7498000000007,1161.2659999999998,1158.4827000000012,1160.749700000001,1161.7611000000015,1162.2649999999999,1162.2649999999999,1163.5997000000011,1032,1163.5997000000011,2,1163.5999000000004,2,22,82,12,1,1.2,0.3,Time
,,026578,001,男,19,2025-06-04_18h34.52.909,Serial_Dependence_U,2023.2.3,Win32,59.523809523799216,,,,,,1163.600200000001,217,2,1163.6004000000003,217,,,,1167.182200000001,1167.6776000000013,1166.6661000000015,1167.1821000000014,1164.6158000000007,1166.6661000000015,1167.6776000000013,1168.1812000000011,1168.1812000000011,1169.6167000000012,1179,1169.6168000000007,4,1169.617200000001,2,23,83,6,1,1,0.7,Time
,,026578,001,男,19,2025-06-04_18h34.52.909,Serial_Dependence_U,2023.2.3,Win32,59.523809523799216,,,,,,1169.6176000000014,272,2,1169.6176000000014,272,,,,1173.011200000001,1173.5111000000015,1172.4993000000006,1173.0109000000002,1170.6277000000011,1172.499200000001,1173.511200000001,1174.0104999999999,1174.0106000000014,1175.9993000000006,1666,1175.9993000000006,5,1175.9996000000015,2,24,84,20,1,0.8,0.3,Time
,,026578,001,男,19,2025-06-04_18h34.52.909,Serial_Dependence_U,2023.2.3,Win32,59.523809523799216,,,,,,1176.0006000000014,113,2,1176.0007000000012,113,,,,1180.1655,1180.6601000000014,1179.6489000000004,1180.1655,1177.0135,1179.6489000000004,1180.6603000000007,1181.1602000000012,1181.1604000000004,1183.1658000000007,1783,1183.1659000000004,4,1183.166,2,25,85,29,1,1.6,0.7,Time
,,026578,001,男,19,2025-06-04_18h34.52.909,Serial_Dependence_U,2023.2.3,Win32,59.523809523799216,,,,,,1183.1667000000011,128,2,1183.1668000000006,128,,,,1187.3152000000011,1187.8094000000003,1186.8108000000007,1187.3151000000014,1184.1781000000015,1186.8105,1187.8095,1188.31,1188.3101000000015,1190.23,1693,1190.23,4,1190.230200000001,2,26,86,9,1,1.6,0.7,Time
,,026578,001,男,19,2025-06-04_18h34.52.909,Serial_Dependence_U,2023.2.3,Win32,59.523809523799216,,,,,,1190.2304000000004,211,2,1190.2305,211,,,,1194.0145,1194.5094000000004,1193.494,1194.0145,1191.2316000000014,1193.4937000000011,1194.5095,1195.009200000001,1195.0093000000006,1196.6315,1291,1196.6315,4,1196.6318000000008,2,27,87,22,1,1.2,0.3,Time
,,026578,001,男,19,2025-06-04_18h34.52.909,Serial_Dependence_U,2023.2.3,Win32,59.523809523799216,,,,,,1196.632,259,2,1196.6325,259,,,,1200.3988000000006,1200.897,1199.8979000000004,1200.3988000000006,1197.6325,1199.8978000000006,1200.897,1201.3926000000015,1201.392700000001,1203.4313000000006,1782,1203.4314000000004,5,1203.4316000000015,2,28,88,2,1,1.2,0.3,Time
,,026578,001,男,19,2025-06-04_18h34.52.909,Serial_Dependence_U,2023.2.3,Win32,59.523809523799216,,,,,,1203.4321000000014,247,2,1203.432200000001,247,,,,1207.0104000000003,1207.5091000000014,1206.4974000000004,1207.0101000000016,1204.431,1206.4974000000004,1207.5093000000006,1208.0096000000015,1208.009700000001,1209.7482000000011,1417,1209.7482000000011,5,1209.7483000000007,2,29,89,11,1,1,0.3,Time
,,026578,001,男,19,2025-06-04_18h34.52.909,Serial_Dependence_U,2023.2.3,Win32,59.523809523799216,,,,,,1209.7489000000003,118,3,1254.5069000000003,118,s,44.740900000000465,,1258.7131000000015,1259.2069999999999,1258.1955,1258.713,1255.5248000000006,1258.1954000000003,1259.207200000001,1259.7069000000004,1259.7071000000014,1261.4124000000004,1283,1261.4124000000004,2,1261.4126000000015,3,0,90,4,1,1.6,0.3,Time
,,026578,001,男,19,2025-06-04_18h34.52.909,Serial_Dependence_U,2023.2.3,Win32,59.523809523799216,,,,,,1261.4131000000014,171,3,1261.414,171,,,,1264.961200000001,1265.4569999999999,1264.4455,1264.961200000001,1262.412,1264.4454000000003,1265.4569999999999,1265.9568000000006,1265.9569000000004,1267.4129000000003,1219,1267.413,4,1267.4134999999999,3,1,91,26,1,1,0.7,Time
,,026578,001,男,19,2025-06-04_18h34.52.909,Serial_Dependence_U,2023.2.3,Win32,59.523809523799216,,,,,,1267.4139000000002,203,3,1267.4139000000002,203,,,,1271.1912000000011,1271.6899000000003,1270.6781000000015,1271.1909000000003,1268.411700000001,1270.6779999999999,1271.69,1272.189700000001,1272.1899000000003,1273.5731000000014,1056,1273.5732000000012,2,1273.5739000000003,3,2,92,2,1,1.2,0.3,Time
,,026578,001,男,19,2025-06-04_18h34.52.909,Serial_Dependence_U,2023.2.3,Win32,59.523809523799216,,,,,,1273.5745,100,3,1273.574700000001,100,,,,1277.5613000000008,1278.061,1277.0598000000007,1277.561200000001,1274.5899000000004,1277.0597000000012,1278.061,1278.556,1278.5561000000014,1280.3287000000012,1460,1280.3288000000007,3,1280.329,3,3,93,23,1,1.4,0.3,Time
,,026578,001,男,19,2025-06-04_18h34.52.909,Serial_Dependence_U,2023.2.3,Win32,59.523809523799216,,,,,,1280.3297000000011,247,3,1280.3297000000011,247,,,,1284.2899000000004,1284.7936000000016,1283.778,1284.2897000000012,1281.328200000001,1283.7778000000008,1284.7936000000016,1285.2896000000014,1285.2898000000007,1287.0058000000008,1640,1287.0059999999999,4,1287.0066000000015,3,4,94,8,1,1.4,0.7,Time
,,026578,001,男,19,2025-06-04_18h34.52.909,Serial_Dependence_U,2023.2.3,Win32,59.523809523799216,,,,,,1287.0076000000015,199,3,1287.0079000000003,199,,,,1291.0065,1291.5058000000008,1290.4946000000014,1291.0063000000007,1288.023700000001,1290.4945,1291.5059999999999,1292.0055,1292.0058000000008,1295.1773000000007,1883,1295.1774000000003,5,1295.1775,3,5,95,13,1,1.4,0.3,Time
,,026578,001,男,19,2025-06-04_18h34.52.909,Serial_Dependence_U,2023.2.3,Win32,59.523809523799216,,,,,,1295.178200000001,275,3,1295.1784000000002,275,,,,1298.7439000000004,1299.2391000000014,1298.227700000001,1298.7438000000006,1296.1771000000015,1298.2275,1299.2393000000006,1299.7384000000004,1299.7385,1411.9061000000015,1295,1411.906200000001,4,1411.9064000000003,3,6,96,16,1,1,0.7,Time
,,026578,001,男,19,2025-06-04_18h34.52.909,Serial_Dependence_U,2023.2.3,Win32,59.523809523799216,,,,,,1411.907,188,3,1411.907200000001,188,,,,1415.2711000000015,1415.7713000000008,1414.7556000000016,1415.2711000000015,1412.9185,1414.7555,1415.7714000000003,1416.2671000000014,1416.2672000000011,1417.6505,1160,1417.6506000000015,5,1417.6512000000012,3,7,97,25,1,0.8,0.7,Time
,,026578,001,男,19,2025-06-04_18h34.52.909,Serial_Dependence_U,2023.2.3,Win32,59.523809523799216,,,,,,1417.652,121,3,1417.6522000000011,121,,,,1421.0349999999999,1421.5336000000013,1420.5224000000003,1421.0348000000008,1418.6723000000006,1420.5223000000008,1421.5338000000006,1422.0339000000004,1422.0339999999999,1423.1726000000015,1017,1423.1726000000015,4,1423.172700000001,3,8,98,15,1,0.8,0.7,Time
,,026578,001,男,19,2025-06-04_18h34.52.909,Serial_Dependence_U,2023.2.3,Win32,59.523809523799216,,,,,,1423.1733000000006,137,3,1423.1736000000014,137,,,,1426.7551000000014,1427.250200000001,1426.2538000000006,1426.7549999999999,1424.1888000000008,1426.2537000000011,1427.2503000000006,1427.750200000001,1427.7504000000004,1429.1909000000003,1302,1429.191,5,1429.1913000000006,3,9,99,21,1,1,0.3,Time
,,026578,001,男,19,2025-06-04_18h34.52.909,Serial_Dependence_U,2023.2.3,Win32,59.523809523799216,,,,,,1429.1916000000015,89,3,1429.1916000000015,89,,,,1433.1389000000004,1433.6333000000006,1432.6219000000003,1433.1389000000004,1430.188700000001,1432.6218000000008,1433.6335,1434.1357000000012,1434.1357000000012,1436.0548000000008,1783,1436.0548000000008,4,1436.055,3,10,100,18,1,1.4,0.7,Time
,,026578,001,男,19,2025-06-04_18h34.52.909,Serial_Dependence_U,2023.2.3,Win32,59.523809523799216,,,,,,1436.0555,124,3,1436.055700000001,124,,,,1439.8368000000007,1440.3329000000003,1439.3364000000004,1439.836700000001,1437.066700000001,1439.3363000000006,1440.3329999999999,1440.8331000000014,1440.8333000000007,1442.171700000001,1245,1442.171700000001,3,1442.1719000000003,3,11,101,12,1,1.2,0.3,Time
,,026578,001,男,19,2025-06-04_18h34.52.909,Serial_Dependence_U,2023.2.3,Win32,59.523809523799216,,,,,,1442.1724000000004,291,3,1442.1726000000015,291,,,,1445.9024000000004,1446.3993000000007,1445.4001000000014,1445.9024000000004,1443.1674000000003,1445.3998000000006,1446.3994000000002,1446.899200000001,1446.8995,1448.471700000001,1362,1448.4718000000007,4,1448.472,3,12,102,7,1,1.2,0.7,Time
,,026578,001,男,19,2025-06-04_18h34.52.909,Serial_Dependence_U,2023.2.3,Win32,59.523809523799216,,,,,,1448.4724000000003,324,3,1448.4726000000014,324,,,,1452.4375,1452.9328000000007,1451.9211000000014,1452.4374000000003,1449.487700000001,1451.9211000000014,1452.933,1453.4323000000006,1453.4324000000004,1455.3376000000014,1728,1455.3377000000012,4,1455.3378000000007,3,13,103,28,1,1.4,0.7,Time
,,026578,001,男,19,2025-06-04_18h34.52.909,Serial_Dependence_U,2023.2.3,Win32,59.523809523799216,,,,,,1455.3384000000003,216,3,1455.3386000000014,216,,,,1459.504,1460.0037000000011,1458.9876000000015,1459.504,1456.3499000000004,1458.9875,1460.0037000000011,1460.4989000000003,1460.499,1461.9995,1296,1461.999700000001,2,1462.0003000000006,3,14,104,9,1,1.6,0.7,Time
,,026578,001,男,19,2025-06-04_18h34.52.909,Serial_Dependence_U,2023.2.3,Win32,59.523809523799216,,,,,,1462.001,137,3,1462.0013000000008,137,,,,1465.5666000000015,1466.065700000001,1465.0541000000014,1465.5662000000011,1463.0039000000004,1465.0539999999999,1466.0658000000008,1466.5655,1466.565700000001,1468.1876000000013,1350,1468.1876000000013,5,1468.1878000000006,3,15,105,6,1,1,0.7,Time
,,026578,001,男,19,2025-06-04_18h34.52.909,Serial_Dependence_U,2023.2.3,Win32,59.523809523799216,,,,,,1468.1885,185,3,1468.1885,185,,,,1471.5384999999999,1472.034200000001,1471.033,1471.5383000000006,1469.1998000000008,1471.0327000000011,1472.034200000001,1472.5326000000014,1472.5328000000006,1473.8539000000003,1219,1473.854,5,1473.8542000000011,3,16,106,5,1,0.8,0.7,Time
,,026578,001,男,19,2025-06-04_18h34.52.909,Serial_Dependence_U,2023.2.3,Win32,59.523809523799216,,,,,,1473.8548000000008,98,3,1473.855,98,,,,1477.615700000001,1478.114700000001,1477.1036000000015,1477.6154000000004,1474.8698000000006,1477.1035,1478.1148000000007,1478.6146000000015,1478.614700000001,1480.0381000000014,1264,1480.0381000000014,4,1480.0384000000004,3,17,107,27,1,1.2,0.7,Time
,,026578,001,男,19,2025-06-04_18h34.52.909,Serial_Dependence_U,2023.2.3,Win32,59.523809523799216,,,,,,1480.039,257,3,1480.0391000000016,257,,,,1484.0207000000012,1484.517700000001,1483.5194999999999,1484.0206000000014,1481.0489000000002,1483.5194999999999,1484.517700000001,1485.0148000000006,1485.0149000000004,1526.8854000000003,1130,1526.8854000000003,2,1526.8854999999999,3,18,108,3,1,1.4,0.3,Time
,,026578,001,男,19,2025-06-04_18h34.52.909,Serial_Dependence_U,2023.2.3,Win32,59.523809523799216,,,,,,1526.8859000000002,230,3,1526.8861000000015,230,,,,1531.0639000000003,1531.5629000000004,1530.5514000000003,1531.063700000001,1527.885200000001,1530.5514000000003,1531.5629999999999,1532.062700000001,1532.0629000000004,1534.017700000001,1683,1534.0178000000008,4,1534.0179000000003,3,19,109,14,1,1.6,0.3,Time
,,026578,001,男,19,2025-06-04_18h34.52.909,Serial_Dependence_U,2023.2.3,Win32,59.523809523799216,,,,,,1534.0186000000015,3,3,1534.018700000001,3,,,,1537.4136000000015,1537.9121000000014,1536.9013000000007,1537.413200000001,1535.0303000000008,1536.9013000000007,1537.9122000000011,1538.4125,1538.4126000000015,1539.9175,1284,1539.9175,5,1539.9178000000006,3,20,110,0,1,0.8,0.3,Time
,,026578,001,男,19,2025-06-04_18h34.52.909,Serial_Dependence_U,2023.2.3,Win32,59.523809523799216,,,,,,1539.9183000000007,285,3,1539.9183000000007,285,,,,1544.1003000000007,1544.5956000000015,1543.584700000001,1544.100200000001,1540.9338000000007,1543.5846000000015,1544.5958000000007,1545.095,1545.0952000000011,1547.0678000000007,1623,1547.0679000000002,3,1547.068,3,21,111,19,1,1.6,0.7,Time
,,026578,001,男,19,2025-06-04_18h34.52.909,Serial_Dependence_U,2023.2.3,Win32,59.523809523799216,,,,,,1547.0686000000014,332,3,1547.0687000000012,332,,,,1550.4504000000004,1550.9455,1549.9465,1550.4504000000004,1548.083700000001,1549.946200000001,1550.9456000000014,1551.4454000000003,1551.4455,1552.5668000000007,950,1552.5668000000007,4,1552.5671000000013,3,22,112,10,1,0.8,0.3,Time
,,026578,001,男,19,2025-06-04_18h34.52.909,Serial_Dependence_U,2023.2.3,Win32,59.523809523799216,,,,,,1552.5674999999999,178,3,1552.5679000000002,178,,,,1556.1625,1556.6619000000003,1555.6463000000008,1556.1623000000006,1553.5842000000011,1555.646,1556.662,1557.166,1557.166,1559.2003000000007,1650,1559.2004000000004,5,1559.2006000000015,3,23,113,1,1,1,0.3,Time
,,026578,001,男,19,2025-06-04_18h34.52.909,Serial_Dependence_U,2023.2.3,Win32,59.523809523799216,,,,,,1559.201200000001,88,3,1559.201200000001,88,,,,1562.8,1563.2988000000007,1562.283200000001,1562.8,1560.2124999999999,1562.283200000001,1563.2989000000002,1563.7951000000014,1563.7953000000007,1565.1339000000003,1249,1565.1339000000003,4,1565.1343000000006,3,24,114,11,1,1,0.3,Time
,,026578,001,男,19,2025-06-04_18h34.52.909,Serial_Dependence_U,2023.2.3,Win32,59.523809523799216,,,,,,1565.1348000000007,260,3,1565.1348000000007,260,,,,1569.2828000000006,1569.7781000000014,1568.7668000000008,1569.2827000000011,1566.1336000000015,1568.7666000000015,1569.7783000000006,1570.2778000000008,1570.2779000000003,1572.0329000000004,1497,1572.0329000000004,2,1572.0331000000015,3,25,115,29,1,1.6,0.7,Time
,,026578,001,男,19,2025-06-04_18h34.52.909,Serial_Dependence_U,2023.2.3,Win32,59.523809523799216,,,,,,1572.033700000001,48,3,1572.0339000000004,48,,,,1575.8114000000003,1576.3155,1575.3,1575.8111000000015,1573.049200000001,1575.3,1576.3155,1576.8153000000007,1576.8154000000004,1578.5661000000014,1549,1578.5661000000014,4,1578.5663000000006,3,26,116,17,1,1.2,0.7,Time
,,026578,001,男,19,2025-06-04_18h34.52.909,Serial_Dependence_U,2023.2.3,Win32,59.523809523799216,,,,,,1578.5669000000003,18,3,1578.567,18,,,,1581.9628000000007,1582.4603000000006,1581.449,1581.9624999999999,1579.5823000000007,1581.4489000000003,1582.4604000000004,1582.9606000000015,1582.960700000001,1583.75,595,1583.75,2,1583.750200000001,3,27,117,20,1,0.8,0.3,Time
,,026578,001,男,19,2025-06-04_18h34.52.909,Serial_Dependence_U,2023.2.3,Win32,59.523809523799216,,,,,,1583.7507000000012,198,3,1583.7509000000002,198,,,,1587.9278000000006,1588.4266000000014,1587.4157000000012,1587.9276000000013,1584.7495,1587.4156000000014,1588.4267000000011,1588.9146000000014,1588.9146000000014,1590.3767000000012,1193,1590.3769000000004,2,1590.3775,3,28,118,24,1,1.6,0.3,Time
,,026578,001,男,19,2025-06-04_18h34.52.909,Serial_Dependence_U,2023.2.3,Win32,59.523809523799216,,,,,,1590.3783000000008,27,3,1590.3786000000014,27,,,,1594.1821000000014,1594.6771000000015,1593.6612000000011,1594.182,1591.3984000000003,1593.6608000000008,1594.677200000001,1595.1765,1595.1766000000014,1597.2156000000014,1439,1597.215700000001,4,1597.2158000000006,3,29,119,22,1,1.2,0.3,Time
,,026578,001,男,19,2025-06-04_18h34.52.909,Serial_Dependence_U,2023.2.3,Win32,59.523809523799216,,,,,,1597.2163000000007,179,4,1598.793200000001,179,s,1.5573000000008506,,1602.7606000000014,1603.259700000001,1602.2483000000007,1602.7603000000006,1599.811,1602.2483000000007,1603.2599000000002,1603.759700000001,1603.7599000000002,1605.3595,1356,1605.359700000001,3,1605.3603000000007,4,0,120,18,1,1.4,0.7,Time
,,026578,001,男,19,2025-06-04_18h34.52.909,Serial_Dependence_U,2023.2.3,Win32,59.523809523799216,,,,,,1605.3609999999999,273,4,1605.3626000000015,273,,,,1608.7314999999999,1609.2286000000015,1608.2155,1608.7314000000003,1606.3799000000004,1608.2154000000003,1609.2286000000015,1609.7261000000015,1609.7264000000002,1611.0483000000006,1118,1611.0483000000006,5,1611.0484999999999,4,1,121,15,1,0.8,0.7,Time
,,026578,001,男,19,2025-06-04_18h34.52.909,Serial_Dependence_U,2023.2.3,Win32,59.523809523799216,,,,,,1611.049200000001,257,4,1611.049200000001,257,,,,1614.6124000000004,1615.1095,1614.098200000001,1614.6124000000004,1612.0643000000007,1614.0981000000015,1615.1096000000014,1615.6121000000014,1615.6121000000014,1617.0151000000014,1216,1617.0151000000014,4,1617.0156000000015,4,2,122,26,1,1,0.7,Time
,,026578,001,男,19,2025-06-04_18h34.52.909,Serial_Dependence_U,2023.2.3,Win32,59.523809523799216,,,,,,1617.0159000000003,150,4,1617.0161000000014,150,,,,1620.6142000000011,1621.1085,1620.098,1620.6141000000014,1618.0268000000008,1620.0979000000004,1621.1086000000014,1621.6089000000004,1621.6091000000015,1623.2148000000007,1345,1623.2148000000007,5,1623.215,4,3,123,11,1,1,0.3,Time
,,026578,001,男,19,2025-06-04_18h34.52.909,Serial_Dependence_U,2023.2.3,Win32,59.523809523799216,,,,,,1623.2155,295,4,1623.215700000001,295,,,,1627.409700000001,1627.9099000000003,1626.8978000000006,1627.4094000000002,1624.2323000000008,1626.8977000000011,1627.9101000000014,1628.4083000000007,1628.4084000000003,1630.3144000000004,1647,1630.3144000000004,3,1630.3148000000008,4,4,124,24,1,1.6,0.3,Time
,,026578,001,男,19,2025-06-04_18h34.52.909,Serial_Dependence_U,2023.2.3,Win32,59.523809523799216,,,,,,1630.3152000000011,80,4,1630.3153000000007,80,,,,1633.6806000000015,1634.1748000000007,1633.1763000000008,1633.6804000000004,1631.3143000000007,1633.176,1634.1749000000004,1634.6779000000004,1634.6779000000004,1636.391700000001,1382,1636.3919000000003,5,1636.3925,4,5,125,20,1,0.8,0.3,Time
,,026578,001,男,19,2025-06-04_18h34.52.909,Serial_Dependence_U,2023.2.3,Win32,59.523809523799216,,,,,,1636.3934000000004,211,4,1636.393700000001,211,,,,1640.1473000000008,1640.6418000000008,1639.630700000001,1640.1473000000008,1637.3964000000003,1639.6306000000016,1640.642,1641.1422000000011,1641.1424000000004,1642.6583000000007,1199,1642.6586000000013,3,1642.6593000000007,4,6,126,7,1,1.2,0.7,Time
,,026578,001,男,19,2025-06-04_18h34.52.909,Serial_Dependence_U,2023.2.3,Win32,59.523809523799216,,,,,,1642.6601000000014,309,4,1642.6603000000007,309,,,,1646.4259000000004,1646.9241000000015,1645.9131000000014,1646.4257000000011,1643.68,1645.9131000000014,1646.9241000000015,1647.4247000000012,1647.4249000000004,1649.247,1549,1649.2471000000014,4,1649.2472000000012,4,7,127,27,1,1.2,0.7,Time
,,026578,001,男,19,2025-06-04_18h34.52.909,Serial_Dependence_U,2023.2.3,Win32,59.523809523799216,,,,,,1649.2478000000008,74,4,1649.248,74,,,,1653.3981000000015,1653.8909999999998,1652.8961000000015,1653.398,1650.2463000000007,1652.8961000000015,1653.8911000000014,1654.3949000000002,1654.3949000000002,1656.3969000000004,1650,1656.397,3,1656.397200000001,4,8,128,9,1,1.6,0.7,Time
,,026578,001,男,19,2025-06-04_18h34.52.909,Serial_Dependence_U,2023.2.3,Win32,59.523809523799216,,,,,,1656.3975,32,4,1656.3977000000011,32,,,,1660.5635,1661.0574000000004,1660.0631000000014,1660.5635,1657.4122000000011,1660.0631000000014,1661.0575,1661.5615,1661.5615,1663.3626000000015,1533,1663.3626000000015,3,1663.3631000000014,4,9,129,29,1,1.6,0.7,Time
,,026578,001,男,19,2025-06-04_18h34.52.909,Serial_Dependence_U,2023.2.3,Win32,59.523809523799216,,,,,,1663.363700000001,125,4,1663.3638000000008,125,,,,1667.3279000000002,1667.824700000001,1666.8136000000015,1667.3278000000007,1664.379200000001,1666.8135,1667.8248000000008,1668.3242000000012,1668.3243000000007,1670.1403000000007,1605,1670.1405,4,1670.1411000000014,4,10,130,28,1,1.4,0.7,Time
,,026578,001,男,19,2025-06-04_18h34.52.909,Serial_Dependence_U,2023.2.3,Win32,59.523809523799216,,,,,,1670.142,83,4,1670.1423000000007,83,,,,1673.5254000000004,1674.0236000000014,1673.0083000000006,1673.5252000000012,1671.1454000000003,1673.0079000000003,1674.023700000001,1674.5238000000006,1674.5239000000004,1676.0624000000003,1211,1676.0624000000003,5,1676.0625,4,11,131,10,1,0.8,0.3,Time
,,026578,001,男,19,2025-06-04_18h34.52.909,Serial_Dependence_U,2023.2.3,Win32,59.523809523799216,,,,,,1676.0628000000006,254,4,1676.0628000000006,254,,,,1679.4244999999999,1679.9233000000006,1678.912,1679.4243000000008,1677.0609000000004,1678.9119000000003,1679.9234000000004,1680.4236000000014,1680.4237000000012,1682.1283000000008,1363,1682.1284000000003,5,1682.1285,4,12,132,5,1,0.8,0.7,Time
,,026578,001,男,19,2025-06-04_18h34.52.909,Serial_Dependence_U,2023.2.3,Win32,59.523809523799216,,,,,,1682.129200000001,258,4,1682.129200000001,258,,,,1686.3283000000008,1686.8229999999999,1685.8115,1686.328200000001,1683.145200000001,1685.8115,1686.8229999999999,1687.326200000001,1687.326200000001,1692.79,1934,1692.7901000000015,4,1692.7907000000012,4,13,133,14,1,1.6,0.3,Time
,,026578,001,男,19,2025-06-04_18h34.52.909,Serial_Dependence_U,2023.2.3,Win32,59.523809523799216,,,,,,1692.7913000000008,34,4,1692.7916000000014,34,,,,1696.9898000000007,1697.4929000000004,1696.4779000000003,1696.9895,1693.811700000001,1696.4779000000003,1697.4929000000004,1697.9894000000004,1697.9896000000015,1699.9779000000003,1766,1699.9779000000003,4,1699.9783000000007,4,14,134,4,1,1.6,0.3,Time
,,026578,001,男,19,2025-06-04_18h34.52.909,Serial_Dependence_U,2023.2.3,Win32,59.523809523799216,,,,,,1699.9786000000015,153,4,1699.978700000001,153,,,,1703.3452000000011,1703.8434000000004,1702.8442000000011,1703.3451000000014,1700.9774000000004,1702.8441000000014,1703.8435,1704.3428000000008,1704.3428000000008,1705.6944000000003,1150,1705.6945,5,1705.6948000000007,4,15,135,0,1,0.8,0.3,Time
,,026578,001,男,19,2025-06-04_18h34.52.909,Serial_Dependence_U,2023.2.3,Win32,59.523809523799216,,,,,,1705.6951000000015,185,4,1705.6953000000008,185,,,,1709.444,1709.9386000000015,1708.9286000000016,1709.444,1706.6926000000014,1708.9285,1709.938700000001,1710.443,1710.443,1712.1388000000006,1471,1712.1389000000004,4,1712.1396000000013,4,16,136,17,1,1.2,0.7,Time
,,026578,001,男,19,2025-06-04_18h34.52.909,Serial_Dependence_U,2023.2.3,Win32,59.523809523799216,,,,,,1712.1404000000002,168,4,1712.1406000000015,168,,,,1716.1106000000013,1716.608200000001,1715.610200000001,1716.1106000000013,1713.1431000000014,1715.6101000000015,1716.608200000001,1717.1051000000014,1717.1053000000006,1718.6112000000012,1369,1718.6113000000007,3,1718.6118000000008,4,17,137,23,1,1.4,0.3,Time
,,026578,001,男,19,2025-06-04_18h34.52.909,Serial_Dependence_U,2023.2.3,Win32,59.523809523799216,,,,,,1718.6119999999999,164,4,1718.6121000000014,164,,,,1722.4101000000014,1722.9047000000012,1721.8891000000015,1722.4099999999999,1719.6258000000007,1721.8888000000006,1722.9048000000007,1723.405,1723.4053000000008,1724.8943000000006,1248,1724.8943000000006,3,1724.8946000000014,4,18,138,12,1,1.2,0.3,Time
,,026578,001,男,19,2025-06-04_18h34.52.909,Serial_Dependence_U,2023.2.3,Win32,59.523809523799216,,,,,,1724.895,315,4,1724.8951000000015,315,,,,1728.4429000000002,1728.9383000000007,1727.9267000000011,1728.4429000000002,1725.8915,1727.9267000000011,1728.9384000000002,1729.4384000000002,1729.4386000000015,1730.9937000000011,1450,1730.9937000000011,5,1730.994,4,19,139,16,1,1,0.7,Time
,,026578,001,男,19,2025-06-04_18h34.52.909,Serial_Dependence_U,2023.2.3,Win32,59.523809523799216,,,,,,1730.9946000000014,256,4,1730.994700000001,256,,,,1734.942700000001,1735.4378000000006,1734.4265,1734.942700000001,1731.9929000000004,1734.4264000000003,1735.4379999999999,1735.9378000000006,1735.9379999999999,1737.8444000000004,1762,1737.8445,4,1737.8449000000003,4,20,140,8,1,1.4,0.7,Time
,,026578,001,男,19,2025-06-04_18h34.52.909,Serial_Dependence_U,2023.2.3,Win32,59.523809523799216,,,,,,1737.8451000000014,148,4,1737.8451000000014,148,,,,1741.4416000000015,1741.9419000000003,1740.9266000000014,1741.4415,1738.859700000001,1740.9265,1741.9419000000003,1742.4373000000007,1742.4375,1743.9933000000008,1352,1743.9935,5,1743.9938000000006,4,21,141,1,1,1,0.3,Time
,,026578,001,男,19,2025-06-04_18h34.52.909,Serial_Dependence_U,2023.2.3,Win32,59.523809523799216,,,,,,1743.9944000000003,253,4,1743.9945,253,,,,1747.572,1748.0705,1747.0593000000008,1747.571700000001,1745.009200000001,1747.059200000001,1748.0706000000014,1748.559,1748.559,1749.887,1186,1749.887200000001,4,1749.8879000000004,4,22,142,6,1,1,0.7,Time
,,026578,001,男,19,2025-06-04_18h34.52.909,Serial_Dependence_U,2023.2.3,Win32,59.523809523799216,,,,,,1749.8886000000014,344,4,1749.8888000000006,344,,,,1753.8776000000014,1754.3706000000016,1753.3759000000002,1753.8773000000008,1750.9046000000014,1753.3759000000002,1754.370700000001,1754.8701000000015,1754.8703000000007,1756.5768000000007,1535,1756.5768000000007,4,1756.577200000001,4,23,143,3,1,1.4,0.3,Time
,,026578,001,男,19,2025-06-04_18h34.52.909,Serial_Dependence_U,2023.2.3,Win32,59.523809523799216,,,,,,1756.5774999999999,342,4,1756.5776000000014,342,,,,1760.3586000000014,1760.8563000000006,1759.8553000000006,1760.3586000000014,1757.5921000000014,1759.8549000000003,1760.8563000000006,1761.356200000001,1761.356200000001,1830.4237000000012,1184,1830.4239000000002,3,1830.4241000000015,4,24,144,2,1,1.2,0.3,Time
,,026578,001,男,19,2025-06-04_18h34.52.909,Serial_Dependence_U,2023.2.3,Win32,59.523809523799216,,,,,,1830.4243000000008,136,4,1830.4243000000008,136,,,,1833.7551000000014,1834.2506000000014,1833.254200000001,1833.7549999999999,1831.4208000000008,1833.254200000001,1834.2507000000012,1834.7507000000012,1834.7508000000007,1835.9065,1049,1835.9065,5,1835.907,4,25,145,25,1,0.8,0.7,Time
,,026578,001,男,19,2025-06-04_18h34.52.909,Serial_Dependence_U,2023.2.3,Win32,59.523809523799216,,,,,,1835.907200000001,236,4,1835.907200000001,236,,,,1840.0514000000003,1840.5504000000003,1839.5391000000016,1840.051200000001,1836.9059000000004,1839.539,1840.5505,1841.0513000000008,1841.0514000000003,1842.867,1426,1842.867200000001,2,1842.8678000000007,4,26,146,19,1,1.6,0.7,Time
,,026578,001,男,19,2025-06-04_18h34.52.909,Serial_Dependence_U,2023.2.3,Win32,59.523809523799216,,,,,,1842.8684000000003,305,4,1842.8686000000014,305,,,,1846.6718000000008,1847.1714000000004,1846.1548000000007,1846.6716000000015,1843.8871000000015,1846.1547000000012,1847.1715,1847.6669000000004,1847.6671000000015,1849.4221000000014,1501,1849.4221000000014,4,1849.422200000001,4,27,147,22,1,1.2,0.3,Time
,,026578,001,男,19,2025-06-04_18h34.52.909,Serial_Dependence_U,2023.2.3,Win32,59.523809523799216,,,,,,1849.4228000000007,4,4,1849.423200000001,4,,,,1853.417700000001,1853.920700000001,1852.9057000000012,1853.4174000000003,1850.4373000000007,1852.9054999999998,1853.920700000001,1854.4186000000016,1854.418700000001,1856.0891000000015,1533,1856.0891000000015,4,1856.0893000000008,4,28,148,13,1,1.4,0.3,Time
,,026578,001,男,19,2025-06-04_18h34.52.909,Serial_Dependence_U,2023.2.3,Win32,59.523809523799216,,,,,,1856.0899000000004,154,4,1856.0901000000015,154,,,,1859.6686000000016,1860.1711000000014,1859.1548000000007,1859.6684000000002,1857.0887000000012,1859.1547000000012,1860.1712000000011,1860.6661000000015,1860.666200000001,1862.4326000000015,1730,1862.4328000000007,5,1862.4334000000003,4,29,149,21,1,1,0.3,Time
,,026578,001,男,19,2025-06-04_18h34.52.909,Serial_Dependence_U,2023.2.3,Win32,59.523809523799216,,,,,,1862.4344000000003,1,5,2005.8307000000011,1,s,143.37570000000142,,2009.9941000000015,2010.4939000000006,2009.4819000000005,2009.9939000000006,2006.831800000001,2009.4818000000012,2010.4940000000004,2010.9932000000015,2010.9934000000005,2013.0325,1829,2013.0325,4,2013.0330000000001,5,0,150,19,1,1.6,0.7,Time
,,026578,001,男,19,2025-06-04_18h34.52.909,Serial_Dependence_U,2023.2.3,Win32,59.523809523799216,,,,,,2013.0333000000007,34,5,2013.0340000000003,34,,,,2016.7769000000005,2017.2767000000015,2016.2652000000014,2016.7766000000017,2014.0307000000014,2016.265,2017.2768000000008,2017.7793000000008,2017.7793000000008,2019.1482000000012,1284,2019.1482000000012,4,2019.1484000000007,5,1,151,17,1,1.2,0.7,Time
,,026578,001,男,19,2025-06-04_18h34.52.909,Serial_Dependence_U,2023.2.3,Win32,59.523809523799216,,,,,,2019.1490000000001,333,5,2019.1490000000001,333,,,,2022.529800000001,2023.025800000001,2022.0273000000009,2022.529800000001,2020.1646000000017,2022.0270000000003,2023.0259000000008,2023.5304000000008,2023.5304000000008,2094.4735000000005,1030,2094.4736999999996,4,2094.474300000001,5,2,152,0,1,0.8,0.3,Time
,,026578,001,男,19,2025-06-04_18h34.52.909,Serial_Dependence_U,2023.2.3,Win32,59.523809523799216,,,,,,2094.475100000002,299,5,2094.4755000000005,299,,,,2098.2569000000026,2098.7605000000003,2097.745100000002,2098.256600000002,2095.4785000000006,2097.7450000000003,2098.7605000000003,2099.256100000002,2099.2563000000014,2100.745600000002,1350,2100.745600000002,4,2100.745800000001,5,3,153,12,1,1.2,0.3,Time
,,026578,001,男,19,2025-06-04_18h34.52.909,Serial_Dependence_U,2023.2.3,Win32,59.523809523799216,,,,,,2100.7461999999996,310,5,2100.7465,310,,,,2104.723800000001,2105.222600000002,2104.209800000001,2104.7235000000005,2101.7448000000013,2104.209600000002,2105.2227,2105.723100000002,2105.723300000001,2107.6128000000012,1734,2107.612900000003,4,2107.6133000000013,5,4,154,3,1,1.4,0.3,Time
,,026578,001,男,19,2025-06-04_18h34.52.909,Serial_Dependence_U,2023.2.3,Win32,59.523809523799216,,,,,,2107.6135000000004,58,5,2107.613600000002,58,,,,2111.3736999999996,2111.8768000000014,2110.861300000001,2111.3735000000006,2108.6261999999997,2110.8612,2111.8768000000014,2112.3722,2112.3723000000014,2114.228300000001,1532,2114.228300000001,4,2114.2285000000006,5,5,155,27,1,1.2,0.7,Time
,,026578,001,男,19,2025-06-04_18h34.52.909,Serial_Dependence_U,2023.2.3,Win32,59.523809523799216,,,,,,2114.2286999999997,79,5,2114.228900000003,79,,,,2118.0235000000002,2118.522800000001,2117.5115000000005,2118.0231000000017,2115.239800000001,2117.5115000000005,2118.5229000000027,2119.0224000000026,2119.022600000002,2121.2946999999995,1712,2121.294800000001,5,2121.2950000000005,5,6,156,22,1,1.2,0.3,Time
,,026578,001,男,19,2025-06-04_18h34.52.909,Serial_Dependence_U,2023.2.3,Win32,59.523809523799216,,,,,,2121.2956000000017,61,5,2121.2956999999997,61,,,,2124.8900000000003,2125.393100000002,2124.3775000000005,2124.8896999999997,2122.307400000003,2124.3774000000026,2125.3931999999995,2125.8891999999996,2125.889300000001,2146.694300000001,1065,2146.6945000000005,4,2146.694600000002,5,7,157,11,1,1,0.3,Time
,,026578,001,男,19,2025-06-04_18h34.52.909,Serial_Dependence_U,2023.2.3,Win32,59.523809523799216,,,,,,2146.694800000001,97,5,2146.6949000000027,97,,,,2150.2384000000025,2150.7389000000026,2149.7264000000027,2150.238100000002,2147.693400000003,2149.7264000000027,2150.739100000002,2151.2382,2151.2384000000025,2152.5546999999997,1007,2152.5548000000013,3,2152.5555000000004,5,8,158,26,1,1,0.7,Time
,,026578,001,男,19,2025-06-04_18h34.52.909,Serial_Dependence_U,2023.2.3,Win32,59.523809523799216,,,,,,2152.556300000001,208,5,2152.5566000000017,208,,,,2156.3588000000013,2156.854100000002,2155.838400000003,2156.3588000000013,2153.571600000002,2155.8381000000018,2156.8541999999998,2157.354100000002,2157.3541999999998,2160.326300000001,1366,2160.3264000000026,4,2160.3266999999996,5,9,159,2,1,1.2,0.3,Time
,,026578,001,男,19,2025-06-04_18h34.52.909,Serial_Dependence_U,2023.2.3,Win32,59.523809523799216,,,,,,2160.3273000000013,31,5,2160.3273000000013,31,,,,2164.5219000000025,2165.025300000001,2164.0094000000026,2164.521600000002,2161.3381000000018,2164.0091999999995,2165.025300000001,2165.521600000002,2165.5218000000013,2167.327,1595,2167.327,3,2167.3271999999997,5,10,160,14,1,1.6,0.3,Time
,,026578,001,男,19,2025-06-04_18h34.52.909,Serial_Dependence_U,2023.2.3,Win32,59.523809523799216,,,,,,2167.327800000001,51,5,2167.327800000001,51,,,,2171.274300000001,2171.7701999999995,2170.7711999999997,2171.274300000001,2168.337800000001,2170.7709000000027,2171.7705000000005,2172.2710000000006,2172.2711999999997,2174.4590000000003,1851,2174.459100000002,5,2174.4592,5,11,161,28,1,1.4,0.7,Time
,,026578,001,男,19,2025-06-04_18h34.52.909,Serial_Dependence_U,2023.2.3,Win32,59.523809523799216,,,,,,2174.459800000001,16,5,2174.4599000000026,16,,,,2178.654800000001,2179.153100000002,2178.1427,2178.6545000000006,2175.475100000002,2178.142600000002,2179.1531999999997,2179.654100000002,2179.6541999999995,2181.6753000000012,1814,2181.6753000000012,4,2181.675400000003,5,12,162,24,1,1.6,0.3,Time
,,026578,001,男,19,2025-06-04_18h34.52.909,Serial_Dependence_U,2023.2.3,Win32,59.523809523799216,,,,,,2181.6758000000013,32,5,2181.676300000001,32,,,,2185.6580000000004,2186.152800000001,2185.141100000002,2185.6580000000004,2182.674600000002,2185.141100000002,2186.152900000003,2186.6571999999996,2186.6571999999996,2188.541600000002,1600,2188.5418000000013,4,2188.5422,5,13,163,13,1,1.4,0.3,Time
,,026578,001,男,19,2025-06-04_18h34.52.909,Serial_Dependence_U,2023.2.3,Win32,59.523809523799216,,,,,,2188.5424000000025,0,5,2188.5424000000025,0,,,,2191.924300000001,2192.419100000002,2191.4080000000004,2191.924300000001,2189.5413000000012,2191.4078000000013,2192.4193000000014,2192.924300000001,2192.9244000000026,2194.757900000003,1294,2194.757900000003,5,2194.758100000002,5,14,164,20,1,0.8,0.3,Time
,,026578,001,男,19,2025-06-04_18h34.52.909,Serial_Dependence_U,2023.2.3,Win32,59.523809523799216,,,,,,2194.758800000001,98,5,2194.7589000000025,98,,,,2198.341100000002,2198.835800000001,2197.824300000001,2198.340900000003,2195.757100000002,2197.824300000001,2198.8359000000028,2199.3356000000017,2199.335800000001,2201.5249000000026,1567,2201.525100000002,5,2201.5254000000027,5,15,165,1,1,1,0.3,Time
,,026578,001,男,19,2025-06-04_18h34.52.909,Serial_Dependence_U,2023.2.3,Win32,59.523809523799216,,,,,,2201.525900000003,6,5,2201.525900000003,6,,,,2205.119900000003,2205.6236000000017,2204.6076999999996,2205.1196999999997,2202.5404000000026,2204.6075000000005,2205.6236000000017,2206.1191000000017,2206.119300000001,2210.5519000000027,1685,2210.5521000000017,5,2210.5525000000002,5,16,166,21,1,1,0.3,Time
,,026578,001,男,19,2025-06-04_18h34.52.909,Serial_Dependence_U,2023.2.3,Win32,59.523809523799216,,,,,,2210.5534000000025,332,5,2210.553600000002,332,,,,2214.7374000000027,2215.2349000000027,2214.223800000001,2214.737100000002,2211.5557,2214.223800000001,2215.2349000000027,2215.7346999999995,2215.7350000000006,2217.740800000001,1726,2217.7409000000025,4,2217.7415000000005,5,17,167,4,1,1.6,0.3,Time
,,026578,001,男,19,2025-06-04_18h34.52.909,Serial_Dependence_U,2023.2.3,Win32,59.523809523799216,,,,,,2217.7416999999996,241,5,2217.7416999999996,241,,,,2221.5049000000026,2222.005600000002,2220.9855000000002,2221.504800000001,2218.7524000000026,2220.985300000001,2222.005600000002,2222.5040000000004,2222.5040000000004,2224.3073000000013,1532,2224.3073000000013,4,2224.307800000001,5,18,168,7,1,1.2,0.7,Time
,,026578,001,男,19,2025-06-04_18h34.52.909,Serial_Dependence_U,2023.2.3,Win32,59.523809523799216,,,,,,2224.3081999999995,97,5,2224.308300000001,97,,,,2228.451800000001,2228.9555000000005,2227.9396999999994,2228.4514000000026,2225.306300000001,2227.939600000002,2228.955600000002,2229.451300000001,2229.4515000000006,2231.4735000000005,1783,2231.4735000000005,4,2231.473600000002,5,19,169,9,1,1.6,0.7,Time
,,026578,001,男,19,2025-06-04_18h34.52.909,Serial_Dependence_U,2023.2.3,Win32,59.523809523799216,,,,,,2231.4741999999997,245,5,2231.474400000003,245,,,,2235.4066999999995,2235.9005,2234.9015000000004,2235.4066999999995,2232.469300000001,2234.9014000000025,2235.9006999999997,2236.4061999999994,2236.4061999999994,2238.5509000000025,1634,2238.5512,4,2238.5519000000027,5,20,170,18,1,1.4,0.7,Time
,,026578,001,男,19,2025-06-04_18h34.52.909,Serial_Dependence_U,2023.2.3,Win32,59.523809523799216,,,,,,2238.5526999999997,167,5,2238.5530000000003,167,,,,2242.5515000000005,2243.0546999999997,2242.0399000000025,2242.5512,2239.568100000002,2242.0398000000014,2243.0546999999997,2243.5550000000003,2243.5550000000003,2245.355800000001,1328,2245.355800000001,2,2245.3561999999997,5,21,171,23,1,1.4,0.3,Time
,,026578,001,男,19,2025-06-04_18h34.52.909,Serial_Dependence_U,2023.2.3,Win32,59.523809523799216,,,,,,2245.3569000000025,203,5,2245.3570000000004,203,,,,2249.5211999999997,2250.0170000000003,2249.0055,2249.5211000000018,2246.368100000002,2249.0054000000027,2250.0170000000003,2250.5173000000013,2250.5175000000004,2252.473300000001,1729,2252.4734000000026,4,2252.473600000002,5,22,172,29,1,1.6,0.7,Time
,,026578,001,男,19,2025-06-04_18h34.52.909,Serial_Dependence_U,2023.2.3,Win32,59.523809523799216,,,,,,2252.4741000000017,15,5,2252.4741000000017,15,,,,2256.0345,2256.536300000001,2255.5217,2256.0341999999996,2253.487900000003,2255.521600000002,2256.536300000001,2257.0340000000006,2257.0340000000006,2258.1886000000018,1100,2258.1886999999997,4,2258.1888000000013,5,23,173,6,1,1,0.7,Time
,,026578,001,男,19,2025-06-04_18h34.52.909,Serial_Dependence_U,2023.2.3,Win32,59.523809523799216,,,,,,2258.1893000000014,340,5,2258.1895000000004,340,,,,2262.134300000001,2262.632800000001,2261.621900000003,2262.134100000002,2259.1869000000024,2261.6216999999997,2262.6330000000003,2263.1335000000004,2263.133600000002,2264.8498000000013,1487,2264.8499000000024,4,2264.8505000000005,5,24,174,8,1,1.4,0.7,Time
,,026578,001,男,19,2025-06-04_18h34.52.909,Serial_Dependence_U,2023.2.3,Win32,59.523809523799216,,,,,,2264.8511999999996,128,5,2264.8515,128,,,,2268.2511999999997,2268.7493000000013,2267.7382,2268.2509000000027,2265.8714000000027,2267.738100000002,2268.7495000000004,2269.2494000000024,2269.249600000002,2270.8170000000005,1255,2270.817100000002,5,2270.817800000001,5,25,175,10,1,0.8,0.3,Time
,,026578,001,男,19,2025-06-04_18h34.52.909,Serial_Dependence_U,2023.2.3,Win32,59.523809523799216,,,,,,2270.8185000000003,248,5,2270.8187,248,,,,2274.384100000002,2274.8825000000006,2273.8710000000005,2274.3837,2271.834100000002,2273.8710000000005,2274.8826000000017,2275.3825000000006,2275.382800000001,2276.9990000000003,1458,2276.9991999999997,5,2276.9997,5,26,176,16,1,1,0.7,Time
,,026578,001,男,19,2025-06-04_18h34.52.909,Serial_Dependence_U,2023.2.3,Win32,59.523809523799216,,,,,,2277.000300000001,128,5,2277.0005000000006,128,,,,2280.3541999999998,2280.8495000000003,2279.8505000000005,2280.3541999999998,2278.0168000000012,2279.850300000001,2280.849600000002,2281.353300000001,2281.3534000000027,2282.7691999999997,1205,2282.7693000000013,5,2282.769400000003,5,27,177,5,1,0.8,0.7,Time
,,026578,001,男,19,2025-06-04_18h34.52.909,Serial_Dependence_U,2023.2.3,Win32,59.523809523799216,,,,,,2282.7697,159,5,2282.769800000001,159,,,,2286.1209000000026,2286.6164000000026,2285.6047,2286.1209000000026,2283.770800000001,2285.604600000002,2286.6165000000005,2287.116100000002,2287.116300000001,2288.6373000000012,1183,2288.637400000003,5,2288.637600000002,5,28,178,15,1,0.8,0.7,Time
,,026578,001,男,19,2025-06-04_18h34.52.909,Serial_Dependence_U,2023.2.3,Win32,59.523809523799216,,,,,,2288.6379000000024,354,5,2288.6382,354,,,,2292.0156999999995,2292.5155000000004,2291.504100000002,2292.0154000000025,2289.654100000002,2291.504100000002,2292.5156999999995,2293.0150000000003,2293.0152,2294.5320000000006,1239,2294.5321999999996,5,2294.5329000000024,5,29,179,25,1,0.8,0.7,Time
,,026578,001,男,19,2025-06-04_18h34.52.909,Serial_Dependence_U,2023.2.3,Win32,59.523809523799216,,,,,,2294.5335000000005,26,6,2735.464800000001,26,s,440.90449999999964,,2739.4483000000014,2739.947300000001,2738.9359000000027,2739.448100000002,2736.4695000000006,2738.9359000000027,2739.9474000000027,2740.4469000000026,2740.4470000000006,2742.2189000000026,1516,2742.2190000000005,4,2742.2194000000027,6,0,180,13,1,1.4,0.3,Time
,,026578,001,男,19,2025-06-04_18h34.52.909,Serial_Dependence_U,2023.2.3,Win32,59.523809523799216,,,,,,2742.219900000003,237,6,2742.2207,237,,,,2745.5981999999995,2746.099600000002,2745.085800000001,2745.5978000000014,2743.217100000002,2745.0856999999996,2746.099600000002,2746.597,2746.597100000002,2748.2860000000005,1514,2748.2860000000005,5,2748.2864000000027,6,1,181,20,1,0.8,0.3,Time
,,026578,001,男,19,2025-06-04_18h34.52.909,Serial_Dependence_U,2023.2.3,Win32,59.523809523799216,,,,,,2748.286800000001,231,6,2748.286800000001,231,,,,2751.8849000000027,2752.3804000000027,2751.3689000000027,2751.884800000001,2749.3028000000013,2751.3689000000027,2752.380600000002,2752.8826999999997,2752.8826999999997,2754.1300000000006,1074,2754.1301999999996,4,2754.130900000003,6,2,182,11,1,1,0.3,Time
,,026578,001,男,19,2025-06-04_18h34.52.909,Serial_Dependence_U,2023.2.3,Win32,59.523809523799216,,,,,,2754.1315000000004,256,6,2754.1319000000026,256,,,,2757.9005,2758.4004000000027,2757.3976999999995,2757.9004000000027,2755.1353000000013,2757.3974000000026,2758.4005,2758.8968000000013,2758.8969000000025,2760.3016999999995,1215,2760.301800000001,3,2760.3021000000017,6,3,183,12,1,1.2,0.3,Time
,,026578,001,男,19,2025-06-04_18h34.52.909,Serial_Dependence_U,2023.2.3,Win32,59.523809523799216,,,,,,2760.302600000002,162,6,2760.3026999999997,162,,,,2763.6805000000004,2764.184400000003,2763.1685,2763.6803000000014,2761.3188000000014,2763.1684000000027,2764.184400000003,2764.679300000001,2764.6794000000027,2889.147100000002,1195,2889.147100000002,5,2889.1475000000005,6,4,184,5,1,0.8,0.7,Time
,,026578,001,男,19,2025-06-04_18h34.52.909,Serial_Dependence_U,2023.2.3,Win32,59.523809523799216,,,,,,2889.1480000000006,142,6,2889.1481000000017,142,,,,2892.8960000000006,2893.3906999999995,2892.3920000000003,2892.8960000000006,2890.1590000000006,2892.3916999999997,2893.3909000000026,2893.891300000001,2893.8915000000006,2895.7309000000027,1531,2895.731,4,2895.7311999999997,6,5,185,7,1,1.2,0.7,Time
,,026578,001,男,19,2025-06-04_18h34.52.909,Serial_Dependence_U,2023.2.3,Win32,59.523809523799216,,,,,,2895.731400000003,168,6,2895.7315000000003,168,,,,2899.0926000000018,2899.5908000000013,2898.5789000000027,2899.092300000001,2896.7439000000027,2898.578800000001,2899.5910000000003,2900.0910000000003,2900.0912,2901.3471999999997,1036,2901.3473000000013,4,2901.3477,6,6,186,15,1,0.8,0.7,Time
,,026578,001,男,19,2025-06-04_18h34.52.909,Serial_Dependence_U,2023.2.3,Win32,59.523809523799216,,,,,,2901.3479000000025,221,6,2901.3479000000025,221,,,,2905.4960000000005,2905.9948000000013,2904.9941999999996,2905.4959000000026,2902.3625000000006,2904.9941000000017,2905.9948000000013,2906.490600000002,2906.4907,2908.4960000000005,1667,2908.4961999999996,3,2908.4965,6,7,187,9,1,1.6,0.7,Time
,,026578,001,男,19,2025-06-04_18h34.52.909,Serial_Dependence_U,2023.2.3,Win32,59.523809523799216,,,,,,2908.4966999999997,222,6,2908.4968000000013,222,,,,2912.458100000002,2912.957300000001,2911.9458000000013,2912.457800000001,2909.5103000000013,2911.9456999999998,2912.9574000000025,2913.457100000002,2913.4572,2915.2465,1516,2915.2465,4,2915.2466999999997,6,8,188,8,1,1.4,0.7,Time
,,026578,001,男,19,2025-06-04_18h34.52.909,Serial_Dependence_U,2023.2.3,Win32,59.523809523799216,,,,,,2915.2473000000014,218,6,2915.2474000000025,218,,,,2918.6244000000024,2919.1235000000006,2918.1121999999996,2918.624100000002,2916.243300000001,2918.1121999999996,2919.1236000000017,2919.6234000000027,2919.6236000000017,2921.1285000000003,1364,2921.128600000002,5,2921.1288000000013,6,9,189,10,1,0.8,0.3,Time
,,026578,001,男,19,2025-06-04_18h34.52.909,Serial_Dependence_U,2023.2.3,Win32,59.523809523799216,,,,,,2921.129300000001,330,6,2921.1294000000025,330,,,,2924.9121999999998,2925.4114000000027,2924.3951999999995,2924.912100000002,2922.128400000003,2924.395100000002,2925.4115000000006,2925.906300000001,2925.9064000000026,2927.6285000000003,1511,2927.6285000000003,4,2927.6289000000024,6,10,190,22,1,1.2,0.3,Time
,,026578,001,男,19,2025-06-04_18h34.52.909,Serial_Dependence_U,2023.2.3,Win32,59.523809523799216,,,,,,2927.6294000000025,329,6,2927.6294000000025,329,,,,2931.194600000002,2931.6890000000003,2930.6780000000003,2931.1945000000005,2928.6449000000025,2930.677900000003,2931.689100000002,2932.1939000000025,2932.1939000000025,2933.7284000000027,1324,2933.7285000000006,5,2933.7288000000012,6,11,191,26,1,1,0.7,Time
,,026578,001,男,19,2025-06-04_18h34.52.909,Serial_Dependence_U,2023.2.3,Win32,59.523809523799216,,,,,,2933.7293000000013,221,6,2933.7294000000024,221,,,,2937.878300000001,2938.3720000000003,2937.377600000002,2937.8781999999997,2934.7444000000028,2937.3775000000005,2938.3722,2938.872600000002,2938.8727,2940.5616999999997,1598,2940.5618000000013,3,2940.5622,6,12,192,29,1,1.6,0.7,Time
,,026578,001,男,19,2025-06-04_18h34.52.909,Serial_Dependence_U,2023.2.3,Win32,59.523809523799216,,,,,,2940.562600000002,288,6,2940.562600000002,288,,,,2943.940300000001,2944.4431999999997,2943.4276999999997,2943.9399000000026,2941.561400000003,2943.427600000002,2944.4431999999997,2944.938900000003,2944.939100000002,2946.7280000000005,1601,2946.7280000000005,5,2946.728300000001,6,13,193,0,1,0.8,0.3,Time
,,026578,001,男,19,2025-06-04_18h34.52.909,Serial_Dependence_U,2023.2.3,Win32,59.523809523799216,,,,,,2946.7288000000012,163,6,2946.728900000003,163,,,,2950.6730000000002,2951.171800000001,2950.160800000001,2950.6726999999996,2947.727100000002,2950.1606999999995,2951.1719000000026,2951.6717,2951.671800000001,2953.6717,1662,2953.6719000000026,4,2953.6725000000006,6,14,194,18,1,1.4,0.7,Time
,,026578,001,男,19,2025-06-04_18h34.52.909,Serial_Dependence_U,2023.2.3,Win32,59.523809523799216,,,,,,2953.6733000000013,346,6,2953.673600000002,346,,,,2957.672800000001,2958.1713000000013,2957.160100000002,2957.6725000000006,2954.692100000002,2957.159900000003,2958.1714000000024,2958.6714000000024,2958.671600000002,2963.5276000000017,1461,2963.5276000000017,3,2963.5280000000002,6,15,195,3,1,1.4,0.3,Time
,,026578,001,男,19,2025-06-04_18h34.52.909,Serial_Dependence_U,2023.2.3,Win32,59.523809523799216,,,,,,2963.528400000003,228,6,2963.528400000003,228,,,,2967.0896999999995,2967.5887,2966.5769000000028,2967.0892,2964.5419000000024,2966.576800000001,2967.5888000000014,2968.0881999999997,2968.088400000003,2969.5935000000004,1184,2969.5935000000004,4,2969.5941999999995,6,16,196,16,1,1,0.7,Time
,,026578,001,男,19,2025-06-04_18h34.52.909,Serial_Dependence_U,2023.2.3,Win32,59.523809523799216,,,,,,2969.5945000000006,160,6,2969.5945000000006,160,,,,2973.7884000000026,2974.2877,2973.2765000000004,2973.7880000000005,2970.6051999999995,2973.2764000000025,2974.287800000001,2974.788100000002,2974.788300000001,2976.5280000000002,1434,2976.528100000002,2,2976.528400000003,6,17,197,14,1,1.6,0.3,Time
,,026578,001,男,19,2025-06-04_18h34.52.909,Serial_Dependence_U,2023.2.3,Win32,59.523809523799216,,,,,,2976.528600000002,137,6,2976.528600000002,137,,,,2980.7072,2981.2041999999997,2980.1914000000024,2980.707100000002,2977.5263000000014,2980.1913000000013,2981.204400000003,2981.7081999999996,2981.7081999999996,2986.610900000003,1190,2986.610900000003,2,2986.6112,6,18,198,24,1,1.6,0.3,Time
,,026578,001,男,19,2025-06-04_18h34.52.909,Serial_Dependence_U,2023.2.3,Win32,59.523809523799216,,,,,,2986.6114000000025,32,6,2986.6114000000025,32,,,,2990.8046999999997,2991.3079000000025,2990.2925000000005,2990.8045,2987.6101999999996,2990.2924000000025,2991.3079000000025,2991.8045,2991.8045,2993.5593000000013,1417,2993.5593000000013,2,2993.5597,6,19,199,4,1,1.6,0.3,Time
,,026578,001,男,19,2025-06-04_18h34.52.909,Serial_Dependence_U,2023.2.3,Win32,59.523809523799216,,,,,,2993.560100000002,56,6,2993.5602,56,,,,2997.5541999999996,2998.0532,2997.0406999999996,2997.5540000000005,2994.5740000000005,2997.040600000002,2998.053300000001,2998.541400000003,2998.5415000000003,3002.5591000000018,1302,3002.5591999999997,2,3002.5598000000014,6,20,200,23,1,1.4,0.3,Time
,,026578,001,男,19,2025-06-04_18h34.52.909,Serial_Dependence_U,2023.2.3,Win32,59.523809523799216,,,,,,3002.5599000000025,105,6,3002.5600000000004,105,,,,3006.3251999999998,3006.8196999999996,3005.8084000000026,3006.3251999999998,3003.5564000000027,3005.808300000001,3006.8196999999996,3007.3205000000003,3007.320600000002,3009.3586999999998,1448,3009.3586999999998,4,3009.359100000002,6,21,201,27,1,1.2,0.7,Time
,,026578,001,男,19,2025-06-04_18h34.52.909,Serial_Dependence_U,2023.2.3,Win32,59.523809523799216,,,,,,3009.3595000000005,157,6,3009.359600000002,157,,,,3013.508100000002,3014.003300000001,3012.991600000002,3013.508100000002,3010.356400000003,3012.9915000000005,3014.003400000003,3014.5076000000017,3014.5076000000017,3016.276100000002,1383,3016.276100000002,2,3016.2764000000025,6,22,202,19,1,1.6,0.7,Time
,,026578,001,男,19,2025-06-04_18h34.52.909,Serial_Dependence_U,2023.2.3,Win32,59.523809523799216,,,,,,3016.276800000001,329,6,3016.276800000001,329,,,,3019.8754000000026,3020.3705000000004,3019.357800000001,3019.875300000001,3017.2866999999997,3019.3576999999996,3020.370600000002,3020.8724000000025,3020.8724000000025,3022.8255000000004,1652,3022.825600000002,5,3022.826100000002,6,23,203,1,1,1,0.3,Time
,,026578,001,男,19,2025-06-04_18h34.52.909,Serial_Dependence_U,2023.2.3,Win32,59.523809523799216,,,,,,3022.826300000001,314,6,3022.826300000001,314,,,,3026.7879000000025,3027.2855000000004,3026.2742,3026.7877,3023.8415000000005,3026.2740000000003,3027.285600000002,3027.785800000001,3027.7860000000005,3029.4691999999995,1497,3029.4694000000027,4,3029.4700000000003,6,24,204,28,1,1.4,0.7,Time
,,026578,001,男,19,2025-06-04_18h34.52.909,Serial_Dependence_U,2023.2.3,Win32,59.523809523799216,,,,,,3029.4707,250,6,3029.4709000000025,250,,,,3033.036300000001,3033.5355000000004,3032.5240000000003,3033.0359000000026,3030.4860000000003,3032.5238000000013,3033.535600000002,3034.0356999999995,3034.0359000000026,3035.4415000000004,1150,3035.441600000002,4,3035.4420000000005,6,25,205,6,1,1,0.7,Time
,,026578,001,男,19,2025-06-04_18h34.52.909,Serial_Dependence_U,2023.2.3,Win32,59.523809523799216,,,,,,3035.4421999999995,25,6,3035.4421999999995,25,,,,3039.0226999999995,3039.5184000000027,3038.5036999999998,3039.0226999999995,3036.4404000000027,3038.503400000003,3039.5185000000006,3040.0225000000005,3040.0225000000005,3041.9576999999995,1647,3041.957800000001,5,3041.9580000000005,6,26,206,21,1,1,0.3,Time
,,026578,001,男,19,2025-06-04_18h34.52.909,Serial_Dependence_U,2023.2.3,Win32,59.523809523799216,,,,,,3041.9581999999996,143,6,3041.958300000001,143,,,,3045.7191999999995,3046.218100000002,3045.2075000000004,3045.7190000000005,3042.973600000002,3045.2074000000025,3046.2182,3046.7184000000025,3046.7185000000004,3048.3241999999996,1385,3048.3241999999996,4,3048.3245000000006,6,27,207,17,1,1.2,0.7,Time
,,026578,001,男,19,2025-06-04_18h34.52.909,Serial_Dependence_U,2023.2.3,Win32,59.523809523799216,,,,,,3048.3250000000003,313,6,3048.325100000002,313,,,,3051.685800000001,3052.1849000000025,3051.173400000003,3051.6855000000005,3049.3401000000017,3051.1733000000013,3052.1850000000004,3052.6852,3052.685300000001,3054.5013000000013,1533,3054.501400000003,5,3054.502100000002,6,28,208,25,1,0.8,0.7,Time
,,026578,001,男,19,2025-06-04_18h34.52.909,Serial_Dependence_U,2023.2.3,Win32,59.523809523799216,,,,,,3054.5030000000006,160,6,3054.503300000001,160,,,,3058.2909000000027,3058.7845,3057.790300000001,3058.2909000000027,3055.5218000000013,3057.7901999999995,3058.7846999999997,3059.2845,3059.284600000002,3060.8729000000026,1366,3060.8730000000005,4,3060.8731999999995,6,29,209,2,1,1.2,0.3,Time
,,026578,001,男,19,2025-06-04_18h34.52.909,Serial_Dependence_U,2023.2.3,Win32,59.523809523799216,,,,,,3060.8735000000006,314,7,3394.8716000000018,314,s,333.971,,3398.655400000003,3399.1582,3398.142600000002,3398.655,3395.875800000001,3398.1425000000004,3399.1582,3399.6537,3399.6539000000025,3401.3763000000013,1272,3401.3765000000003,4,3401.3767,7,0,210,2,1,1.2,0.3,Time
,,026578,001,男,19,2025-06-04_18h34.52.909,Serial_Dependence_U,2023.2.3,Win32,59.523809523799216,,,,,,3401.3769000000025,336,7,3401.3776999999995,336,,,,3404.7711000000018,3405.2704000000026,3404.258800000001,3404.7710000000006,3402.3876999999998,3404.2587,3405.2705000000005,3405.7699000000025,3405.7700000000004,3407.2259000000026,1167,3407.2260000000006,5,3407.2261999999996,7,1,211,10,1,0.8,0.3,Time
,,026578,001,男,19,2025-06-04_18h34.52.909,Serial_Dependence_U,2023.2.3,Win32,59.523809523799216,,,,,,3407.226900000003,62,7,3407.2270000000003,62,,,,3411.406800000001,3411.9030000000002,3410.8927,3411.406800000001,3408.2255000000005,3410.8927,3411.903100000002,3412.4045000000006,3412.4045000000006,3460.4235000000003,1678,3460.4237,3,3460.4241999999995,7,2,212,24,1,1.6,0.3,Time
,,026578,001,男,19,2025-06-04_18h34.52.909,Serial_Dependence_U,2023.2.3,Win32,59.523809523799216,,,,,,3460.424300000001,202,7,3460.424300000001,202,,,,3464.5899000000027,3465.0847,3464.0859000000028,3464.5899000000027,3461.423600000002,3464.0856000000017,3465.084800000001,3465.585100000002,3465.585300000001,3467.758100000002,1865,3467.7581999999998,4,3467.7584000000024,7,3,213,4,1,1.6,0.3,Time
,,026578,001,男,19,2025-06-04_18h34.52.909,Serial_Dependence_U,2023.2.3,Win32,59.523809523799216,,,,,,3467.758600000002,150,7,3467.758600000002,150,,,,3471.339600000002,3471.8344000000025,3470.8230000000003,3471.339600000002,3468.7531999999997,3470.8230000000003,3471.8345000000004,3472.3371999999995,3472.3371999999995,3473.7401999999997,1235,3473.7403000000013,4,3473.740800000001,7,4,214,21,1,1,0.3,Time
,,026578,001,男,19,2025-06-04_18h34.52.909,Serial_Dependence_U,2023.2.3,Win32,59.523809523799216,,,,,,3473.741100000002,90,7,3473.7411999999995,90,,,,3477.106400000003,3477.6005000000005,3476.589600000002,3477.1063000000013,3474.7515000000003,3476.5895000000005,3477.600600000002,3478.100300000001,3478.1004000000025,3510.866800000001,1383,3510.8669000000027,5,3510.8675000000003,7,5,215,25,1,0.8,0.7,Time
,,026578,001,男,19,2025-06-04_18h34.52.909,Serial_Dependence_U,2023.2.3,Win32,59.523809523799216,,,,,,3510.8682,202,7,3510.8686999999995,202,,,,3514.420900000003,3514.915800000001,3513.917100000002,3514.420900000003,3511.8840000000005,3513.9169000000024,3514.9159000000027,3515.4161999999997,3515.416400000003,3516.972,1232,3516.972,4,3516.9725000000003,7,6,216,26,1,1,0.7,Time
,,026578,001,男,19,2025-06-04_18h34.52.909,Serial_Dependence_U,2023.2.3,Win32,59.523809523799216,,,,,,3516.9728000000014,215,7,3516.9729000000025,215,,,,3520.3669000000027,3520.866300000001,3519.8541999999998,3520.3666999999996,3517.9835000000003,3519.8541999999998,3520.8665000000005,3521.3660000000004,3521.366100000002,3523.2713000000012,1582,3523.2713000000012,5,3523.271600000002,7,7,217,20,1,0.8,0.3,Time
,,026578,001,男,19,2025-06-04_18h34.52.909,Serial_Dependence_U,2023.2.3,Win32,59.523809523799216,,,,,,3523.272100000002,272,7,3523.2722,272,,,,3527.252300000001,3527.7485000000006,3526.7380000000003,3527.252300000001,3524.2718000000013,3526.7380000000003,3527.7486000000017,3528.248800000001,3528.2490000000003,3593.935800000001,1133,3593.9359000000027,2,3593.936400000003,7,8,218,23,1,1.4,0.3,Time
,,026578,001,男,19,2025-06-04_18h34.52.909,Serial_Dependence_U,2023.2.3,Win32,59.523809523799216,,,,,,3593.9365000000003,317,7,3593.936600000002,317,,,,3597.885100000002,3598.379300000001,3597.384300000001,3597.885,3594.935100000002,3597.3841999999995,3598.3795000000005,3598.8794000000025,3598.8795000000005,3600.685300000001,1584,3600.6854000000026,4,3600.685600000002,7,9,219,18,1,1.4,0.7,Time
,,026578,001,男,19,2025-06-04_18h34.52.909,Serial_Dependence_U,2023.2.3,Win32,59.523809523799216,,,,,,3600.6861999999996,95,7,3600.6861999999996,95,,,,3604.847,3605.3459000000025,3604.3344000000025,3604.8466999999996,3601.7010000000005,3604.3343000000013,3605.3460000000005,3605.8455000000004,3605.8457,3607.718100000002,1600,3607.7183000000014,3,3607.7185000000004,7,10,220,9,1,1.6,0.7,Time
,,026578,001,男,19,2025-06-04_18h34.52.909,Serial_Dependence_U,2023.2.3,Win32,59.523809523799216,,,,,,3607.718600000002,145,7,3607.7186999999994,145,,,,3611.6841000000018,3612.1831999999995,3611.1674000000025,3611.684,3608.717900000003,3611.167300000001,3612.1831999999995,3612.6790000000005,3612.6791999999996,3614.3786999999998,1466,3614.3789000000024,3,3614.379800000001,7,11,221,8,1,1.4,0.7,Time
,,026578,001,男,19,2025-06-04_18h34.52.909,Serial_Dependence_U,2023.2.3,Win32,59.523809523799216,,,,,,3614.380600000002,180,7,3614.380900000003,180,,,,3618.183800000001,3618.6796000000018,3617.6680000000006,3618.183800000001,3615.396600000002,3617.667800000001,3618.6796999999997,3619.1786999999995,3619.1789000000026,3620.9343000000013,1495,3620.9343000000013,4,3620.9347,7,12,222,12,1,1.2,0.3,Time
,,026578,001,男,19,2025-06-04_18h34.52.909,Serial_Dependence_U,2023.2.3,Win32,59.523809523799216,,,,,,3620.9348000000014,161,7,3620.9348000000014,161,,,,3624.699100000002,3625.1951999999997,3624.1839000000027,3624.699100000002,3621.933600000002,3624.183800000001,3625.195400000003,3625.6950000000006,3625.6951000000017,3627.2005000000004,1383,3627.200600000002,4,3627.2007,7,13,223,7,1,1.2,0.7,Time
,,026578,001,男,19,2025-06-04_18h34.52.909,Serial_Dependence_U,2023.2.3,Win32,59.523809523799216,,,,,,3627.201300000001,210,7,3627.201300000001,210,,,,3630.5663000000013,3631.062300000001,3630.0500000000006,3630.5663000000013,3628.2120000000004,3630.0500000000006,3631.062600000002,3631.5663000000013,3631.5664000000024,3670.1300000000006,1432,3670.1300000000006,5,3670.130100000002,7,14,224,5,1,0.8,0.7,Time
,,026578,001,男,19,2025-06-04_18h34.52.909,Serial_Dependence_U,2023.2.3,Win32,59.523809523799216,,,,,,3670.1304000000027,97,7,3670.1305,97,,,,3673.7138000000014,3674.2101999999995,3673.210800000001,3673.7137,3671.1440000000002,3673.2105000000006,3674.210300000001,3674.7099000000026,3674.7100000000005,3675.9991999999997,1117,3675.9991999999997,4,3675.9995000000004,7,15,225,11,1,1,0.3,Time
,,026578,001,男,19,2025-06-04_18h34.52.909,Serial_Dependence_U,2023.2.3,Win32,59.523809523799216,,,,,,3676.0000000000005,344,7,3676.0000000000005,344,,,,3679.9601999999995,3680.4592,3679.448800000001,3679.9600000000005,3677.0134000000025,3679.4486999999995,3680.4593000000013,3680.9594000000025,3680.9595000000004,3682.8985000000002,1684,3682.8985000000002,4,3682.8988000000013,7,16,226,28,1,1.4,0.7,Time
,,026578,001,男,19,2025-06-04_18h34.52.909,Serial_Dependence_U,2023.2.3,Win32,59.523809523799216,,,,,,3682.899600000002,37,7,3682.8996999999995,37,,,,3686.6600000000003,3687.1590000000006,3686.1479000000027,3686.6598000000013,3683.9127,3686.1479000000027,3687.159100000002,3687.658800000001,3687.6590000000006,3689.2648000000013,1397,3689.264900000003,4,3689.2652,7,17,227,17,1,1.2,0.7,Time
,,026578,001,男,19,2025-06-04_18h34.52.909,Serial_Dependence_U,2023.2.3,Win32,59.523809523799216,,,,,,3689.2656999999995,84,7,3689.2656999999995,84,,,,3692.6600000000003,3693.1630000000005,3692.147600000002,3692.6598000000013,3690.281300000001,3692.1475000000005,3693.1630000000005,3693.658600000002,3693.6586999999995,3695.0649000000026,1295,3695.0649000000026,5,3695.065300000001,7,18,228,0,1,0.8,0.3,Time
,,026578,001,男,19,2025-06-04_18h34.52.909,Serial_Dependence_U,2023.2.3,Win32,59.523809523799216,,,,,,3695.0656999999997,136,7,3695.0656999999997,136,,,,3699.0598000000014,3699.558600000002,3698.5479000000028,3699.059600000002,3696.080300000001,3698.547800000001,3699.558600000002,3700.046100000002,3700.046100000002,3701.764300000001,1517,3701.7644000000028,4,3701.7646999999997,7,19,229,3,1,1.4,0.3,Time
,,026578,001,男,19,2025-06-04_18h34.52.909,Serial_Dependence_U,2023.2.3,Win32,59.523809523799216,,,,,,3701.764900000003,247,7,3701.7650000000003,247,,,,3705.3291999999997,3705.829400000003,3704.8134000000027,3705.3291999999997,3702.7801000000018,3704.8134000000027,3705.829400000003,3706.3248000000012,3706.324900000003,3708.124600000002,1539,3708.124800000001,5,3708.1251999999995,7,20,230,16,1,1,0.7,Time
,,026578,001,男,19,2025-06-04_18h34.52.909,Serial_Dependence_U,2023.2.3,Win32,59.523809523799216,,,,,,3708.1259000000027,120,7,3708.1261000000018,120,,,,3712.3253000000013,3712.8254000000024,3711.8118000000013,3712.325100000002,3709.1424000000025,3711.8116999999997,3712.8255000000004,3713.324100000002,3713.3241999999996,3715.3314000000028,1744,3715.331600000002,4,3715.3316999999997,7,21,231,14,1,1.6,0.3,Time
,,026578,001,男,19,2025-06-04_18h34.52.909,Serial_Dependence_U,2023.2.3,Win32,59.523809523799216,,,,,,3715.331900000003,164,7,3715.3320000000003,164,,,,3719.491600000002,3719.991100000002,3718.979600000002,3719.491300000001,3716.3280000000004,3718.9795000000004,3719.9911999999995,3720.4944000000028,3720.4944000000028,3722.4304000000025,1702,3722.4305000000004,4,3722.4307,7,22,232,19,1,1.6,0.7,Time
,,026578,001,男,19,2025-06-04_18h34.52.909,Serial_Dependence_U,2023.2.3,Win32,59.523809523799216,,,,,,3722.4309000000026,256,7,3722.4309000000026,256,,,,3725.991800000001,3726.4950000000003,3725.475600000002,3725.991600000002,3723.4424000000026,3725.4752,3726.4950000000003,3726.991100000002,3726.991300000001,3729.0139000000026,1717,3729.0140000000006,5,3729.0141999999996,7,23,233,6,1,1,0.7,Time
,,026578,001,男,19,2025-06-04_18h34.52.909,Serial_Dependence_U,2023.2.3,Win32,59.523809523799216,,,,,,3729.0144000000028,184,7,3729.0145,184,,,,3732.994300000001,3733.491100000002,3732.4790000000003,3732.994300000001,3730.0126999999998,3732.4790000000003,3733.491300000001,3733.994900000003,3733.994900000003,3735.9465000000005,1733,3735.9465000000005,4,3735.946800000001,7,24,234,13,1,1.4,0.3,Time
,,026578,001,男,19,2025-06-04_18h34.52.909,Serial_Dependence_U,2023.2.3,Win32,59.523809523799216,,,,,,3735.9469000000026,173,7,3735.9470000000006,173,,,,3739.307600000002,3739.8064000000027,3738.7956999999997,3739.307400000003,3736.9586999999997,3738.7956999999997,3739.8064000000027,3740.3069000000028,3740.307100000002,3742.612900000003,1998,3742.612900000003,5,3742.6132,7,25,235,15,1,0.8,0.7,Time
,,026578,001,男,19,2025-06-04_18h34.52.909,Serial_Dependence_U,2023.2.3,Win32,59.523809523799216,,,,,,3742.6134000000025,341,7,3742.6135000000004,341,,,,3746.7744000000025,3747.273300000001,3746.2621000000017,3746.774300000001,3743.628600000002,3746.2620000000006,3747.2734000000028,3747.7734000000028,3747.7735000000002,3749.9954000000025,1949,3749.9955000000004,4,3749.995800000001,7,26,236,29,1,1.6,0.7,Time
,,026578,001,男,19,2025-06-04_18h34.52.909,Serial_Dependence_U,2023.2.3,Win32,59.523809523799216,,,,,,3749.9959000000026,190,7,3749.9960000000005,190,,,,3753.7455000000004,3754.2396999999996,3753.227100000002,3753.7454000000025,3750.9948000000013,3753.2270000000003,3754.239800000001,3754.742600000002,3754.742600000002,3756.379600000002,1409,3756.3796999999995,4,3756.3799000000026,7,27,237,27,1,1.2,0.7,Time
,,026578,001,男,19,2025-06-04_18h34.52.909,Serial_Dependence_U,2023.2.3,Win32,59.523809523799216,,,,,,3756.380100000002,55,7,3756.3801999999996,55,,,,3759.9735000000005,3760.4730000000004,3759.457300000001,3759.973300000001,3757.3935000000006,3759.4570000000003,3760.4731999999995,3760.9729000000025,3760.973100000002,3762.811600000002,1602,3762.811600000002,5,3762.8120000000004,7,28,238,1,1,1,0.3,Time
,,026578,001,男,19,2025-06-04_18h34.52.909,Serial_Dependence_U,2023.2.3,Win32,59.523809523799216,,,,,,3762.8125000000005,237,7,3762.8125000000005,237,,,,3766.589800000001,3767.089100000002,3766.077100000002,3766.589600000002,3763.811300000001,3766.077,3767.0892,3767.5889000000025,3767.5890000000004,3769.628400000003,1850,3769.628400000003,5,3769.628600000002,7,29,239,22,1,1.2,0.3,Time
,,026578,001,男,19,2025-06-04_18h34.52.909,Serial_Dependence_U,2023.2.3,Win32,59.523809523799216,,,,,,3769.6292,45,8,3771.988800000001,45,s,2.33779999999706,,3775.5436999999997,3776.0386999999996,3775.027900000003,3775.5436999999997,3772.9896999999996,3775.027800000001,3776.038800000001,3776.539,3776.539100000002,3778.055800000001,1258,3778.0559000000026,4,3778.0564000000027,8,0,240,6,1,1,0.7,Time
,,026578,001,男,19,2025-06-04_18h34.52.909,Serial_Dependence_U,2023.2.3,Win32,59.523809523799216,,,,,,3778.0571999999997,37,8,3778.058600000002,37,,,,3781.6443000000013,3782.138300000001,3781.141100000002,3781.6441999999997,3779.077400000003,3781.140800000001,3782.1385000000005,3782.6263000000013,3782.6263000000013,3784.444100000002,1544,3784.444100000002,5,3784.4445000000005,8,1,241,11,1,1,0.3,Time
,,026578,001,男,19,2025-06-04_18h34.52.909,Serial_Dependence_U,2023.2.3,Win32,59.523809523799216,,,,,,3784.4450000000006,316,8,3784.4450000000006,316,,,,3788.624100000002,3789.1214000000027,3788.105800000001,3788.623800000001,3785.4438000000014,3788.1055000000006,3789.1216000000018,3789.609100000002,3789.609100000002,3791.628400000003,1815,3791.6285000000003,4,3791.6286999999998,8,2,242,14,1,1.6,0.3,Time
,,026578,001,男,19,2025-06-04_18h34.52.909,Serial_Dependence_U,2023.2.3,Win32,59.523809523799216,,,,,,3791.6292,268,8,3791.6292,268,,,,3795.6225000000004,3796.1211999999996,3795.109600000002,3795.6224000000025,3792.6430000000005,3795.109600000002,3796.1214000000027,3796.6229000000026,3796.6230000000005,3798.577100000002,1800,3798.577100000002,4,3798.5771999999997,8,3,243,13,1,1.4,0.3,Time
,,026578,001,男,19,2025-06-04_18h34.52.909,Serial_Dependence_U,2023.2.3,Win32,59.523809523799216,,,,,,3798.5779000000025,100,8,3798.5779000000025,100,,,,3802.772600000002,3803.2706999999996,3802.2605000000003,3802.772300000001,3799.592100000002,3802.260400000003,3803.270800000001,3803.770800000001,3803.7710000000006,3805.827400000003,1802,3805.827600000002,4,3805.8279000000025,8,4,244,24,1,1.6,0.3,Time
,,026578,001,男,19,2025-06-04_18h34.52.909,Serial_Dependence_U,2023.2.3,Win32,59.523809523799216,,,,,,3805.8280000000004,235,8,3805.8281999999995,235,,,,3809.6068000000014,3810.1086999999998,3809.0890000000004,3809.6065000000003,3806.8251999999998,3809.0887,3810.1086999999998,3810.608400000003,3810.608400000003,3812.470800000001,1514,3812.471100000002,4,3812.4716999999996,8,5,245,2,1,1.2,0.3,Time
,,026578,001,男,19,2025-06-04_18h34.52.909,Serial_Dependence_U,2023.2.3,Win32,59.523809523799216,,,,,,3812.472600000002,166,8,3812.4728000000014,166,,,,3815.8383000000013,3816.337100000002,3815.3236999999995,3815.838,3813.4889000000026,3815.3236999999995,3816.337300000001,3816.8374000000026,3816.837600000002,3819.1104000000028,1613,3819.1104000000028,5,3819.110600000002,8,6,246,25,1,0.8,0.7,Time
,,026578,001,男,19,2025-06-04_18h34.52.909,Serial_Dependence_U,2023.2.3,Win32,59.523809523799216,,,,,,3819.111100000002,21,8,3819.111300000001,21,,,,3823.0544000000027,3823.5546000000018,3822.5422,3823.0540000000005,3820.109100000002,3822.5422,3823.5546999999997,3824.059,3824.059,3826.1766999999995,2000,3826.176800000001,5,3826.1769000000027,8,7,247,18,1,1.4,0.7,Time
,,026578,001,男,19,2025-06-04_18h34.52.909,Serial_Dependence_U,2023.2.3,Win32,59.523809523799216,,,,,,3826.1771000000017,100,8,3826.1771000000017,100,,,,3829.5377,3830.036800000001,3829.025300000001,3829.5374000000024,3827.175400000003,3829.025300000001,3830.0370000000003,3830.539600000002,3830.539600000002,3832.303300000001,1336,3832.3035000000004,5,3832.3041999999996,8,8,248,15,1,0.8,0.7,Time
,,026578,001,男,19,2025-06-04_18h34.52.909,Serial_Dependence_U,2023.2.3,Win32,59.523809523799216,,,,,,3832.3052,46,8,3832.3055000000004,46,,,,3836.2871999999998,3836.7864000000027,3835.7751999999996,3836.2870000000003,3833.3077,3835.7751999999996,3836.7865000000006,3837.2865000000006,3837.2866000000017,3839.2929000000026,1819,3839.2931000000017,4,3839.293300000001,8,9,249,3,1,1.4,0.3,Time
,,026578,001,男,19,2025-06-04_18h34.52.909,Serial_Dependence_U,2023.2.3,Win32,59.523809523799216,,,,,,3839.2935,247,8,3839.293600000002,247,,,,3843.439800000001,3843.9359000000027,3842.924600000002,3843.4396999999994,3840.2911999999997,3842.924600000002,3843.9360000000006,3844.4356999999995,3844.4359000000027,3846.424800000001,1697,3846.4249000000027,4,3846.4250000000006,8,10,250,9,1,1.6,0.7,Time
