Scale_setup.started,Scale_setup.stopped,participant,session,sex,age,date,expName,psychopyVersion,OS,frameRate,Intro.started,Intro.stopped,key_resp_2.keys,key_resp_2.rt,key_resp_2.duration,block.started,direction,Block_id,block.stopped,trial_direction,Block_resp_2.keys,Block_resp_2.rt,Block_resp_2.duration,ITI.started,ITI.stopped,Mask_2.started,Mask_2.stopped,encoding.started,encoding.stopped,Cue.started,Cue.stopped,Response.started,Response.stopped,keyDuration,Feedback_Time.started,FeedbackID_T,Feedback_Time.stopped,trials.thisRepN,trials.thisTrialN,trials.thisN,trials.thisIndex,trials.ran,TimeDur,Coherence1,TrialType
0.00010000000003174137,0.0003000000000383807,035679,001,女,21,2025-06-04_21h42.54.867,Serial_Dependence_U,2023.2.3,Win32,60.240963855400565,,,,,,,,,,,,,,,,,,,,,,,,,,,,,,,,,,,
,,035679,001,女,21,2025-06-04_21h42.54.867,Serial_Dependence_U,2023.2.3,Win32,60.240963855400565,7.867800000000045,34.528300000000016,space,26.64199999999998,,,,,,,,,,,,,,,,,,,,,,,,,,,,,,,
,,035679,001,女,21,2025-06-04_21h42.54.867,Serial_Dependence_U,2023.2.3,Win32,60.240963855400565,,,,,,34.5322,198,0,42.58930000000005,198,s,8.039400000000057,,46.37980000000006,46.87580000000004,45.86410000000002,46.37950000000002,43.60080000000006,45.86410000000002,46.875900000000016,47.377000000000024,47.37720000000003,95.49090000000002,2300,95.49110000000003,5,96.48780000000006,0,0,0,22,1,1.2,0.3,Time
,,035679,001,女,21,2025-06-04_21h42.54.867,Serial_Dependence_U,2023.2.3,Win32,60.240963855400565,,,,,,96.48830000000005,109,0,96.49020000000003,109,,,,100.46049999999998,100.95890000000004,99.94530000000005,100.4604,97.50220000000003,99.94530000000005,100.95900000000002,101.4575,101.4575,106.19460000000005,2120,106.19470000000003,5,107.19190000000005,0,1,1,18,1,1.4,0.7,Time
,,035679,001,女,21,2025-06-04_21h42.54.867,Serial_Dependence_U,2023.2.3,Win32,60.240963855400565,,,,,,107.19240000000003,162,0,107.19250000000001,162,,,,111.39720000000001,111.89580000000002,110.88220000000003,111.39710000000004,108.2061,110.88210000000005,111.89580000000002,112.39430000000006,112.39440000000003,116.94860000000001,3922,116.94899999999997,5,117.94580000000003,0,2,2,4,1,1.6,0.3,Time
,,035679,001,女,21,2025-06-04_21h42.54.867,Serial_Dependence_U,2023.2.3,Win32,60.240963855400565,,,,,,117.94610000000002,71,0,117.94619999999999,71,,,,121.91839999999998,122.41749999999998,121.40339999999999,121.9183,118.96030000000003,121.40339999999999,122.41760000000001,122.91549999999997,122.91549999999997,223.95639999999997,1473,223.95649999999995,4,224.95420000000001,0,3,3,8,1,1.4,0.7,Time
,,035679,001,女,21,2025-06-04_21h42.54.867,Serial_Dependence_U,2023.2.3,Win32,60.240963855400565,,,,,,224.95439999999996,118,0,224.95449999999994,118,,,,228.72709999999995,229.2253,228.21180000000004,228.7269,225.96799999999996,228.21180000000004,229.22539999999998,229.72409999999996,229.72409999999996,239.79699999999997,1395,239.79699999999997,4,240.79399999999998,0,4,4,17,1,1.2,0.7,Time
,,035679,001,女,21,2025-06-04_21h42.54.867,Serial_Dependence_U,2023.2.3,Win32,60.240963855400565,,,,,,240.79430000000002,80,0,240.79449999999997,80,,,,244.99949999999995,245.49759999999992,244.48420000000004,244.99939999999998,241.80809999999997,244.48409999999996,245.49759999999992,245.99670000000003,245.99670000000003,249.42020000000002,2710,249.4203,5,250.41749999999996,0,5,5,14,1,1.6,0.3,Time
,,035679,001,女,21,2025-06-04_21h42.54.867,Serial_Dependence_U,2023.2.3,Win32,60.240963855400565,,,,,,250.41770000000002,251,0,250.41789999999997,251,,,,254.58999999999997,255.08820000000003,254.07449999999994,254.58980000000003,251.4318,254.07449999999994,255.08820000000003,255.587,255.587,257.7642,1852,257.7642,4,258.76149999999996,0,6,6,29,1,1.6,0.7,Time
,,035679,001,女,21,2025-06-04_21h42.54.867,Serial_Dependence_U,2023.2.3,Win32,60.240963855400565,,,,,,258.76189999999997,85,0,258.76199999999994,85,,,,262.1524,262.6509,261.63720000000006,262.1524,259.77559999999994,261.6370999999999,262.6509,263.1498,263.1498,332.01159999999993,1628,332.0117,5,333.0093,0,7,7,10,1,0.8,0.3,Time
,,035679,001,女,21,2025-06-04_21h42.54.867,Serial_Dependence_U,2023.2.3,Win32,60.240963855400565,,,,,,333.00949999999995,317,0,333.0095999999999,317,,,,336.38359999999994,336.8819,335.86830000000003,336.38320000000004,334.0233,335.86830000000003,336.8819,337.38030000000003,337.38030000000003,340.8043,3042,340.8043,5,341.8014,0,8,8,15,1,0.8,0.7,Time
,,035679,001,女,21,2025-06-04_21h42.54.867,Serial_Dependence_U,2023.2.3,Win32,60.240963855400565,,,,,,341.8018,214,0,341.8018,214,,,,345.3755,345.8735,344.85999999999996,345.3755,342.8159,344.8599,345.87359999999995,346.3722,346.3723,350.0959,3433,350.0959,5,351.0933,0,9,9,6,1,1,0.7,Time
,,035679,001,女,21,2025-06-04_21h42.54.867,Serial_Dependence_U,2023.2.3,Win32,60.240963855400565,,,,,,351.09349999999995,226,0,351.0935999999999,226,,,,355.2658,355.76359999999994,354.74989999999997,355.2658,352.1073,354.7498,355.76359999999994,356.26230000000004,356.26230000000004,365.38720000000006,2394,365.38720000000006,5,366.3843,0,10,10,19,1,1.6,0.7,Time
,,035679,001,女,21,2025-06-04_21h42.54.867,Serial_Dependence_U,2023.2.3,Win32,60.240963855400565,,,,,,366.3845999999999,195,0,366.3847,195,,,,370.1578,370.65599999999995,369.64270000000005,370.15759999999995,367.3987,369.64259999999996,370.65599999999995,371.15470000000005,371.1548,373.9969,2364,373.9969,5,374.99409999999995,0,11,11,27,1,1.2,0.7,Time
,,035679,001,女,21,2025-06-04_21h42.54.867,Serial_Dependence_U,2023.2.3,Win32,60.240963855400565,,,,,,374.9944,324,0,374.99449999999996,324,,,,378.5848,379.08349999999996,378.06989999999996,378.5848,376.0084999999999,378.06989999999996,379.08349999999996,379.58230000000003,379.58230000000003,382.9231,2942,382.92320000000007,5,383.9199,0,12,12,11,1,1,0.3,Time
,,035679,001,女,21,2025-06-04_21h42.54.867,Serial_Dependence_U,2023.2.3,Win32,60.240963855400565,,,,,,383.92009999999993,146,0,383.9202,146,,,,387.9262,388.42470000000003,387.4110999999999,387.9260999999999,384.93449999999996,387.4110999999999,388.42470000000003,388.92330000000004,388.92330000000004,392.0811,2760,392.0811,5,393.07859999999994,0,13,13,23,1,1.4,0.3,Time
,,035679,001,女,21,2025-06-04_21h42.54.867,Serial_Dependence_U,2023.2.3,Win32,60.240963855400565,,,,,,393.0787,209,0,393.0789,209,,,,396.65239999999994,397.1503,396.13699999999994,396.6522,394.09270000000004,396.13689999999997,397.1504,397.6495,397.64959999999996,401.3058,3315,401.3058,5,402.3031,0,14,14,16,1,1,0.7,Time
,,035679,001,女,21,2025-06-04_21h42.54.867,Serial_Dependence_U,2023.2.3,Win32,60.240963855400565,,,,,,402.3034,163,0,402.3035,163,,,,406.10990000000004,406.60799999999995,405.59479999999996,406.10990000000004,403.3174,405.59479999999996,406.60799999999995,407.1068,407.1068,411.1957,3515,411.19579999999996,5,412.19280000000003,0,15,15,12,1,1.2,0.3,Time
,,035679,001,女,21,2025-06-04_21h42.54.867,Serial_Dependence_U,2023.2.3,Win32,60.240963855400565,,,,,,412.1933,311,0,412.1934,311,,,,415.96580000000006,416.46439999999996,415.4505999999999,415.96580000000006,413.2074,415.4504999999999,416.46449999999993,416.9634,416.96349999999995,421.23490000000004,3982,421.23490000000004,5,422.23220000000003,0,16,16,7,1,1.2,0.7,Time
,,035679,001,女,21,2025-06-04_21h42.54.867,Serial_Dependence_U,2023.2.3,Win32,60.240963855400565,,,,,,422.2327,24,0,422.2329,24,,,,426.2380999999999,426.73659999999995,425.72259999999994,426.23789999999997,423.246,425.72259999999994,426.73659999999995,427.23530000000005,427.23530000000005,430.7919999999999,3268,430.7920999999999,5,431.7895,0,17,17,3,1,1.4,0.3,Time
,,035679,001,女,21,2025-06-04_21h42.54.867,Serial_Dependence_U,2023.2.3,Win32,60.240963855400565,,,,,,431.7898,306,0,431.7899,306,,,,435.38009999999997,435.8787,434.86429999999996,435.38009999999997,432.8035,434.8642,435.8787,436.37649999999996,436.37649999999996,440.1498,3274,440.1499,5,441.14699999999993,0,18,18,1,1,1,0.3,Time
,,035679,001,女,21,2025-06-04_21h42.54.867,Serial_Dependence_U,2023.2.3,Win32,60.240963855400565,,,,,,441.1473,71,0,441.1474999999999,71,,,,445.3194,445.81809999999996,444.80409999999995,445.3194,442.16139999999996,444.8039,445.81820000000005,446.3160999999999,446.3162,448.8428,2176,448.8429,5,449.8399999999999,0,19,19,9,1,1.6,0.7,Time
,,035679,001,女,21,2025-06-04_21h42.54.867,Serial_Dependence_U,2023.2.3,Win32,60.240963855400565,,,,,,449.84040000000005,219,0,449.8405,219,,,,453.414,453.91239999999993,452.8994,453.4139,450.8542,452.8994,453.91239999999993,454.4108,454.4108,458.0510999999999,3316,458.0512,5,459.04830000000004,0,20,20,26,1,1,0.7,Time
,,035679,001,女,21,2025-06-04_21h42.54.867,Serial_Dependence_U,2023.2.3,Win32,60.240963855400565,,,,,,459.0488,132,0,459.0488,132,,,,462.6392000000001,463.13699999999994,462.12379999999996,462.6392000000001,460.0622000000001,462.1237,463.1370999999999,463.63570000000004,463.63570000000004,466.74389999999994,2789,466.74389999999994,5,467.7413,0,21,21,21,1,1,0.3,Time
,,035679,001,女,21,2025-06-04_21h42.54.867,Serial_Dependence_U,2023.2.3,Win32,60.240963855400565,,,,,,467.74159999999995,218,0,467.74170000000004,218,,,,471.13239999999996,471.63059999999996,470.6173,471.1323,468.75520000000006,470.6172,471.63070000000005,472.1295,472.1296,474.72209999999995,2296,474.7223,5,475.7195999999999,0,22,22,0,1,0.8,0.3,Time
,,035679,001,女,21,2025-06-04_21h42.54.867,Serial_Dependence_U,2023.2.3,Win32,60.240963855400565,,,,,,475.71979999999996,136,0,475.71989999999994,136,,,,479.7252000000001,480.2237,479.20989999999995,479.7251,476.73339999999996,479.2097,480.2238,480.72270000000003,480.72270000000003,484.4623,3457,484.4623,5,485.4597,0,23,23,13,1,1.4,0.3,Time
,,035679,001,女,21,2025-06-04_21h42.54.867,Serial_Dependence_U,2023.2.3,Win32,60.240963855400565,,,,,,485.45989999999995,345,0,485.4599999999999,345,,,,488.8337,489.33220000000006,488.3185,488.8337,486.4738,488.3184,489.33220000000006,489.8307000000001,489.8307000000001,492.7228,2664,492.7229,5,493.7206,0,24,24,25,1,0.8,0.7,Time
,,035679,001,女,21,2025-06-04_21h42.54.867,Serial_Dependence_U,2023.2.3,Win32,60.240963855400565,,,,,,493.72080000000005,20,0,493.72080000000005,20,,,,497.51020000000005,498.00829999999996,496.99490000000003,497.51020000000005,494.7340999999999,496.99490000000003,498.00829999999996,498.50749999999994,498.50749999999994,501.58259999999996,2832,501.58259999999996,5,502.57939999999996,0,25,25,2,1,1.2,0.3,Time
,,035679,001,女,21,2025-06-04_21h42.54.867,Serial_Dependence_U,2023.2.3,Win32,60.240963855400565,,,,,,502.5797,215,0,502.5798,215,,,,505.9706,506.4687,505.4552,505.9706,503.5934,505.4552,506.4687,506.96759999999995,506.96759999999995,509.6104,2411,509.6104,5,510.6077,0,26,26,20,1,0.8,0.3,Time
,,035679,001,女,21,2025-06-04_21h42.54.867,Serial_Dependence_U,2023.2.3,Win32,60.240963855400565,,,,,,510.6079,23,0,510.60799999999995,23,,,,514.5802,515.0787,514.0649,514.5800999999999,511.62170000000003,514.0649,515.0787,515.5775,515.5775,519.1675,3307,519.1676,5,520.1647,0,27,27,28,1,1.4,0.7,Time
,,035679,001,女,21,2025-06-04_21h42.54.867,Serial_Dependence_U,2023.2.3,Win32,60.240963855400565,,,,,,520.165,107,0,520.165,107,,,,523.5391,524.0373999999999,523.0239,523.5391,521.1789,523.0239,524.0373999999999,524.5360999999999,524.5360999999999,527.5114,2683,527.5115,5,528.5084999999999,0,28,28,5,1,0.8,0.7,Time
,,035679,001,女,21,2025-06-04_21h42.54.867,Serial_Dependence_U,2023.2.3,Win32,60.240963855400565,,,,,,528.5088000000001,46,0,528.5089,46,,,,532.7152,533.2125,532.1989,532.7149,529.5227,532.1988,533.2125,533.7114,533.7115,537.1519999999999,3221,537.1519999999999,5,538.1488,0,29,29,24,1,1.6,0.3,Time
,,035679,001,女,21,2025-06-04_21h42.54.867,Serial_Dependence_U,2023.2.3,Win32,60.240963855400565,,,,,,538.1491,258,1,602.2411,258,s,64.07209999999998,,606.23,606.7287,605.7150999999999,606.23,603.2546,605.7149999999999,606.7287,607.2272,607.2272,611.2333,3599,611.2333,5,611.2334999999999,1,0,30,3,1,1.4,0.3,Time
,,035679,001,女,21,2025-06-04_21h42.54.867,Serial_Dependence_U,2023.2.3,Win32,60.240963855400565,,,,,,611.2337,123,1,611.2349,123,,,,614.8072000000001,615.3053,614.2915999999999,614.8072000000001,612.2468,614.2910999999999,615.3053,615.804,615.8041,630.0479,3043,630.0479,5,630.0481,1,1,31,16,1,1,0.7,Time
,,035679,001,女,21,2025-06-04_21h42.54.867,Serial_Dependence_U,2023.2.3,Win32,60.240963855400565,,,,,,630.0485,292,1,630.0486,292,,,,633.8551,634.3534999999999,633.3395999999999,633.8551,631.063,633.3395999999999,634.3535999999999,634.8516,634.8516,637.9599,2771,637.9599,5,637.9603,1,2,32,2,1,1.2,0.3,Time
,,035679,001,女,21,2025-06-04_21h42.54.867,Serial_Dependence_U,2023.2.3,Win32,60.240963855400565,,,,,,637.9606,71,1,637.9607000000001,71,,,,641.9655,642.4642,641.4505999999999,641.9655,638.9739999999999,641.4504999999999,642.4642,642.9630999999999,642.9630999999999,646.9687,3682,646.9688,5,646.9689999999999,1,3,33,23,1,1.4,0.3,Time
,,035679,001,女,21,2025-06-04_21h42.54.867,Serial_Dependence_U,2023.2.3,Win32,60.240963855400565,,,,,,646.9693,134,1,646.9694,134,,,,650.5592999999999,651.0575000000001,650.0440000000001,650.5592,647.9827999999999,650.0439,651.0576,651.5562,651.5562,654.6315999999999,2791,654.6319,5,654.6320999999999,1,4,34,21,1,1,0.3,Time
,,035679,001,女,21,2025-06-04_21h42.54.867,Serial_Dependence_U,2023.2.3,Win32,60.240963855400565,,,,,,654.6322999999999,22,1,654.6324,22,,,,658.8032000000001,659.3017,658.2882000000001,658.8032000000001,655.6452,658.2881,659.3017,659.8005999999999,659.8005999999999,663.3072999999999,3193,663.3072999999999,5,663.3075000000001,1,5,35,19,1,1.6,0.7,Time
,,035679,001,女,21,2025-06-04_21h42.54.867,Serial_Dependence_U,2023.2.3,Win32,60.240963855400565,,,,,,663.3077999999999,96,1,663.3079,96,,,,667.0977,667.5957000000001,666.5822999999999,667.0975999999999,664.3215000000001,666.5822000000001,667.5957999999999,668.0942999999999,668.0942999999999,671.7842999999999,3228,671.7842999999999,5,671.7844,1,6,36,22,1,1.2,0.3,Time
,,035679,001,女,21,2025-06-04_21h42.54.867,Serial_Dependence_U,2023.2.3,Win32,60.240963855400565,,,,,,671.7846,86,1,671.7846,86,,,,675.9905000000001,676.4882,675.4742999999999,675.9905000000001,672.7984,675.4742999999999,676.4882,676.9870000000001,676.9870000000001,677.7512,456,677.7512,1,677.7515000000001,1,7,37,14,1,1.6,0.3,Time
,,035679,001,女,21,2025-06-04_21h42.54.867,Serial_Dependence_U,2023.2.3,Win32,60.240963855400565,,,,,,677.7517,12,1,677.7519,12,,,,681.1422999999999,681.6405000000001,680.6274,681.1422999999999,678.7655000000001,680.6274,681.6405000000001,682.1395000000001,682.1395000000001,685.1647999999999,2726,685.1649,5,685.1650000000001,1,8,38,0,1,0.8,0.3,Time
,,035679,001,女,21,2025-06-04_21h42.54.867,Serial_Dependence_U,2023.2.3,Win32,60.240963855400565,,,,,,685.1652,261,1,685.1652,261,,,,688.738,689.2367999999999,688.2227,688.738,686.1784,688.2227,689.2367999999999,689.7355000000001,689.7355000000001,692.6440000000001,2587,692.6440000000001,5,692.6442000000001,1,9,39,6,1,1,0.7,Time
,,035679,001,女,21,2025-06-04_21h42.54.867,Serial_Dependence_U,2023.2.3,Win32,60.240963855400565,,,,,,692.6446,158,1,692.6446,158,,,,696.6497999999999,697.1484,696.1347000000001,696.6497,693.6581,696.1346,697.1485000000001,697.6470999999999,697.6470999999999,701.2541,3309,701.2541,5,701.2543,1,10,40,13,1,1.4,0.3,Time
,,035679,001,女,21,2025-06-04_21h42.54.867,Serial_Dependence_U,2023.2.3,Win32,60.240963855400565,,,,,,701.2544,189,1,701.2545000000001,189,,,,705.2265000000001,705.7247999999998,704.7112999999999,705.2265000000001,702.2682000000001,704.7112000000001,705.7247999999998,706.2239,706.2239,710.1460999999999,3567,710.1460999999999,5,710.1462999999999,1,11,41,28,1,1.4,0.7,Time
,,035679,001,女,21,2025-06-04_21h42.54.867,Serial_Dependence_U,2023.2.3,Win32,60.240963855400565,,,,,,710.1465999999999,201,1,710.1467,201,,,,713.9192999999999,714.4179,713.4042999999999,713.9192,711.1600000000001,713.4041,714.4180000000001,714.9165,714.9165999999999,718.8724,3697,718.8724,5,718.8727,1,12,42,17,1,1.2,0.7,Time
,,035679,001,女,21,2025-06-04_21h42.54.867,Serial_Dependence_U,2023.2.3,Win32,60.240963855400565,,,,,,718.8729,31,1,718.8730999999999,31,,,,722.4629,722.9610000000001,721.9475000000001,722.4627999999999,719.8867,721.9475000000001,722.9611,723.4597,723.4597,726.4859,2685,726.4861,5,726.4874,1,13,43,1,1,1,0.3,Time
,,035679,001,女,21,2025-06-04_21h42.54.867,Serial_Dependence_U,2023.2.3,Win32,60.240963855400565,,,,,,726.4877,1,1,726.4877999999999,1,,,,730.6902999999999,731.1889,730.1755,730.6902999999999,727.4987999999998,730.1752999999999,731.1889,731.6872000000001,731.6872999999999,735.7931,3740,735.7931,5,735.7932999999999,1,14,44,24,1,1.6,0.3,Time
,,035679,001,女,21,2025-06-04_21h42.54.867,Serial_Dependence_U,2023.2.3,Win32,60.240963855400565,,,,,,735.7935000000001,154,1,735.7936,154,,,,739.7656,740.2642000000001,739.2505000000001,739.7655000000001,736.8090000000001,739.2504,740.2642000000001,740.7624,740.7625,744.7185000000001,3660,744.7185999999999,5,744.7187999999999,1,15,45,8,1,1.4,0.7,Time
,,035679,001,女,21,2025-06-04_21h42.54.867,Serial_Dependence_U,2023.2.3,Win32,60.240963855400565,,,,,,744.719,344,1,744.7190999999999,344,,,,748.0926,748.5911,747.5774,748.0926,745.7324,747.5774,748.5911,749.0902999999998,749.0902999999998,752.2479,2942,752.2479,5,752.2482,1,16,46,5,1,0.8,0.7,Time
,,035679,001,女,21,2025-06-04_21h42.54.867,Serial_Dependence_U,2023.2.3,Win32,60.240963855400565,,,,,,752.2484,80,1,752.2484,80,,,,755.6397000000001,756.1375999999999,755.1235999999999,755.6397000000001,753.2627,755.1235,756.1375999999999,756.6356,756.6357,760.1097000000001,3158,760.1098,5,760.1100000000001,1,17,47,10,1,0.8,0.3,Time
,,035679,001,女,21,2025-06-04_21h42.54.867,Serial_Dependence_U,2023.2.3,Win32,60.240963855400565,,,,,,760.1101,26,1,760.1102000000001,26,,,,763.8832999999998,764.3815000000001,763.3679,763.8832,761.1238999999999,763.3679,764.3815000000001,764.8800000000001,764.8800000000001,768.5536,3367,768.5536,5,768.5537,1,18,48,27,1,1.2,0.7,Time
,,035679,001,女,21,2025-06-04_21h42.54.867,Serial_Dependence_U,2023.2.3,Win32,60.240963855400565,,,,,,768.5541,95,1,768.5541,95,,,,772.3105999999999,772.8127000000001,771.7992,772.3105,769.5674,771.7992,772.8127000000001,773.3089,773.3090000000001,777.0686,3441,777.0686,5,777.0687999999999,1,19,49,7,1,1.2,0.7,Time
,,035679,001,女,21,2025-06-04_21h42.54.867,Serial_Dependence_U,2023.2.3,Win32,60.240963855400565,,,,,,777.0690000000001,24,1,777.0690999999999,24,,,,781.2072000000001,781.7049,780.7044,781.2072000000001,778.0657999999999,780.7044,781.7049,782.2039,782.2040000000001,786.0107999999999,3458,786.0109,5,786.0110000000001,1,20,50,9,1,1.6,0.7,Time
,,035679,001,女,21,2025-06-04_21h42.54.867,Serial_Dependence_U,2023.2.3,Win32,60.240963855400565,,,,,,786.0112999999999,34,1,786.0112999999999,34,,,,790.1977,790.6971,789.6839,790.1977,787.0207,789.6837999999999,790.6972000000001,791.1921,791.1922999999999,794.9532,3458,794.9532,5,794.9534,1,21,51,4,1,1.6,0.3,Time
,,035679,001,女,21,2025-06-04_21h42.54.867,Serial_Dependence_U,2023.2.3,Win32,60.240963855400565,,,,,,794.9537,132,1,794.9537,132,,,,798.7422999999999,799.2401,798.2272999999999,798.7422,795.9625000000001,798.2272,799.2401,799.7387999999999,799.7387999999999,803.1971,3092,803.1971,5,803.1972999999999,1,22,52,12,1,1.2,0.3,Time
,,035679,001,女,21,2025-06-04_21h42.54.867,Serial_Dependence_U,2023.2.3,Win32,60.240963855400565,,,,,,803.1975000000001,174,1,803.1975000000001,174,,,,806.5550000000001,807.0512,806.0397,806.5549,804.1947999999999,806.0396,807.0512,807.5502,807.5502999999999,811.2419,3401,811.2420000000001,5,811.2422,1,23,53,15,1,0.8,0.7,Time
,,035679,001,女,21,2025-06-04_21h42.54.867,Serial_Dependence_U,2023.2.3,Win32,60.240963855400565,,,,,,811.2424,241,1,811.2424,241,,,,814.6324,815.1302999999999,814.1177,814.6324,812.2520999999999,814.1177,815.1302999999999,815.6254,815.6254,824.5222999999999,3174,824.5222999999999,5,824.5224,1,24,54,20,1,0.8,0.3,Time
,,035679,001,女,21,2025-06-04_21h42.54.867,Serial_Dependence_U,2023.2.3,Win32,60.240963855400565,,,,,,824.5227,73,1,824.5227,73,,,,828.6774,829.1745000000001,828.1626,828.6774,825.5197999999999,828.1626,829.1745000000001,829.6745999999999,829.6745999999999,834.5952000000001,4571,834.5953,5,834.5953,1,25,55,29,1,1.6,0.7,Time
,,035679,001,女,21,2025-06-04_21h42.54.867,Serial_Dependence_U,2023.2.3,Win32,60.240963855400565,,,,,,834.5955000000001,269,1,834.5956,269,,,,838.1637000000001,838.6664,837.6527999999998,838.1636,835.6085999999999,837.6527999999998,838.6664,839.1652999999999,839.1652999999999,842.8389,3340,842.8389,5,842.8390999999999,1,26,56,26,1,1,0.7,Time
,,035679,001,女,21,2025-06-04_21h42.54.867,Serial_Dependence_U,2023.2.3,Win32,60.240963855400565,,,,,,842.8392999999999,311,1,842.8392999999999,311,,,,846.2097,846.7095,845.6985999999999,846.2095999999999,843.8527,845.6985000000001,846.7095,847.2085999999999,847.2085999999999,850.5350000000001,3058,850.5350000000001,5,850.5352999999999,1,27,57,25,1,0.8,0.7,Time
,,035679,001,女,21,2025-06-04_21h42.54.867,Serial_Dependence_U,2023.2.3,Win32,60.240963855400565,,,,,,850.5355000000001,214,1,850.5357,214,,,,854.4866,854.9875999999999,853.9710000000001,854.4865000000001,851.5319,853.9709,854.9875999999999,855.4875000000001,855.4875999999999,859.1734,3335,859.1735000000001,5,859.1740000000001,1,28,58,18,1,1.4,0.7,Time
,,035679,001,女,21,2025-06-04_21h42.54.867,Serial_Dependence_U,2023.2.3,Win32,60.240963855400565,,,,,,859.1742999999999,114,1,859.1745000000001,114,,,,862.7677999999999,863.2660000000001,862.2527,862.7677999999999,860.1747999999999,862.2527,863.2660000000001,863.7647999999999,863.7647999999999,866.9231,2870,866.9231,5,866.9232999999999,1,29,59,11,1,1,0.3,Time
,,035679,001,女,21,2025-06-04_21h42.54.867,Serial_Dependence_U,2023.2.3,Win32,60.240963855400565,,,,,,866.9234,102,2,954.6662999999999,102,s,87.72699999999986,,958.2202000000002,958.7217,957.7087000000001,958.2198999999998,955.6772000000001,957.7086000000002,958.7217,959.2162000000001,959.2162999999998,964.1412000000003,3540,964.1412000000003,5,964.1414,2,0,60,16,1,1,0.7,Time
,,035679,001,女,21,2025-06-04_21h42.54.867,Serial_Dependence_U,2023.2.3,Win32,60.240963855400565,,,,,,964.1415,288,2,964.1421,288,,,,967.9286,968.4243999999999,967.4157000000002,967.9285,965.1548999999998,967.4156,968.4243999999999,968.9272999999998,968.9272999999998,972.7345,3360,972.7345,5,972.7347000000002,2,1,61,22,1,1.2,0.3,Time
,,035679,001,女,21,2025-06-04_21h42.54.867,Serial_Dependence_U,2023.2.3,Win32,60.240963855400565,,,,,,972.7348999999999,151,2,972.7349999999999,151,,,,976.1251,976.6232999999997,975.6099999999999,976.125,973.7477999999999,975.6099999999999,976.6232999999997,977.1218999999999,977.1218999999999,979.9812999999997,2507,979.9813999999999,5,979.9814999999999,2,2,62,20,1,0.8,0.3,Time
,,035679,001,女,21,2025-06-04_21h42.54.867,Serial_Dependence_U,2023.2.3,Win32,60.240963855400565,,,,,,979.9817,325,2,979.9817,325,,,,983.3722000000002,983.8654999999999,982.8687999999997,983.3722000000002,980.9948999999999,982.8686,983.8654999999999,984.3682000000001,984.3682000000001,987.7272999999998,2934,987.7272999999998,5,987.7275,2,3,63,10,1,0.8,0.3,Time
,,035679,001,女,21,2025-06-04_21h42.54.867,Serial_Dependence_U,2023.2.3,Win32,60.240963855400565,,,,,,987.7280000000001,241,2,987.7282000000002,241,,,,991.2837999999997,991.7776000000001,990.7647999999997,991.2837999999997,988.7217,990.7647999999997,991.7776000000001,992.2796000000001,992.2797,995.9376,3291,995.9376,5,995.9379999999999,2,4,64,6,1,1,0.7,Time
,,035679,001,女,21,2025-06-04_21h42.54.867,Serial_Dependence_U,2023.2.3,Win32,60.240963855400565,,,,,,995.9381000000001,258,2,995.9382,258,,,,999.5115000000001,1000.0055,998.9958999999999,999.5115000000001,996.9512999999997,998.9958999999999,1000.0055,1000.5084999999999,1000.5084999999999,1003.9492000000002,3108,1003.9492000000002,5,1003.9494,2,5,65,26,1,1,0.7,Time
,,035679,001,女,21,2025-06-04_21h42.54.867,Serial_Dependence_U,2023.2.3,Win32,60.240963855400565,,,,,,1003.9496000000001,87,2,1003.9496000000001,87,,,,1007.7021,1008.2024999999999,1007.1904,1007.7017999999998,1004.9590000000001,1007.1904,1008.2024999999999,1008.7022999999997,1008.7022999999997,1035.48,2510,1035.48,5,1035.4802000000002,2,6,66,17,1,1.2,0.7,Time
,,035679,001,女,21,2025-06-04_21h42.54.867,Serial_Dependence_U,2023.2.3,Win32,60.240963855400565,,,,,,1035.4804,228,2,1035.4805,228,,,,1039.2527000000002,1039.7513999999999,1038.7357000000002,1039.2526,1036.489,1038.7357000000002,1039.7513999999999,1040.2495,1040.2495,1044.1894,3618,1044.1894,5,1044.1896000000002,2,7,67,7,1,1.2,0.7,Time
,,035679,001,女,21,2025-06-04_21h42.54.867,Serial_Dependence_U,2023.2.3,Win32,60.240963855400565,,,,,,1044.1897000000001,206,2,1044.1897999999999,206,,,,1048.3952000000002,1048.8914,1047.8795,1048.3952000000002,1045.1994,1047.8793999999998,1048.8914,1049.3907000000002,1049.3907999999997,1050.1898999999999,477,1050.19,1,1050.1902000000002,2,8,68,4,1,1.6,0.3,Time
,,035679,001,女,21,2025-06-04_21h42.54.867,Serial_Dependence_U,2023.2.3,Win32,60.240963855400565,,,,,,1050.1904,55,2,1050.1905,55,,,,1053.5632,1054.0578999999998,1053.0481,1053.5631,1051.2037000000003,1053.0481,1054.0578999999998,1054.5603999999998,1054.5603999999998,1058.1681,3225,1058.1681,5,1058.1682999999998,2,9,69,25,1,0.8,0.7,Time
,,035679,001,女,21,2025-06-04_21h42.54.867,Serial_Dependence_U,2023.2.3,Win32,60.240963855400565,,,,,,1058.1685,310,2,1058.1686,310,,,,1062.1572999999999,1062.6547,1061.6547999999998,1062.1571000000001,1059.1796000000002,1061.6547999999998,1062.6547999999998,1063.1493999999998,1063.1495,1068.2073999999998,3369,1068.2075,5,1068.2076,2,10,70,3,1,1.4,0.3,Time
,,035679,001,女,21,2025-06-04_21h42.54.867,Serial_Dependence_U,2023.2.3,Win32,60.240963855400565,,,,,,1068.2077000000002,135,2,1068.2078999999999,135,,,,1072.3787999999997,1072.8777000000002,1071.8641,1072.3787000000002,1069.2171,1071.8641,1072.8777000000002,1073.3744,1073.3745,1077.7811000000002,3908,1077.7811000000002,5,1077.7812000000001,2,11,71,19,1,1.6,0.7,Time
,,035679,001,女,21,2025-06-04_21h42.54.867,Serial_Dependence_U,2023.2.3,Win32,60.240963855400565,,,,,,1077.7813999999998,343,2,1077.7815,343,,,,1081.9701,1082.4661,1081.4671,1081.9701,1078.7941,1081.4671,1082.4662,1082.9662999999998,1082.9662999999998,1088.0533999999998,3807,1088.0535,5,1088.0535,2,12,72,14,1,1.6,0.3,Time
,,035679,001,女,21,2025-06-04_21h42.54.867,Serial_Dependence_U,2023.2.3,Win32,60.240963855400565,,,,,,1088.0537000000002,197,2,1088.0537000000002,197,,,,1091.4106000000002,1091.9042000000002,1090.895,1091.4106000000002,1089.0625,1090.8948999999998,1091.9042000000002,1092.4027999999998,1092.4027999999998,1095.4829,2695,1095.4829,5,1095.4831000000001,2,13,73,5,1,0.8,0.7,Time
,,035679,001,女,21,2025-06-04_21h42.54.867,Serial_Dependence_U,2023.2.3,Win32,60.240963855400565,,,,,,1095.4832999999999,296,2,1095.4832999999999,296,,,,1099.469,1099.9692000000002,1098.9565,1099.469,1096.4921000000002,1098.9563999999998,1099.9692000000002,1100.4667999999997,1100.4667999999997,1101.2342999999998,450,1101.2342999999998,1,1101.2346,2,14,74,23,1,1.4,0.3,Time
,,035679,001,女,21,2025-06-04_21h42.54.867,Serial_Dependence_U,2023.2.3,Win32,60.240963855400565,,,,,,1101.2347999999997,288,2,1101.235,288,,,,1105.4055,1105.9036,1104.8905,1105.4055,1102.2477000000001,1104.8903999999998,1105.9036,1106.4022000000002,1106.4022999999997,1110.5581,3779,1110.5581,5,1110.5582999999997,2,15,75,29,1,1.6,0.7,Time
,,035679,001,女,21,2025-06-04_21h42.54.867,Serial_Dependence_U,2023.2.3,Win32,60.240963855400565,,,,,,1110.5584999999999,157,2,1110.5586,157,,,,1113.9494,1114.4457999999997,1113.4338999999998,1113.9492999999998,1111.572,1113.4337999999998,1114.4457999999997,1114.945,1114.945,1118.8854999999999,3540,1118.8856,5,1118.8857,2,16,76,0,1,0.8,0.3,Time
,,035679,001,女,21,2025-06-04_21h42.54.867,Serial_Dependence_U,2023.2.3,Win32,60.240963855400565,,,,,,1118.8858999999998,70,2,1118.8858999999998,70,,,,1122.8413999999998,1123.3372000000002,1122.3262000000002,1122.8413999999998,1119.8831,1122.3262000000002,1123.3372000000002,1123.8367,1123.8367999999998,1127.562,3457,1127.562,5,1127.5622,2,17,77,28,1,1.4,0.7,Time
,,035679,001,女,21,2025-06-04_21h42.54.867,Serial_Dependence_U,2023.2.3,Win32,60.240963855400565,,,,,,1127.5623999999998,47,2,1127.5625,47,,,,1131.5342999999998,1132.0301,1131.0177,1131.5342999999998,1128.574,1131.0176000000001,1132.0301,1132.5286,1132.5286,1136.0342,3101,1136.0342,5,1136.0343999999998,2,18,78,8,1,1.4,0.7,Time
,,035679,001,女,21,2025-06-04_21h42.54.867,Serial_Dependence_U,2023.2.3,Win32,60.240963855400565,,,,,,1136.0347000000002,148,2,1136.0348999999999,148,,,,1140.0237000000002,1140.5261,1139.5117999999998,1140.0235,1137.0484,1139.5117000000002,1140.5261,1141.0242,1141.0242,1144.7602999999997,3430,1144.7604,5,1144.761,2,19,79,13,1,1.4,0.3,Time
,,035679,001,女,21,2025-06-04_21h42.54.867,Serial_Dependence_U,2023.2.3,Win32,60.240963855400565,,,,,,1144.7615,54,2,1144.7617000000002,54,,,,1148.7211,1149.2177999999997,1148.2181,1148.7211,1145.7794,1148.218,1149.2177999999997,1149.715,1149.715,1153.4577000000002,3501,1153.4577000000002,5,1153.4579999999999,2,20,80,18,1,1.4,0.7,Time
,,035679,001,女,21,2025-06-04_21h42.54.867,Serial_Dependence_U,2023.2.3,Win32,60.240963855400565,,,,,,1153.4582000000003,271,2,1153.4582000000003,271,,,,1156.8316,1157.3299,1156.3161,1156.8313999999998,1154.4671,1156.316,1157.3299,1157.8282999999997,1157.8282999999997,1161.004,2731,1161.004,5,1161.0041,2,21,81,15,1,0.8,0.7,Time
,,035679,001,女,21,2025-06-04_21h42.54.867,Serial_Dependence_U,2023.2.3,Win32,60.240963855400565,,,,,,1161.0042999999998,42,2,1161.0042999999998,42,,,,1164.7604,1165.257,1164.245,1164.7602999999997,1162.0136,1164.2449,1165.2572000000002,1165.7567000000001,1165.7567000000001,1169.5637999999997,3423,1169.5638999999999,5,1169.5641,2,22,82,27,1,1.2,0.7,Time
,,035679,001,女,21,2025-06-04_21h42.54.867,Serial_Dependence_U,2023.2.3,Win32,60.240963855400565,,,,,,1169.5642999999998,245,2,1169.5642999999998,245,,,,1173.1522000000002,1173.6475,1172.6387999999997,1173.152,1170.5733999999998,1172.6387000000002,1173.6475,1174.1506000000002,1174.1506000000002,1177.7042999999999,3120,1177.7042999999999,5,1177.7043999999999,2,23,83,21,1,1,0.3,Time
,,035679,001,女,21,2025-06-04_21h42.54.867,Serial_Dependence_U,2023.2.3,Win32,60.240963855400565,,,,,,1177.7047000000002,326,2,1177.705,326,,,,1181.4982000000002,1181.9947999999997,1180.9827000000002,1181.4978999999998,1178.718,1180.9825,1181.9949,1182.4953999999998,1182.4955,1186.4843999999998,3483,1186.4843999999998,5,1186.4847000000002,2,24,84,2,1,1.2,0.3,Time
,,035679,001,女,21,2025-06-04_21h42.54.867,Serial_Dependence_U,2023.2.3,Win32,60.240963855400565,,,,,,1186.4849,325,2,1186.485,325,,,,1190.6522999999997,1191.1536,1190.141,1190.6522999999997,1187.4985,1190.1408999999999,1191.1536,1191.6532000000002,1191.6532000000002,1195.4432999999997,3435,1195.4433999999999,5,1195.4434999999999,2,25,85,9,1,1.6,0.7,Time
,,035679,001,女,21,2025-06-04_21h42.54.867,Serial_Dependence_U,2023.2.3,Win32,60.240963855400565,,,,,,1195.4436,36,2,1195.4437000000003,36,,,,1199.0333999999998,1199.5302999999997,1198.518,1199.0333999999998,1196.4527,1198.5178999999998,1199.5302999999997,1200.0286,1200.0286,1203.6542000000002,3141,1203.6542000000002,5,1203.6542999999997,2,26,86,1,1,1,0.3,Time
,,035679,001,女,21,2025-06-04_21h42.54.867,Serial_Dependence_U,2023.2.3,Win32,60.240963855400565,,,,,,1203.6544999999999,17,2,1203.6546,17,,,,1207.2236,1207.7252999999998,1206.7126,1207.2235,1204.6517999999999,1206.7124,1207.7252999999998,1208.2235,1208.2235,1211.799,3225,1211.799,5,1211.7991,2,27,87,11,1,1,0.3,Time
,,035679,001,女,21,2025-06-04_21h42.54.867,Serial_Dependence_U,2023.2.3,Win32,60.240963855400565,,,,,,1211.7992999999997,55,2,1211.7992999999997,55,,,,1215.9871,1216.4812000000002,1215.4722000000002,1215.9871,1212.808,1215.4718999999998,1216.4812999999997,1216.9826,1216.9827000000002,1221.5512,4194,1221.5512999999999,5,1221.5513999999998,2,28,88,24,1,1.6,0.3,Time
,,035679,001,女,21,2025-06-04_21h42.54.867,Serial_Dependence_U,2023.2.3,Win32,60.240963855400565,,,,,,1221.5516,120,2,1221.5517000000002,120,,,,1225.341,1225.8431,1224.8254,1225.3407000000002,1222.5527999999997,1224.8252999999997,1225.8431,1226.3421,1226.3421,1229.9827000000002,3341,1229.9827999999998,5,1229.983,2,29,89,12,1,1.2,0.3,Time
,,035679,001,女,21,2025-06-04_21h42.54.867,Serial_Dependence_U,2023.2.3,Win32,60.240963855400565,,,,,,1229.9831000000001,128,3,1241.5513999999998,128,s,11.552699999999732,,1245.7517000000003,1246.2529,1245.2411,1245.7516,1242.5647000000001,1245.241,1246.2529,1246.7517999999998,1246.7517999999998,1251.7897999999998,4555,1251.7897999999998,5,1251.79,3,0,90,14,1,1.6,0.3,Time
,,035679,001,女,21,2025-06-04_21h42.54.867,Serial_Dependence_U,2023.2.3,Win32,60.240963855400565,,,,,,1251.7902000000001,159,3,1251.7909,159,,,,1255.5789,1256.0777,1255.0617000000002,1255.5787000000003,1252.7867999999999,1255.0616,1256.0777,1256.5748999999998,1256.575,1260.5655,3635,1260.5655,5,1260.5657,3,1,91,22,1,1.2,0.3,Time
,,035679,001,女,21,2025-06-04_21h42.54.867,Serial_Dependence_U,2023.2.3,Win32,60.240963855400565,,,,,,1260.5658999999998,324,3,1260.566,324,,,,1264.1347999999998,1264.6372000000001,1263.6236000000001,1264.1347,1261.5622999999998,1263.6232999999997,1264.6372999999999,1265.1312999999998,1265.1314,1268.8386,3278,1268.8386,5,1268.8391000000001,3,2,92,1,1,1,0.3,Time
,,035679,001,女,21,2025-06-04_21h42.54.867,Serial_Dependence_U,2023.2.3,Win32,60.240963855400565,,,,,,1268.8392999999999,166,3,1268.8392999999999,166,,,,1273.0312999999999,1273.5287,1272.5287999999998,1273.0312000000001,1269.8525,1272.5286,1273.5287,1274.0257000000001,1274.0258,1277.9512999999997,3606,1277.9514,5,1277.9514,3,3,93,4,1,1.6,0.3,Time
,,035679,001,女,21,2025-06-04_21h42.54.867,Serial_Dependence_U,2023.2.3,Win32,60.240963855400565,,,,,,1277.9517,108,3,1277.9517999999998,108,,,,1281.7036,1282.2056,1281.1924999999999,1281.7035,1278.9612000000002,1281.1924,1282.2057000000002,1282.705,1282.7051000000001,1286.2453999999998,3224,1286.2455,5,1286.2455,3,4,94,17,1,1.2,0.7,Time
,,035679,001,女,21,2025-06-04_21h42.54.867,Serial_Dependence_U,2023.2.3,Win32,60.240963855400565,,,,,,1286.2457000000002,335,3,1286.2457999999997,335,,,,1290.2306,1290.7322999999997,1289.7182000000003,1290.2302999999997,1287.2553999999998,1289.7182000000003,1290.7322999999997,1291.2308999999998,1291.2308999999998,1295.3371,3839,1295.3371,5,1295.3372999999997,3,5,95,3,1,1.4,0.3,Time
,,035679,001,女,21,2025-06-04_21h42.54.867,Serial_Dependence_U,2023.2.3,Win32,60.240963855400565,,,,,,1295.3374,90,3,1295.3374999999999,90,,,,1298.9062000000001,1299.405,1298.3957999999998,1298.906,1296.3509999999999,1298.3957000000003,1299.405,1299.9072999999999,1299.9072999999999,1303.2327999999998,3009,1303.2329,5,1303.2331000000001,3,6,96,16,1,1,0.7,Time
,,035679,001,女,21,2025-06-04_21h42.54.867,Serial_Dependence_U,2023.2.3,Win32,60.240963855400565,,,,,,1303.2332999999999,276,3,1303.2332999999999,276,,,,1307.4216000000001,1307.9148999999998,1306.9057999999998,1307.4216000000001,1304.2292000000002,1306.9057000000003,1307.915,1308.4172999999998,1308.4173999999998,1312.7732,4056,1312.7732,5,1312.7735,3,7,97,24,1,1.6,0.3,Time
,,035679,001,女,21,2025-06-04_21h42.54.867,Serial_Dependence_U,2023.2.3,Win32,60.240963855400565,,,,,,1312.7736,21,3,1312.7737999999997,21,,,,1316.1587999999997,1316.6622000000002,1315.649,1316.1587000000002,1313.7867,1315.649,1316.6622000000002,1317.1592999999998,1317.1592999999998,1320.4518999999998,2925,1320.4518999999998,5,1320.4521,3,8,98,0,1,0.8,0.3,Time
,,035679,001,女,21,2025-06-04_21h42.54.867,Serial_Dependence_U,2023.2.3,Win32,60.240963855400565,,,,,,1320.4522999999997,323,3,1320.4522999999997,323,,,,1324.2043999999999,1324.702,1323.6897999999999,1324.2043999999999,1321.4501,1323.6897000000001,1324.7021,1325.2051000000001,1325.2051000000001,1328.9457999999997,3360,1328.9457999999997,5,1328.9459,3,9,99,27,1,1.2,0.7,Time
,,035679,001,女,21,2025-06-04_21h42.54.867,Serial_Dependence_U,2023.2.3,Win32,60.240963855400565,,,,,,1328.9461000000001,319,3,1328.9461000000001,319,,,,1332.5317000000002,1333.0343999999998,1332.0202000000002,1332.5316,1329.9555,1332.0202000000002,1333.0343999999998,1333.528,1333.5281,1337.2396,3177,1337.2396,5,1337.2397,3,10,100,11,1,1,0.3,Time
,,035679,001,女,21,2025-06-04_21h42.54.867,Serial_Dependence_U,2023.2.3,Win32,60.240963855400565,,,,,,1337.2398999999998,71,3,1337.24,71,,,,1341.0143999999998,1341.5111000000002,1340.4972000000002,1341.0143999999998,1338.2531000000001,1340.4972000000002,1341.5111000000002,1342.0087999999998,1342.0088999999998,1409.8697999999997,3130,1409.8699,5,1409.8701,3,11,101,7,1,1.2,0.7,Time
,,035679,001,女,21,2025-06-04_21h42.54.867,Serial_Dependence_U,2023.2.3,Win32,60.240963855400565,,,,,,1409.8702,298,3,1409.8702999999998,298,,,,1413.2604999999999,1413.7597,1412.7459,1413.2604999999999,1410.8847,1412.7457999999997,1413.7597,1414.2578999999998,1414.258,1417.8652000000002,3264,1417.8652000000002,5,1417.8654999999999,3,12,102,10,1,0.8,0.3,Time
,,035679,001,女,21,2025-06-04_21h42.54.867,Serial_Dependence_U,2023.2.3,Win32,60.240963855400565,,,,,,1417.8657,295,3,1417.8657999999998,295,,,,1421.4385,1421.9373999999998,1420.9243999999999,1421.4382999999998,1418.8787999999997,1420.9243999999999,1421.9373999999998,1422.4359,1422.4359,1426.3751,3618,1426.3752000000002,5,1426.3754999999999,3,13,103,26,1,1,0.7,Time
,,035679,001,女,21,2025-06-04_21h42.54.867,Serial_Dependence_U,2023.2.3,Win32,60.240963855400565,,,,,,1426.3757999999998,89,3,1426.3757999999998,89,,,,1430.1647999999998,1430.6631,1429.6499,1430.1647999999998,1427.3887000000002,1429.6497999999997,1430.6631,1431.1622999999997,1431.1622999999997,1435.1841000000002,3546,1435.1841000000002,5,1435.1843999999999,3,14,104,12,1,1.2,0.3,Time
,,035679,001,女,21,2025-06-04_21h42.54.867,Serial_Dependence_U,2023.2.3,Win32,60.240963855400565,,,,,,1435.1847999999998,81,3,1435.185,81,,,,1438.5584,1439.0575,1438.0432999999998,1438.5584,1436.1982,1438.0432999999998,1439.0575,1439.5557999999999,1439.5557999999999,1443.1789999999999,3244,1443.1789999999999,5,1443.1794,3,15,105,25,1,0.8,0.7,Time
,,035679,001,女,21,2025-06-04_21h42.54.867,Serial_Dependence_U,2023.2.3,Win32,60.240963855400565,,,,,,1443.1798,57,3,1443.1798999999999,57,,,,1447.1524,1447.6503999999998,1446.6362000000001,1447.1522999999997,1444.1932999999997,1446.6362000000001,1447.6503999999998,1448.1495,1448.1495,1452.1046000000001,3540,1452.1047,5,1452.1047999999998,3,16,106,18,1,1.4,0.7,Time
,,035679,001,女,21,2025-06-04_21h42.54.867,Serial_Dependence_U,2023.2.3,Win32,60.240963855400565,,,,,,1452.1051,23,3,1452.1052000000002,23,,,,1456.0768999999998,1456.5756000000001,1455.562,1456.0768999999998,1453.1185,1455.5619,1456.5756000000001,1457.074,1457.0741,1460.9804,3595,1460.9804,5,1460.9807,3,17,107,28,1,1.4,0.7,Time
,,035679,001,女,21,2025-06-04_21h42.54.867,Serial_Dependence_U,2023.2.3,Win32,60.240963855400565,,,,,,1460.9811,182,3,1460.9812000000002,182,,,,1464.9862,1465.4846,1464.4711,1464.9861,1461.9949,1464.4711,1465.4846,1465.9837000000002,1465.9837000000002,1469.7402999999997,3407,1469.7402999999997,5,1469.7407,3,18,108,23,1,1.4,0.3,Time
,,035679,001,女,21,2025-06-04_21h42.54.867,Serial_Dependence_U,2023.2.3,Win32,60.240963855400565,,,,,,1469.7411,339,3,1469.7412000000002,339,,,,1473.3133999999998,1473.8123999999998,1472.7982000000002,1473.3132999999998,1470.7539,1472.7981,1473.8123999999998,1474.3107000000002,1474.3107000000002,1477.7516,3179,1477.7516,5,1477.7519,3,19,109,6,1,1,0.7,Time
,,035679,001,女,21,2025-06-04_21h42.54.867,Serial_Dependence_U,2023.2.3,Win32,60.240963855400565,,,,,,1477.7523999999999,189,3,1477.7525,189,,,,1481.7239,1482.2227000000003,1481.2086000000002,1481.7237999999998,1478.7661,1481.2085,1482.2227000000003,1482.721,1482.721,1486.9096,3607,1486.9096,5,1486.9097999999997,3,20,110,8,1,1.4,0.7,Time
,,035679,001,女,21,2025-06-04_21h42.54.867,Serial_Dependence_U,2023.2.3,Win32,60.240963855400565,,,,,,1486.9101,345,3,1486.9102999999998,345,,,,1490.2839,1490.782,1489.769,1490.2837999999997,1487.9242999999997,1489.7688999999998,1490.7821000000001,1491.2807999999998,1491.2807999999998,1495.0207000000003,3351,1495.0207000000003,5,1495.021,3,21,111,15,1,0.8,0.7,Time
,,035679,001,女,21,2025-06-04_21h42.54.867,Serial_Dependence_U,2023.2.3,Win32,60.240963855400565,,,,,,1495.0215,37,3,1495.0216,37,,,,1499.1937999999998,1499.6911,1498.6776,1499.1937999999998,1496.0357999999999,1498.6776,1499.6911,1500.1898999999999,1500.19,1504.0958999999998,3555,1504.0958999999998,5,1504.0961,3,22,112,29,1,1.6,0.7,Time
,,035679,001,女,21,2025-06-04_21h42.54.867,Serial_Dependence_U,2023.2.3,Win32,60.240963855400565,,,,,,1504.0962999999997,148,3,1504.0964999999999,148,,,,1508.2686,1508.7667999999999,1507.7527999999998,1508.2686,1505.1103999999998,1507.7527000000002,1508.7667999999999,1509.2655,1509.2656,1513.4868999999999,3983,1513.4868999999999,5,1513.4872000000003,3,23,113,19,1,1.6,0.7,Time
,,035679,001,女,21,2025-06-04_21h42.54.867,Serial_Dependence_U,2023.2.3,Win32,60.240963855400565,,,,,,1513.4877000000001,124,3,1513.4877000000001,124,,,,1516.8779,1517.3762000000002,1516.3627000000001,1516.8777999999998,1514.5008999999998,1516.3626000000002,1517.3762000000002,1517.8752000000002,1517.8752000000002,1521.3822000000002,2928,1521.3822000000002,5,1521.3826000000001,3,24,114,20,1,0.8,0.3,Time
,,035679,001,女,21,2025-06-04_21h42.54.867,Serial_Dependence_U,2023.2.3,Win32,60.240963855400565,,,,,,1521.3828999999998,329,3,1521.3831,329,,,,1524.7564,1525.2545,1524.2414999999999,1524.7564,1522.397,1524.2414999999999,1525.2546,1525.7536,1525.7536,1529.2108999999998,3067,1529.2108999999998,5,1529.2112000000002,3,25,115,5,1,0.8,0.7,Time
,,035679,001,女,21,2025-06-04_21h42.54.867,Serial_Dependence_U,2023.2.3,Win32,60.240963855400565,,,,,,1529.2116,66,3,1529.2117,66,,,,1533.0176000000001,1533.5158999999999,1532.5027000000002,1533.0172999999998,1530.2255,1532.5026,1533.5158999999999,1534.0145,1534.0145,1537.7872000000002,3421,1537.7872000000002,5,1537.7872999999997,3,26,116,2,1,1.2,0.3,Time
,,035679,001,女,21,2025-06-04_21h42.54.867,Serial_Dependence_U,2023.2.3,Win32,60.240963855400565,,,,,,1537.7876,249,3,1537.7877,249,,,,1541.9595,1542.4576,1541.4446,1541.9594,1538.8017999999997,1541.4446,1542.4577000000002,1542.9566,1542.9566,1547.5442,4200,1547.5442999999998,5,1547.5446000000002,3,27,117,9,1,1.6,0.7,Time
,,035679,001,女,21,2025-06-04_21h42.54.867,Serial_Dependence_U,2023.2.3,Win32,60.240963855400565,,,,,,1547.545,58,3,1547.5451,58,,,,1551.1347999999998,1551.6332000000002,1550.6197999999997,1551.1346,1548.5587,1550.6197000000002,1551.6332000000002,1552.1315,1552.1315,1555.5725,3038,1555.5726,5,1555.5729,3,28,118,21,1,1,0.3,Time
,,035679,001,女,21,2025-06-04_21h42.54.867,Serial_Dependence_U,2023.2.3,Win32,60.240963855400565,,,,,,1555.5732999999998,159,3,1555.5732999999998,159,,,,1559.5785,1560.077,1559.0635,1559.5783999999999,1556.5867,1559.0633999999998,1560.077,1560.5754,1560.5755,1564.7143999999998,3837,1564.7146,5,1564.7147999999997,3,29,119,13,1,1.4,0.3,Time
,,035679,001,女,21,2025-06-04_21h42.54.867,Serial_Dependence_U,2023.2.3,Win32,60.240963855400565,,,,,,1564.7152,327,4,1679.9827000000002,327,s,115.25469999999973,,1683.9552999999999,1684.4539,1683.4412000000002,1683.9552,1680.9967000000001,1683.4411,1684.4539,1684.9524999999999,1684.9526,1689.1076,3819,1689.1077000000002,5,1689.1079,4,0,120,8,1,1.4,0.7,Time
,,035679,001,女,21,2025-06-04_21h42.54.867,Serial_Dependence_U,2023.2.3,Win32,60.240963855400565,,,,,,1689.1082000000001,165,4,1689.1095,165,,,,1692.8807999999997,1693.3792,1692.3663999999999,1692.8807000000002,1690.1225,1692.3662000000002,1693.3792,1693.8783999999998,1693.8785,1698.1164999999999,3899,1698.1164999999999,5,1698.1166999999996,4,1,121,7,1,1.2,0.7,Time
,,035679,001,女,21,2025-06-04_21h42.54.867,Serial_Dependence_U,2023.2.3,Win32,60.240963855400565,,,,,,1698.117,131,4,1698.1171000000002,131,,,,1701.7066,1702.2056,1701.192,1701.7066,1699.1306,1701.192,1702.2056,1702.7039,1702.7039,1706.4769,3446,1706.4769,5,1706.4771,4,2,122,1,1,1,0.3,Time
,,035679,001,女,21,2025-06-04_21h42.54.867,Serial_Dependence_U,2023.2.3,Win32,60.240963855400565,,,,,,1706.4771999999996,246,4,1706.4772999999998,246,,,,1710.0672999999997,1710.5657999999999,1709.5526999999997,1710.0671999999997,1707.4911999999997,1709.5526,1710.5658999999998,1711.0644,1711.0644,1714.4884,3074,1714.4884,5,1714.4886000000001,4,3,123,11,1,1,0.3,Time
,,035679,001,女,21,2025-06-04_21h42.54.867,Serial_Dependence_U,2023.2.3,Win32,60.240963855400565,,,,,,1714.4891,180,4,1714.4891999999998,180,,,,1718.4784,1718.9761,1717.9631000000002,1718.4782999999998,1715.5025,1717.9628999999998,1718.9761,1719.4746,1719.4747999999997,1722.2502999999997,2384,1722.2504999999999,5,1722.2507999999998,4,4,124,3,1,1.4,0.3,Time
,,035679,001,女,21,2025-06-04_21h42.54.867,Serial_Dependence_U,2023.2.3,Win32,60.240963855400565,,,,,,1722.2512999999997,346,4,1722.2513999999999,346,,,,1726.0239,1726.5226,1725.5084,1726.0237999999997,1723.2643999999998,1725.5081999999998,1726.5226999999998,1727.0209,1727.021,1730.6273999999999,3139,1730.6273999999999,5,1730.6276,4,5,125,17,1,1.2,0.7,Time
,,035679,001,女,21,2025-06-04_21h42.54.867,Serial_Dependence_U,2023.2.3,Win32,60.240963855400565,,,,,,1730.6279,128,4,1730.6281999999997,128,,,,1734.7997999999998,1735.2981,1734.2845,1734.7996999999996,1731.6416999999997,1734.2843999999998,1735.2981,1735.7974,1735.7975,1740.0019,3824,1740.002,5,1740.0021000000002,4,6,126,19,1,1.6,0.7,Time
,,035679,001,女,21,2025-06-04_21h42.54.867,Serial_Dependence_U,2023.2.3,Win32,60.240963855400565,,,,,,1740.0023999999999,253,4,1740.0023999999999,253,,,,1743.3765,1743.8751999999997,1742.8609,1743.3765,1741.016,1742.8609,1743.8751999999997,1744.3737999999998,1744.3737999999998,1748.2794,3474,1748.2794,5,1748.2798999999998,4,7,127,5,1,0.8,0.7,Time
,,035679,001,女,21,2025-06-04_21h42.54.867,Serial_Dependence_U,2023.2.3,Win32,60.240963855400565,,,,,,1748.2803999999999,287,4,1748.2805,287,,,,1751.6701999999998,1752.1691999999996,1751.1551999999997,1751.6701999999998,1749.2931999999996,1751.155,1752.1691999999996,1752.6676,1752.6676,1756.2745,3125,1756.2745,5,1756.2746999999997,4,8,128,20,1,0.8,0.3,Time
,,035679,001,女,21,2025-06-04_21h42.54.867,Serial_Dependence_U,2023.2.3,Win32,60.240963855400565,,,,,,1756.2749999999999,282,4,1756.2751,282,,,,1759.6666999999998,1760.164,1759.1501,1759.6666999999998,1757.2881999999997,1759.1499999999999,1760.1641999999997,1760.6622999999997,1760.6622999999997,1821.43,3267,1821.4301,5,1821.4305,4,9,129,10,1,0.8,0.3,Time
,,035679,001,女,21,2025-06-04_21h42.54.867,Serial_Dependence_U,2023.2.3,Win32,60.240963855400565,,,,,,1821.4307999999999,52,4,1821.431,52,,,,1825.4025,1825.9016999999997,1824.8879,1825.4025,1822.4445,1824.8876999999998,1825.9016999999997,1826.3999,1826.3999,1830.4221,3641,1830.4221999999997,5,1830.4224,4,10,130,28,1,1.4,0.7,Time
,,035679,001,女,21,2025-06-04_21h42.54.867,Serial_Dependence_U,2023.2.3,Win32,60.240963855400565,,,,,,1830.4226999999996,95,4,1830.4227999999998,95,,,,1833.7971999999997,1834.2955,1833.2816,1833.797,1831.4363999999998,1833.2816,1834.2955,1834.7933999999998,1834.7933999999998,1838.3336000000002,3174,1838.3336999999997,5,1838.3338999999999,4,11,131,15,1,0.8,0.7,Time
,,035679,001,女,21,2025-06-04_21h42.54.867,Serial_Dependence_U,2023.2.3,Win32,60.240963855400565,,,,,,1838.3342999999998,338,4,1838.3344,338,,,,1842.1408999999999,1842.6383999999998,1841.6254,1842.1407999999997,1839.3485,1841.6254,1842.6385,1843.1372999999999,1843.1372999999999,1846.7611000000002,3215,1846.7611000000002,5,1846.7613999999999,4,12,132,2,1,1.2,0.3,Time
,,035679,001,女,21,2025-06-04_21h42.54.867,Serial_Dependence_U,2023.2.3,Win32,60.240963855400565,,,,,,1846.7616999999998,38,4,1846.7619,38,,,,1850.5342999999998,1851.0322999999999,1850.0185,1850.5341999999996,1847.7751,1850.0182999999997,1851.0323999999998,1851.5311000000002,1851.5311000000002,1855.5536999999997,3734,1855.5536999999997,5,1855.5541,4,13,133,27,1,1.2,0.7,Time
,,035679,001,女,21,2025-06-04_21h42.54.867,Serial_Dependence_U,2023.2.3,Win32,60.240963855400565,,,,,,1855.5544,81,4,1855.5544,81,,,,1859.1281000000001,1859.6258999999998,1858.6118999999999,1859.1279,1856.5676,1858.6118999999999,1859.626,1860.1244,1860.1244,1863.4651000000001,3075,1863.4651999999996,5,1863.4653999999998,4,14,134,26,1,1,0.7,Time
,,035679,001,女,21,2025-06-04_21h42.54.867,Serial_Dependence_U,2023.2.3,Win32,60.240963855400565,,,,,,1863.4655,76,4,1863.4656,76,,,,1867.0394,1867.5375,1866.5243999999998,1867.0392999999997,1864.4794,1866.5243999999998,1867.5376,1868.0364,1868.0364,1871.9089999999999,3573,1871.9091999999996,5,1871.9097999999997,4,15,135,16,1,1,0.7,Time
,,035679,001,女,21,2025-06-04_21h42.54.867,Serial_Dependence_U,2023.2.3,Win32,60.240963855400565,,,,,,1871.9101,12,4,1871.9101999999996,12,,,,1875.699,1876.1973999999998,1875.1834,1875.6988999999999,1872.9227999999998,1875.1834,1876.1973999999998,1876.6959,1876.6959,1880.2531000000001,3208,1880.2531000000001,5,1880.2535,4,16,136,22,1,1.2,0.3,Time
,,035679,001,女,21,2025-06-04_21h42.54.867,Serial_Dependence_U,2023.2.3,Win32,60.240963855400565,,,,,,1880.2539,281,4,1880.254,281,,,,1883.8265,1884.325,1883.3117999999997,1883.8265,1881.2665,1883.3117999999997,1884.325,1884.8236000000002,1884.8236000000002,1888.5799,3450,1888.5799,5,1888.5801999999996,4,17,137,6,1,1,0.7,Time
,,035679,001,女,21,2025-06-04_21h42.54.867,Serial_Dependence_U,2023.2.3,Win32,60.240963855400565,,,,,,1888.5806,113,4,1888.5806999999998,113,,,,1892.7855,1893.2842999999998,1892.2702999999997,1892.7854,1889.5941999999998,1892.2702999999997,1893.2842999999998,1893.7822999999999,1893.7823999999998,1898.3033999999998,4131,1898.3035,5,1898.3036999999997,4,18,138,14,1,1.6,0.3,Time
,,035679,001,女,21,2025-06-04_21h42.54.867,Serial_Dependence_U,2023.2.3,Win32,60.240963855400565,,,,,,1898.3041,118,4,1898.3041,118,,,,1902.4756999999997,1902.9737999999998,1901.9607999999998,1902.4756999999997,1899.3174,1901.9606,1902.9739,1903.4731000000002,1903.4731000000002,1908.2097999999999,4412,1908.2097999999999,5,1908.2101999999998,4,19,139,29,1,1.6,0.7,Time
,,035679,001,女,21,2025-06-04_21h42.54.867,Serial_Dependence_U,2023.2.3,Win32,60.240963855400565,,,,,,1908.2106,230,4,1908.2106,230,,,,1911.8011000000001,1912.2988999999998,1911.2851,1911.801,1909.2237999999998,1911.2848999999997,1912.299,1912.7975000000001,1912.7975999999999,1916.3208,3083,1916.3208999999997,5,1916.3211000000001,4,20,140,21,1,1,0.3,Time
,,035679,001,女,21,2025-06-04_21h42.54.867,Serial_Dependence_U,2023.2.3,Win32,60.240963855400565,,,,,,1916.3215,327,4,1916.3216999999995,327,,,,1920.3273999999997,1920.8253999999997,1919.8114999999998,1920.3271999999997,1917.3351000000002,1919.8114999999998,1920.8253999999997,1921.3241000000003,1921.3241000000003,1925.6625,3838,1925.6626,5,1925.6627999999996,4,21,141,13,1,1.4,0.3,Time
,,035679,001,女,21,2025-06-04_21h42.54.867,Serial_Dependence_U,2023.2.3,Win32,60.240963855400565,,,,,,1925.6631999999995,200,4,1925.6634,200,,,,1929.8343999999997,1930.333,1929.3188999999998,1929.8343999999997,1926.6761999999999,1929.3187999999996,1930.333,1930.8316999999997,1930.8316999999997,1935.768,4268,1935.768,5,1935.7681999999995,4,22,142,9,1,1.6,0.7,Time
,,035679,001,女,21,2025-06-04_21h42.54.867,Serial_Dependence_U,2023.2.3,Win32,60.240963855400565,,,,,,1935.7685999999999,340,4,1935.7686999999996,340,,,,1939.7579,1940.2552999999998,1939.2426999999998,1939.7576999999997,1936.7816000000003,1939.2426999999998,1940.2552999999998,1940.7541,1940.7541,1944.9759,3821,1944.976,5,1944.9760999999999,4,23,143,23,1,1.4,0.3,Time
,,035679,001,女,21,2025-06-04_21h42.54.867,Serial_Dependence_U,2023.2.3,Win32,60.240963855400565,,,,,,1944.9766,30,4,1944.9766999999997,30,,,,1948.3667999999998,1948.8649999999998,1947.8518,1948.3667999999998,1945.9901999999997,1947.8516999999997,1948.8651,1949.3653,1949.3653,1952.8546999999999,3087,1952.8547999999996,5,1952.8554,4,24,144,0,1,0.8,0.3,Time
,,035679,001,女,21,2025-06-04_21h42.54.867,Serial_Dependence_U,2023.2.3,Win32,60.240963855400565,,,,,,1952.8555999999999,138,4,1952.8557999999998,138,,,,1957.0598999999997,1957.5585999999998,1956.5446999999995,1957.0598,1953.8689,1956.5445,1957.5585999999998,1958.0569999999998,1958.0569999999998,1962.1963999999998,3798,1962.1965,5,1962.1967999999997,4,25,145,24,1,1.6,0.3,Time
,,035679,001,女,21,2025-06-04_21h42.54.867,Serial_Dependence_U,2023.2.3,Win32,60.240963855400565,,,,,,1962.1970000000001,97,4,1962.1971999999996,97,,,,1966.1681999999996,1966.6666,1965.6531999999997,1966.1680000000001,1963.2095,1965.6531,1966.6666,1967.1652,1967.1652,1971.7197999999999,4255,1971.7197999999999,5,1971.7201999999997,4,26,146,18,1,1.4,0.7,Time
,,035679,001,女,21,2025-06-04_21h42.54.867,Serial_Dependence_U,2023.2.3,Win32,60.240963855400565,,,,,,1971.7206,238,4,1971.7207999999996,238,,,,1975.9254999999998,1976.4233999999997,1975.4098999999997,1975.9254,1972.7334999999998,1975.4098,1976.4233999999997,1976.9218999999998,1976.9218999999998,1981.4761999999996,4222,1981.4762999999998,5,1981.4766,4,27,147,4,1,1.6,0.3,Time
,,035679,001,女,21,2025-06-04_21h42.54.867,Serial_Dependence_U,2023.2.3,Win32,60.240963855400565,,,,,,1981.4768999999997,209,4,1981.4769999999999,209,,,,1984.8512999999998,1985.3492999999999,1984.3361999999997,1984.8511999999996,1982.4903999999997,1984.3361,1985.3492999999999,1985.8482999999997,1985.8483999999999,1989.8865,3591,1989.8866000000003,5,1989.8866000000003,4,28,148,25,1,0.8,0.7,Time
,,035679,001,女,21,2025-06-04_21h42.54.867,Serial_Dependence_U,2023.2.3,Win32,60.240963855400565,,,,,,1989.8870000000002,295,4,1989.8871,295,,,,1993.6929999999998,1994.1916999999999,1993.1781,1993.6929,1990.9017999999996,1993.1781,1994.1916999999999,1994.6901999999995,1994.6901999999995,1998.5961999999995,3451,1998.5961999999995,5,1998.5965,4,29,149,12,1,1.2,0.3,Time
,,035679,001,女,21,2025-06-04_21h42.54.867,Serial_Dependence_U,2023.2.3,Win32,60.240963855400565,,,,,,1998.5965999999999,274,5,2012.4587999999999,274,s,13.842200000000048,,2016.4312999999997,2016.9299999999998,2015.9159,2016.4312999999997,2013.4726,2015.9159,2016.9299999999998,2017.4286999999995,2017.4286999999995,2022.4321,4645,2022.4323,5,2022.4326999999998,5,0,150,18,1,1.4,0.7,Time
,,035679,001,女,21,2025-06-04_21h42.54.867,Serial_Dependence_U,2023.2.3,Win32,60.240963855400565,,,,,,2022.4331999999995,211,5,2022.4339999999997,211,,,,2026.4205000000002,2026.9191,2025.9062,2026.4205000000002,2023.4451,2025.9061000000002,2026.9191,2027.4176000000002,2027.4176000000002,2032.3372999999997,3671,2032.3372999999997,5,2032.3375,5,1,151,3,1,1.4,0.3,Time
,,035679,001,女,21,2025-06-04_21h42.54.867,Serial_Dependence_U,2023.2.3,Win32,60.240963855400565,,,,,,2032.3377999999998,273,5,2032.3377999999998,273,,,,2036.5431999999996,2037.0411,2036.0285,2036.5431999999996,2033.3514,2036.0283,2037.0411,2037.5405,2037.5405,2045.1695,3860,2045.1695,5,2045.1697999999997,5,2,152,4,1,1.6,0.3,Time
,,035679,001,女,21,2025-06-04_21h42.54.867,Serial_Dependence_U,2023.2.3,Win32,60.240963855400565,,,,,,2045.1701000000003,145,5,2045.1701999999996,145,,,,2048.9756,2049.4739,2048.4604,2048.9755,2046.1837999999998,2048.4602999999997,2049.4739,2049.9723999999997,2049.9725,2054.0614,3674,2054.0614,5,2054.0616999999997,5,3,153,22,1,1.2,0.3,Time
,,035679,001,女,21,2025-06-04_21h42.54.867,Serial_Dependence_U,2023.2.3,Win32,60.240963855400565,,,,,,2054.0618,191,5,2054.0618,191,,,,2057.6355,2058.1337999999996,2057.1209,2057.6353999999997,2055.0761999999995,2057.1207999999997,2058.1337999999996,2058.6329,2058.633,2062.6047999999996,3637,2062.6047999999996,5,2062.6051,5,4,154,26,1,1,0.7,Time
,,035679,001,女,21,2025-06-04_21h42.54.867,Serial_Dependence_U,2023.2.3,Win32,60.240963855400565,,,,,,2062.6052999999997,295,5,2062.6054,295,,,,2066.6112999999996,2067.1094,2066.0961,2066.6112,2063.6196,2066.096,2067.1094,2067.6081,2067.6081999999997,2072.594,4473,2072.5941999999995,5,2072.5942999999997,5,5,155,13,1,1.4,0.3,Time
,,035679,001,女,21,2025-06-04_21h42.54.867,Serial_Dependence_U,2023.2.3,Win32,60.240963855400565,,,,,,2072.5945,219,5,2072.5946,219,,,,2075.9687999999996,2076.4671999999996,2075.4539,2075.9687,2073.6091,2075.4539,2076.4671999999996,2076.9661,2076.9661,2083.0986999999996,3015,2083.0986999999996,5,2083.099,5,6,156,25,1,0.8,0.7,Time
,,035679,001,女,21,2025-06-04_21h42.54.867,Serial_Dependence_U,2023.2.3,Win32,60.240963855400565,,,,,,2083.0995,266,5,2083.0996,266,,,,2086.4734,2086.9712999999997,2085.9584,2086.4732999999997,2084.1131,2085.9583,2086.9712999999997,2087.4701,2087.4701,2091.6092,3019,2091.6092999999996,5,2091.6095,5,7,157,5,1,0.8,0.7,Time
,,035679,001,女,21,2025-06-04_21h42.54.867,Serial_Dependence_U,2023.2.3,Win32,60.240963855400565,,,,,,2091.6099,336,5,2091.61,336,,,,2095.0001999999995,2095.4989,2094.4847999999997,2095,2092.6238,2094.4846999999995,2095.4989,2095.9973,2095.9973,2099.7036999999996,3086,2099.7039,5,2099.7041999999997,5,8,158,10,1,0.8,0.3,Time
,,035679,001,女,21,2025-06-04_21h42.54.867,Serial_Dependence_U,2023.2.3,Win32,60.240963855400565,,,,,,2099.7044,18,5,2099.7046,18,,,,2103.0782999999997,2103.5764,2102.5626,2103.0781999999995,2100.7183,2102.5625,2103.5764,2104.0751999999998,2104.0751999999998,2107.9642,2997,2107.9642999999996,5,2107.9642999999996,5,9,159,15,1,0.8,0.7,Time
,,035679,001,女,21,2025-06-04_21h42.54.867,Serial_Dependence_U,2023.2.3,Win32,60.240963855400565,,,,,,2107.9646000000002,115,5,2107.9646000000002,115,,,,2111.9375,2112.4354,2111.4217999999996,2111.9372,2108.9788,2111.4217,2112.4354,2112.9341999999997,2112.9343,2122.8071999999997,3163,2122.8073,5,2122.8075,5,10,160,8,1,1.4,0.7,Time
,,035679,001,女,21,2025-06-04_21h42.54.867,Serial_Dependence_U,2023.2.3,Win32,60.240963855400565,,,,,,2122.808,203,5,2122.8081999999995,203,,,,2126.9793,2127.4782999999998,2126.4645,2126.9791999999998,2123.8219,2126.4644,2127.4782999999998,2127.9764,2127.9764,2132.9977,4544,2132.9977,5,2132.9979,5,11,161,29,1,1.6,0.7,Time
,,035679,001,女,21,2025-06-04_21h42.54.867,Serial_Dependence_U,2023.2.3,Win32,60.240963855400565,,,,,,2132.9981000000002,41,5,2132.9981999999995,41,,,,2137.1684,2137.6664,2136.6531999999997,2137.1683,2134.0101999999997,2136.6531,2137.6664,2138.1656999999996,2138.1656999999996,2144.033,4065,2144.033,5,2144.0331,5,12,162,19,1,1.6,0.7,Time
,,035679,001,女,21,2025-06-04_21h42.54.867,Serial_Dependence_U,2023.2.3,Win32,60.240963855400565,,,,,,2144.0336,74,5,2144.0337999999997,74,,,,2147.8057,2148.3046999999997,2147.2905,2147.8057,2145.0471000000002,2147.2904,2148.3046999999997,2148.8034,2148.8035,2156.1991999999996,3178,2156.1992999999998,5,2156.1994,5,13,163,17,1,1.2,0.7,Time
,,035679,001,女,21,2025-06-04_21h42.54.867,Serial_Dependence_U,2023.2.3,Win32,60.240963855400565,,,,,,2156.1996,250,5,2156.1996999999997,250,,,,2159.9727,2160.4709,2159.4576,2159.9726,2157.2135,2159.4575,2160.4709,2160.9696,2160.9696,2166.8201,3613,2166.8201,5,2166.8203,5,14,164,27,1,1.2,0.7,Time
,,035679,001,女,21,2025-06-04_21h42.54.867,Serial_Dependence_U,2023.2.3,Win32,60.240963855400565,,,,,,2166.8206999999998,329,5,2166.8208,329,,,,2170.2116,2170.7101999999995,2169.6974,2170.2116,2167.8347999999996,2169.6971999999996,2170.7101999999995,2171.2086,2171.2086999999997,2176.0951999999997,3854,2176.0951999999997,5,2176.0955,5,15,165,20,1,0.8,0.3,Time
,,035679,001,女,21,2025-06-04_21h42.54.867,Serial_Dependence_U,2023.2.3,Win32,60.240963855400565,,,,,,2176.0957,42,5,2176.0957,42,,,,2179.4866999999995,2179.9844,2178.971,2179.4866,2177.1092,2178.9709,2179.9844,2180.4836999999998,2180.4836999999998,2184.2893,3303,2184.2893,5,2184.2897,5,16,166,0,1,0.8,0.3,Time
,,035679,001,女,21,2025-06-04_21h42.54.867,Serial_Dependence_U,2023.2.3,Win32,60.240963855400565,,,,,,2184.2902,87,5,2184.2902,87,,,,2187.88,2188.3784,2187.3651999999997,2187.8797999999997,2185.3037999999997,2187.3651,2188.3784,2188.8771,2188.8771,2200.9275,3474,2200.9275,5,2200.9276999999997,5,17,167,21,1,1,0.3,Time
,,035679,001,女,21,2025-06-04_21h42.54.867,Serial_Dependence_U,2023.2.3,Win32,60.240963855400565,,,,,,2200.9281,219,5,2200.9282999999996,219,,,,2205.0993,2205.5984,2204.5846,2205.0993,2201.9422999999997,2204.5845,2205.5984,2206.0969,2206.0969,2210.9831,4160,2210.9831999999997,5,2210.9831999999997,5,18,168,9,1,1.6,0.7,Time
,,035679,001,女,21,2025-06-04_21h42.54.867,Serial_Dependence_U,2023.2.3,Win32,60.240963855400565,,,,,,2210.9836,70,5,2210.9836999999998,70,,,,2214.9891000000002,2215.488,2214.4741999999997,2214.989,2211.9971,2214.4741999999997,2215.488,2215.9861,2215.9861,2227.3055,3574,2227.3055,5,2227.3061000000002,5,19,169,23,1,1.4,0.3,Time
,,035679,001,女,21,2025-06-04_21h42.54.867,Serial_Dependence_U,2023.2.3,Win32,60.240963855400565,,,,,,2227.3064,217,5,2227.3065,217,,,,2230.8956000000003,2231.3947999999996,2230.3804999999998,2230.8956000000003,2228.3194,2230.3804,2231.3947999999996,2231.8931999999995,2231.8931999999995,2235.9824,3598,2235.9825,5,2235.9827999999998,5,20,170,1,1,1,0.3,Time
,,035679,001,女,21,2025-06-04_21h42.54.867,Serial_Dependence_U,2023.2.3,Win32,60.240963855400565,,,,,,2235.9831,229,5,2235.9831999999997,229,,,,2239.7724,2240.27,2239.2579,2239.7722999999996,2236.9957999999997,2239.2579,2240.27,2240.7686,2240.7686,2244.7746999999995,3537,2244.7747999999997,5,2244.7751999999996,5,21,171,2,1,1.2,0.3,Time
,,035679,001,女,21,2025-06-04_21h42.54.867,Serial_Dependence_U,2023.2.3,Win32,60.240963855400565,,,,,,2244.7756,321,5,2244.7756999999997,321,,,,2248.3651999999997,2248.8632,2247.85,2248.3651999999997,2245.7886,2247.85,2248.8633,2249.3615,2249.3616,2253.5671999999995,3605,2253.5672999999997,5,2253.5676,5,22,172,11,1,1,0.3,Time
,,035679,001,女,21,2025-06-04_21h42.54.867,Serial_Dependence_U,2023.2.3,Win32,60.240963855400565,,,,,,2253.5679,286,5,2253.5681,286,,,,2257.1411999999996,2257.6394,2256.6255,2257.1411000000003,2254.5816999999997,2256.6255,2257.6394999999998,2258.1385,2258.1385,2262.1601,3473,2262.1601,5,2262.1602,5,23,173,16,1,1,0.7,Time
,,035679,001,女,21,2025-06-04_21h42.54.867,Serial_Dependence_U,2023.2.3,Win32,60.240963855400565,,,,,,2262.1605,60,5,2262.1607,60,,,,2265.7336999999998,2266.2325,2265.2191999999995,2265.7336999999998,2263.1741999999995,2265.2191000000003,2266.2325,2266.7311999999997,2266.7313,2271.2355,3778,2271.2355,5,2271.2356999999997,5,24,174,6,1,1,0.7,Time
,,035679,001,女,21,2025-06-04_21h42.54.867,Serial_Dependence_U,2023.2.3,Win32,60.240963855400565,,,,,,2271.236,228,5,2271.2362,228,,,,2275.0253,2275.5241,2274.5103999999997,2275.0251999999996,2272.2493,2274.5103,2275.5242,2276.0224,2276.0224,2281.2419,3593,2281.2421,5,2281.2424,5,25,175,12,1,1.2,0.3,Time
,,035679,001,女,21,2025-06-04_21h42.54.867,Serial_Dependence_U,2023.2.3,Win32,60.240963855400565,,,,,,2281.2426,312,5,2281.2428999999997,312,,,,2285.4476999999997,2285.9454,2284.932,2285.4476999999997,2282.2561,2284.9316,2285.9454,2286.4438999999998,2286.444,2298.9264,3561,2298.9264,5,2298.9266000000002,5,26,176,14,1,1.6,0.3,Time
,,035679,001,女,21,2025-06-04_21h42.54.867,Serial_Dependence_U,2023.2.3,Win32,60.240963855400565,,,,,,2298.9271999999996,198,5,2298.9273,198,,,,2302.7003,2303.1982999999996,2302.1854,2302.7001999999998,2299.9416,2302.1854,2303.1982999999996,2303.6971,2303.6971,2308.7001999999998,4346,2308.7001999999998,5,2308.7006,5,27,177,7,1,1.2,0.7,Time
,,035679,001,女,21,2025-06-04_21h42.54.867,Serial_Dependence_U,2023.2.3,Win32,60.240963855400565,,,,,,2308.7009,49,5,2308.701,49,,,,2312.6735,2313.1709,2312.1576,2312.6733999999997,2309.7142,2312.1575,2313.1709,2313.67,2313.6701000000003,2319.2877,3967,2319.2877,5,2319.2881999999995,5,28,178,28,1,1.4,0.7,Time
,,035679,001,女,21,2025-06-04_21h42.54.867,Serial_Dependence_U,2023.2.3,Win32,60.240963855400565,,,,,,2319.2886999999996,277,5,2319.2886999999996,277,,,,2323.4932999999996,2323.9921999999997,2322.978,2323.493,2320.3021,2322.9777,2323.9921999999997,2324.4905,2324.4906,2328.961,4129,2328.961,5,2328.9611999999997,5,29,179,24,1,1.6,0.3,Time
,,035679,001,女,21,2025-06-04_21h42.54.867,Serial_Dependence_U,2023.2.3,Win32,60.240963855400565,,,,,,2328.9617,173,6,2617.475,173,s,288.50509999999986,,2621.4631,2621.9617,2620.9483999999998,2621.4631,2618.4876,2620.9482999999996,2621.9617,2622.4604,2622.4605,2627.3631,4046,2627.3631,5,2627.3633,6,0,180,13,1,1.4,0.3,Time
,,035679,001,女,21,2025-06-04_21h42.54.867,Serial_Dependence_U,2023.2.3,Win32,60.240963855400565,,,,,,2627.3635,99,6,2627.3651,99,,,,2631.5365,2632.0343,2631.0208,2631.5364,2628.3781999999997,2631.0205,2632.0343,2632.5326,2632.5326999999997,2637.6022999999996,4613,2637.6025,5,2637.6027,6,1,181,19,1,1.6,0.7,Time
,,035679,001,女,21,2025-06-04_21h42.54.867,Serial_Dependence_U,2023.2.3,Win32,60.240963855400565,,,,,,2637.603,284,6,2637.6031999999996,284,,,,2641.575,2642.0731,2641.0594,2641.5749,2638.6162999999997,2641.0594,2642.0731,2642.5723,2642.5723,2707.6607999999997,3532,2707.6607999999997,5,2707.661,6,2,182,18,1,1.4,0.7,Time
,,035679,001,女,21,2025-06-04_21h42.54.867,Serial_Dependence_U,2023.2.3,Win32,60.240963855400565,,,,,,2707.6611999999996,248,6,2707.6614,248,,,,2711.0525,2711.5508999999997,2710.5364,2711.0524,2708.6751,2710.5362999999998,2711.5511,2712.0487,2712.0487999999996,2818.2428999999997,2773,2818.2428999999997,5,2818.2435,6,3,183,0,1,0.8,0.3,Time
,,035679,001,女,21,2025-06-04_21h42.54.867,Serial_Dependence_U,2023.2.3,Win32,60.240963855400565,,,,,,2818.2437999999997,334,6,2818.2439,334,,,,2822.4476999999997,2822.9458,2821.933,2822.4476999999997,2819.2569,2821.9329,2822.9458,2823.4446999999996,2823.4447999999998,3017.9809,3303,3017.9809,5,3017.9811999999997,6,4,184,4,1,1.6,0.3,Time
,,035679,001,女,21,2025-06-04_21h42.54.867,Serial_Dependence_U,2023.2.3,Win32,60.240963855400565,,,,,,3017.9813999999997,194,6,3017.9817,194,,,,3021.3555,3021.8536,3020.84,3021.3555,3018.9956999999995,3020.84,3021.8536999999997,3022.3518999999997,3022.3518999999997,3025.6928,2985,3025.6929,5,3025.6929999999998,6,5,185,25,1,0.8,0.7,Time
,,035679,001,女,21,2025-06-04_21h42.54.867,Serial_Dependence_U,2023.2.3,Win32,60.240963855400565,,,,,,3025.6931999999997,151,6,3025.6933999999997,151,,,,3029.4831,3029.9813999999997,3028.9682,3029.4829,3026.7072999999996,3028.9681,3029.9813999999997,3030.48,3030.48,3034.7517,3781,3034.7517,5,3034.7521,6,6,186,12,1,1.2,0.3,Time
,,035679,001,女,21,2025-06-04_21h42.54.867,Serial_Dependence_U,2023.2.3,Win32,60.240963855400565,,,,,,3034.7525,124,6,3034.7526000000003,124,,,,3038.3419,3038.8403,3037.8266,3038.3416,3035.7663,3037.8266,3038.8404,3039.3392,3039.3392,3043.2783,3364,3043.2783,5,3043.2787999999996,6,7,187,1,1,1,0.3,Time
,,035679,001,女,21,2025-06-04_21h42.54.867,Serial_Dependence_U,2023.2.3,Win32,60.240963855400565,,,,,,3043.2791,209,6,3043.2794,209,,,,3047.4835,3047.9824,3046.969,3047.4834,3044.2927999999997,3046.9687999999996,3047.9825,3048.4808,3048.4808,3053.0681999999997,4170,3053.0683,5,3053.0687999999996,6,8,188,24,1,1.6,0.3,Time
,,035679,001,女,21,2025-06-04_21h42.54.867,Serial_Dependence_U,2023.2.3,Win32,60.240963855400565,,,,,,3053.0691,84,6,3053.0692999999997,84,,,,3057.0416,3057.5398999999998,3056.5263,3057.0415,3054.0824,3056.5262,3057.5398999999998,3058.0381999999995,3058.0381999999995,3062.0769,3617,3062.0769999999998,5,3062.0775,6,9,189,8,1,1.4,0.7,Time
,,035679,001,女,21,2025-06-04_21h42.54.867,Serial_Dependence_U,2023.2.3,Win32,60.240963855400565,,,,,,3062.0777,92,6,3062.0777999999996,92,,,,3065.4676,3065.9666,3064.9534,3065.4674999999997,3063.091,3064.953,3065.9666999999995,3066.4651999999996,3066.4651999999996,3070.0881999999997,3284,3070.0881999999997,5,3070.0883,6,10,190,10,1,0.8,0.3,Time
,,035679,001,女,21,2025-06-04_21h42.54.867,Serial_Dependence_U,2023.2.3,Win32,60.240963855400565,,,,,,3070.0884,243,6,3070.0886,243,,,,3073.4631999999997,3073.9615,3072.9471,3073.4631,3071.1031000000003,3072.947,3073.9615,3074.4601000000002,3074.4601000000002,3078.316,3521,3078.316,5,3078.3163999999997,6,11,191,15,1,0.8,0.7,Time
,,035679,001,女,21,2025-06-04_21h42.54.867,Serial_Dependence_U,2023.2.3,Win32,60.240963855400565,,,,,,3078.3167,309,6,3078.3167,309,,,,3082.5234,3083.0196,3082.0067,3082.523,3079.3304,3082.0066,3083.0196,3083.5181000000002,3083.5181000000002,3088.3552999999997,4510,3088.3552999999997,5,3088.3555,6,12,192,14,1,1.6,0.3,Time
,,035679,001,女,21,2025-06-04_21h42.54.867,Serial_Dependence_U,2023.2.3,Win32,60.240963855400565,,,,,,3088.3559999999998,346,6,3088.3561999999997,346,,,,3092.5275,3093.0256999999997,3092.0124,3092.5275,3089.3701,3092.0124,3093.0256999999997,3093.5244,3093.5244,3097.5634999999997,3754,3097.5636,5,3097.564,6,13,193,29,1,1.6,0.7,Time
,,035679,001,女,21,2025-06-04_21h42.54.867,Serial_Dependence_U,2023.2.3,Win32,60.240963855400565,,,,,,3097.5643,147,6,3097.5643999999998,147,,,,3100.9377999999997,3101.4361,3100.4225,3100.9376,3098.5781999999995,3100.4225,3101.4361,3101.9348999999997,3101.935,3105.359,3120,3105.359,5,3105.3592,6,14,194,5,1,0.8,0.7,Time
,,035679,001,女,21,2025-06-04_21h42.54.867,Serial_Dependence_U,2023.2.3,Win32,60.240963855400565,,,,,,3105.3596000000002,343,6,3105.3597999999997,343,,,,3108.7497,3109.2486999999996,3108.235,3108.7497,3106.3731999999995,3108.2349,3109.2486999999996,3109.7464999999997,3109.7464999999997,3119.4701999999997,3379,3119.4701999999997,5,3119.4706,6,15,195,20,1,0.8,0.3,Time
,,035679,001,女,21,2025-06-04_21h42.54.867,Serial_Dependence_U,2023.2.3,Win32,60.240963855400565,,,,,,3119.471,253,6,3119.4711999999995,253,,,,3123.2441999999996,3123.7416,3122.7284,3123.2441999999996,3120.4844,3122.7281999999996,3123.7416,3124.2406,3124.2406,3128.5289,3963,3128.5289,5,3128.5292999999997,6,16,196,7,1,1.2,0.7,Time
,,035679,001,女,21,2025-06-04_21h42.54.867,Serial_Dependence_U,2023.2.3,Win32,60.240963855400565,,,,,,3128.5296,148,6,3128.5299,148,,,,3132.1029,3132.6014,3131.5876,3132.1027,3129.543,3131.5875,3132.6014,3133.0996,3133.0996,3138.269,3660,3138.2691,5,3138.2693,6,17,197,26,1,1,0.7,Time
,,035679,001,女,21,2025-06-04_21h42.54.867,Serial_Dependence_U,2023.2.3,Win32,60.240963855400565,,,,,,3138.2697,316,6,3138.2699,316,,,,3142.2751,3142.773,3141.7601999999997,3142.275,3139.283,3141.7601,3142.7731,3143.2717,3143.2717,3147.9091,4008,3147.9091999999996,5,3147.9096999999997,6,18,198,23,1,1.4,0.3,Time
,,035679,001,女,21,2025-06-04_21h42.54.867,Serial_Dependence_U,2023.2.3,Win32,60.240963855400565,,,,,,3147.91,77,6,3147.9102,77,,,,3151.6831,3152.1807999999996,3151.1679,3151.6831,3148.9235,3151.1677999999997,3152.1807999999996,3152.6796999999997,3152.6796999999997,3158.2477999999996,3601,3158.2477999999996,5,3158.248,6,19,199,27,1,1.2,0.7,Time
,,035679,001,女,21,2025-06-04_21h42.54.867,Serial_Dependence_U,2023.2.3,Win32,60.240963855400565,,,,,,3158.2485,349,6,3158.2486999999996,349,,,,3161.8386,3162.3363,3161.3242999999998,3161.8385,3159.2616999999996,3161.3241999999996,3162.3363,3162.8352999999997,3162.8352999999997,3169.3507999999997,3338,3169.3507999999997,5,3169.3509,6,20,200,21,1,1,0.3,Time
,,035679,001,女,21,2025-06-04_21h42.54.867,Serial_Dependence_U,2023.2.3,Win32,60.240963855400565,,,,,,3169.3511,10,6,3169.3513,10,,,,3172.9244,3173.4228,3172.4094999999998,3172.9242999999997,3170.3646999999996,3172.4093,3173.4228,3173.9213999999997,3173.9213999999997,3178.4429,4015,3178.4429999999998,5,3178.4431999999997,6,21,201,6,1,1,0.7,Time
,,035679,001,女,21,2025-06-04_21h42.54.867,Serial_Dependence_U,2023.2.3,Win32,60.240963855400565,,,,,,3178.4436,155,6,3178.4438999999998,155,,,,3182.2488,3182.7479,3181.7345,3182.2486999999996,3179.4572999999996,3181.7344,3182.748,3183.2464999999997,3183.2466,3188.5981,4513,3188.5981,5,3188.5982999999997,6,22,202,22,1,1.2,0.3,Time
,,035679,001,女,21,2025-06-04_21h42.54.867,Serial_Dependence_U,2023.2.3,Win32,60.240963855400565,,,,,,3188.5985,121,6,3188.5987999999998,121,,,,3192.6039,3193.1027,3192.0895,3192.6039,3189.6126999999997,3192.0895,3193.1027,3193.601,3193.601,3199.2194,3635,3199.2195,5,3199.2198,6,23,203,3,1,1.4,0.3,Time
,,035679,001,女,21,2025-06-04_21h42.54.867,Serial_Dependence_U,2023.2.3,Win32,60.240963855400565,,,,,,3199.2201999999997,287,6,3199.2205,287,,,,3202.9928999999997,3203.4911999999995,3202.4772999999996,3202.9927,3200.2333,3202.4772,3203.4911999999995,3203.9894,3203.9895,3207.5802,3201,3207.5802999999996,5,3207.5806999999995,6,24,204,17,1,1.2,0.7,Time
,,035679,001,女,21,2025-06-04_21h42.54.867,Serial_Dependence_U,2023.2.3,Win32,60.240963855400565,,,,,,3207.581,330,6,3207.5811,330,,,,3211.1541999999995,3211.652,3210.6384,3211.154,3208.5944,3210.6382999999996,3211.652,3212.1509,3212.1509,3217.6029,3454,3217.6029,5,3217.6031999999996,6,25,205,16,1,1,0.7,Time
,,035679,001,女,21,2025-06-04_21h42.54.867,Serial_Dependence_U,2023.2.3,Win32,60.240963855400565,,,,,,3217.6036,116,6,3217.6036999999997,116,,,,3221.4089,3221.907,3220.8935,3221.4087999999997,3218.6169,3220.8934,3221.9071,3222.4064,3222.4064,3226.8437999999996,4004,3226.8437999999996,5,3226.844,6,26,206,2,1,1.2,0.3,Time
,,035679,001,女,21,2025-06-04_21h42.54.867,Serial_Dependence_U,2023.2.3,Win32,60.240963855400565,,,,,,3226.8441999999995,339,6,3226.8445,339,,,,3231.0159,3231.5144,3230.5016,3231.0159,3227.8581,3230.5015,3231.5144,3232.013,3232.013,3236.8005,4331,3236.8006,5,3236.8014,6,27,207,9,1,1.6,0.7,Time
,,035679,001,女,21,2025-06-04_21h42.54.867,Serial_Dependence_U,2023.2.3,Win32,60.240963855400565,,,,,,3236.8016000000002,274,6,3236.8019,274,,,,3240.391,3240.8891,3239.8761,3240.391,3237.8145,3239.8759999999997,3240.8891,3241.3875,3241.3875,3245.3596999999995,3525,3245.3596999999995,5,3245.3599,6,28,208,11,1,1,0.3,Time
,,035679,001,女,21,2025-06-04_21h42.54.867,Serial_Dependence_U,2023.2.3,Win32,60.240963855400565,,,,,,3245.3601,210,6,3245.3604,210,,,,3249.3325,3249.8307999999997,3248.8186,3249.3322999999996,3246.3741999999997,3248.8185,3249.8307999999997,3250.3294,3250.3294,3254.7179,4047,3254.718,5,3254.7183,6,29,209,28,1,1.4,0.7,Time
,,035679,001,女,21,2025-06-04_21h42.54.867,Serial_Dependence_U,2023.2.3,Win32,60.240963855400565,,,,,,3254.7187,211,7,3277.1398999999997,211,s,22.4083999999998,,3281.3127999999997,3281.8105,3280.7969,3281.3126,3278.1546,3280.7967,3281.8105,3282.3091999999997,3282.3091999999997,3286.5312,3812,3286.5314,5,3286.5316999999995,7,0,210,19,1,1.6,0.7,Time
,,035679,001,女,21,2025-06-04_21h42.54.867,Serial_Dependence_U,2023.2.3,Win32,60.240963855400565,,,,,,3286.5321,50,7,3286.533,50,,,,3289.922,3290.4201999999996,3289.4071,3289.9219,3287.5455,3289.4069,3290.4201999999996,3290.9186999999997,3290.9186999999997,3295.3403,4004,3295.3403,5,3295.3408999999997,7,1,211,20,1,0.8,0.3,Time
,,035679,001,女,21,2025-06-04_21h42.54.867,Serial_Dependence_U,2023.2.3,Win32,60.240963855400565,,,,,,3295.3412,25,7,3295.3414,25,,,,3298.7151,3299.2131,3298.2003,3298.7151,3296.355,3298.2001999999998,3299.2131,3299.7117999999996,3299.7117999999996,3304.1998,4028,3304.1999,5,3304.2003999999997,7,2,212,15,1,0.8,0.7,Time
,,035679,001,女,21,2025-06-04_21h42.54.867,Serial_Dependence_U,2023.2.3,Win32,60.240963855400565,,,,,,3304.2006,97,7,3304.2007999999996,97,,,,3308.2051,3308.7039,3307.6906,3308.2051,3305.214,3307.6904,3308.704,3309.2025,3309.2025,3313.4909,3839,3313.491,5,3313.4911,7,3,213,13,1,1.4,0.3,Time
,,035679,001,女,21,2025-06-04_21h42.54.867,Serial_Dependence_U,2023.2.3,Win32,60.240963855400565,,,,,,3313.4914,221,7,3313.4916,221,,,,3317.2978,3317.7956999999997,3316.7824,3317.2978,3314.5056,3316.7823,3317.7958,3318.2941,3318.2941,3322.5661,3756,3322.5661,5,3322.5666,7,4,214,22,1,1.2,0.3,Time
,,035679,001,女,21,2025-06-04_21h42.54.867,Serial_Dependence_U,2023.2.3,Win32,60.240963855400565,,,,,,3322.5669,337,7,3322.5671,337,,,,3326.5719,3327.0704,3326.0571,3326.5716999999995,3323.5806000000002,3326.057,3327.0704,3327.5701,3327.5701999999997,3331.4746999999998,3603,3331.4748,5,3331.475,7,5,215,23,1,1.4,0.3,Time
,,035679,001,女,21,2025-06-04_21h42.54.867,Serial_Dependence_U,2023.2.3,Win32,60.240963855400565,,,,,,3331.4755,341,7,3331.4757999999997,341,,,,3335.2648999999997,3335.7635,3334.7495,3335.2648,3332.4889,3334.7493999999997,3335.7635,3336.2614,3336.2614,3340.035,3349,3340.0351,5,3340.0356,7,6,216,2,1,1.2,0.3,Time
,,035679,001,女,21,2025-06-04_21h42.54.867,Serial_Dependence_U,2023.2.3,Win32,60.240963855400565,,,,,,3340.0359,326,7,3340.036,326,,,,3343.6254,3344.1236999999996,3343.11,3343.6254,3341.0492999999997,3343.11,3344.1236999999996,3344.622,3344.6221,3358.6178,3121,3358.6178,5,3358.6181,7,7,217,21,1,1,0.3,Time
,,035679,001,女,21,2025-06-04_21h42.54.867,Serial_Dependence_U,2023.2.3,Win32,60.240963855400565,,,,,,3358.6185,43,7,3358.6186999999995,43,,,,3362.0083,3362.5067999999997,3361.493,3362.0081999999998,3359.6313999999998,3361.493,3362.5067999999997,3363.0051999999996,3363.0053,3367.1773,3718,3367.1773,5,3367.1775,7,8,218,0,1,0.8,0.3,Time
,,035679,001,女,21,2025-06-04_21h42.54.867,Serial_Dependence_U,2023.2.3,Win32,60.240963855400565,,,,,,3367.1778999999997,22,7,3367.1782,22,,,,3370.569,3371.0667999999996,3370.053,3370.5688999999998,3368.1916,3370.0526999999997,3371.0667999999996,3371.5652999999998,3371.5652999999998,3376.2693999999997,4098,3376.2695,5,3376.2696,7,9,219,10,1,0.8,0.3,Time
,,035679,001,女,21,2025-06-04_21h42.54.867,Serial_Dependence_U,2023.2.3,Win32,60.240963855400565,,,,,,3376.27,119,7,3376.2701999999995,119,,,,3380.0595,3380.5577,3379.5447999999997,3380.0593,3377.2834,3379.5446,3380.5577,3381.0561000000002,3381.0561999999995,3386.0591999999997,3640,3386.0591999999997,5,3386.0595,7,10,220,12,1,1.2,0.3,Time
,,035679,001,女,21,2025-06-04_21h42.54.867,Serial_Dependence_U,2023.2.3,Win32,60.240963855400565,,,,,,3386.0597,222,7,3386.0598999999997,222,,,,3390.2646,3390.7634,3389.7493,3390.2644999999998,3387.0737999999997,3389.7493,3390.7634,3391.2621999999997,3391.2621999999997,3395.9004,4300,3395.9005,5,3395.9008,7,11,221,14,1,1.6,0.3,Time
,,035679,001,女,21,2025-06-04_21h42.54.867,Serial_Dependence_U,2023.2.3,Win32,60.240963855400565,,,,,,3395.901,17,7,3395.9012,17,,,,3399.4735,3399.9712999999997,3398.9576,3399.4734,3396.9131999999995,3398.9576,3399.9712999999997,3400.4701,3400.4701,3404.6751,3893,3404.6751,5,3404.6753,7,12,222,6,1,1,0.7,Time
,,035679,001,女,21,2025-06-04_21h42.54.867,Serial_Dependence_U,2023.2.3,Win32,60.240963855400565,,,,,,3404.6755,161,7,3404.6758,161,,,,3408.6479,3409.1466,3408.1326999999997,3408.6477999999997,3405.6904,3408.1326,3409.1466,3409.6449,3409.6449,3414.0829,4035,3414.083,5,3414.0833,7,13,223,28,1,1.4,0.7,Time
,,035679,001,女,21,2025-06-04_21h42.54.867,Serial_Dependence_U,2023.2.3,Win32,60.240963855400565,,,,,,3414.0835,214,7,3414.0836999999997,214,,,,3418.2886,3418.7865,3417.7726999999995,3418.2885,3415.0966999999996,3417.7726999999995,3418.7865,3419.2856,3419.2857,3423.6066,3972,3423.6066,5,3423.6067999999996,7,14,224,4,1,1.6,0.3,Time
,,035679,001,女,21,2025-06-04_21h42.54.867,Serial_Dependence_U,2023.2.3,Win32,60.240963855400565,,,,,,3423.607,146,7,3423.6071999999995,146,,,,3427.7789,3428.2775,3427.2636999999995,3427.7789,3424.6214,3427.2636,3428.2775,3428.7759,3428.7759,3433.3302,4223,3433.3302,5,3433.3302999999996,7,15,225,29,1,1.6,0.7,Time
,,035679,001,女,21,2025-06-04_21h42.54.867,Serial_Dependence_U,2023.2.3,Win32,60.240963855400565,,,,,,3433.3305,153,7,3433.3307999999997,153,,,,3437.3361999999997,3437.835,3436.8208999999997,3437.336,3434.344,3436.8206999999998,3437.835,3438.3329,3438.333,3442.1892,3509,3442.1892,5,3442.1893999999998,7,16,226,3,1,1.4,0.3,Time
,,035679,001,女,21,2025-06-04_21h42.54.867,Serial_Dependence_U,2023.2.3,Win32,60.240963855400565,,,,,,3442.1895,254,7,3442.1896,254,,,,3445.5643,3446.0626999999995,3445.0481,3445.5643,3443.2035,3445.048,3446.0626999999995,3446.5609,3446.5609,3449.8523999999998,2825,3449.8523999999998,5,3449.8527999999997,7,17,227,25,1,0.8,0.7,Time
,,035679,001,女,21,2025-06-04_21h42.54.867,Serial_Dependence_U,2023.2.3,Win32,60.240963855400565,,,,,,3449.8531000000003,36,7,3449.8532999999998,36,,,,3453.2266,3453.7251,3452.711,3453.2264999999998,3450.8662999999997,3452.7108,3453.7252,3454.2232999999997,3454.2234,3457.564,2973,3457.564,5,3457.5642,7,18,228,5,1,0.8,0.7,Time
,,035679,001,女,21,2025-06-04_21h42.54.867,Serial_Dependence_U,2023.2.3,Win32,60.240963855400565,,,,,,3457.5646,328,7,3457.5647999999997,328,,,,3461.1382,3461.6366000000003,3460.6231000000002,3461.1381,3458.5784,3460.623,3461.6366000000003,3462.1346,3462.1346999999996,3462.9665,597,3462.9666,1,3462.9671,7,19,229,16,1,1,0.7,Time
,,035679,001,女,21,2025-06-04_21h42.54.867,Serial_Dependence_U,2023.2.3,Win32,60.240963855400565,,,,,,3462.9674999999997,110,7,3462.9676999999997,110,,,,3467.1721999999995,3467.6704,3466.6566999999995,3467.1721999999995,3463.9809,3466.6566000000003,3467.6704,3468.169,3468.169,3471.9916,3442,3471.9916999999996,5,3471.992,7,20,230,24,1,1.6,0.3,Time
,,035679,001,女,21,2025-06-04_21h42.54.867,Serial_Dependence_U,2023.2.3,Win32,60.240963855400565,,,,,,3471.9923,42,7,3471.9925,42,,,,3475.7646999999997,3476.2634,3475.2497999999996,3475.7646,3473.0063999999998,3475.2495,3476.2634,3476.7615,3476.7615,3480.967,3796,3480.9671,5,3480.9674,7,21,231,7,1,1.2,0.7,Time
,,035679,001,女,21,2025-06-04_21h42.54.867,Serial_Dependence_U,2023.2.3,Win32,60.240963855400565,,,,,,3480.9676999999997,15,7,3480.9678,15,,,,3484.5745,3485.0721,3484.0591999999997,3484.5744,3481.9817,3484.0589999999997,3485.0721999999996,3485.571,3485.571,3489.5933999999997,3629,3489.5933999999997,5,3489.5939,7,22,232,1,1,1,0.3,Time
,,035679,001,女,21,2025-06-04_21h42.54.867,Serial_Dependence_U,2023.2.3,Win32,60.240963855400565,,,,,,3489.5941999999995,166,7,3489.5944,166,,,,3493.3671999999997,3493.8646999999996,3492.8518999999997,3493.3671,3490.6077999999998,3492.8518,3493.8648,3494.3636,3494.3637,3498.3199,3536,3498.32,5,3498.3204,7,23,233,17,1,1.2,0.7,Time
,,035679,001,女,21,2025-06-04_21h42.54.867,Serial_Dependence_U,2023.2.3,Win32,60.240963855400565,,,,,,3498.3208,231,7,3498.3208999999997,231,,,,3501.8943,3502.3916999999997,3501.3781999999997,3501.8941999999997,3499.3338,3501.3781,3502.3916999999997,3502.8905,3502.8906,3506.497,3261,3506.497,5,3506.4971,7,24,234,26,1,1,0.7,Time
,,035679,001,女,21,2025-06-04_21h42.54.867,Serial_Dependence_U,2023.2.3,Win32,60.240963855400565,,,,,,3506.4973999999997,67,7,3506.4973999999997,67,,,,3510.4706,3510.9683999999997,3509.9554,3510.4705,3507.5119,3509.9552999999996,3510.9683999999997,3511.4673,3511.4674,3515.7223,3892,3515.7223999999997,5,3515.7228,7,25,235,18,1,1.4,0.7,Time
,,035679,001,女,21,2025-06-04_21h42.54.867,Serial_Dependence_U,2023.2.3,Win32,60.240963855400565,,,,,,3515.7231,236,7,3515.7232,236,,,,3519.8943,3520.3926,3519.3791,3519.8941999999997,3516.7364,3519.3788999999997,3520.3927,3520.891,3520.891,3525.9937999999997,4814,3525.9939,5,3525.994,7,26,236,9,1,1.6,0.7,Time
,,035679,001,女,21,2025-06-04_21h42.54.867,Serial_Dependence_U,2023.2.3,Win32,60.240963855400565,,,,,,3525.9945,291,7,3525.9946999999997,291,,,,3529.7672,3530.2656999999995,3529.2525,3529.7672,3527.0083,3529.2524,3530.2657999999997,3530.7641999999996,3530.7641999999996,3534.3878999999997,3241,3534.3878999999997,5,3534.3881,7,27,237,27,1,1.2,0.7,Time
,,035679,001,女,21,2025-06-04_21h42.54.867,Serial_Dependence_U,2023.2.3,Win32,60.240963855400565,,,,,,3534.3886,115,7,3534.3886999999995,115,,,,3538.3604,3538.8591,3537.8456,3538.3603,3535.4021999999995,3537.8456,3538.8591,3539.3572999999997,3539.3572999999997,3543.3141,3707,3543.3142,5,3543.3143999999998,7,28,238,8,1,1.4,0.7,Time
,,035679,001,女,21,2025-06-04_21h42.54.867,Serial_Dependence_U,2023.2.3,Win32,60.240963855400565,,,,,,3543.3147,228,7,3543.3149,228,,,,3546.9041999999995,3547.4028,3546.3891999999996,3546.9041,3544.3275,3546.3891,3547.4028,3547.9013999999997,3547.9013999999997,3551.5573999999997,3255,3551.5576,5,3551.5577999999996,7,29,239,11,1,1,0.3,Time
,,035679,001,女,21,2025-06-04_21h42.54.867,Serial_Dependence_U,2023.2.3,Win32,60.240963855400565,,,,,,3551.558,68,8,3555.2141,68,s,3.64679999999953,,3559.2203999999997,3559.719,3558.7048999999997,3559.2203,3556.2286999999997,3558.7048,3559.719,3560.2174999999997,3560.2176,3564.5885,4022,3564.5885,5,3564.5887,8,0,240,3,1,1.4,0.3,Time
,,035679,001,女,21,2025-06-04_21h42.54.867,Serial_Dependence_U,2023.2.3,Win32,60.240963855400565,,,,,,3564.5891,6,8,3564.5904,6,,,,3568.1629,3568.661,3567.6474,3568.1627999999996,3565.6027,3567.6472999999996,3568.661,3569.1596999999997,3569.1596999999997,3573.4979,3402,3573.498,5,3573.4984,8,1,241,26,1,1,0.7,Time
,,035679,001,女,21,2025-06-04_21h42.54.867,Serial_Dependence_U,2023.2.3,Win32,60.240963855400565,,,,,,3573.4986,176,8,3573.4988,176,,,,3577.2709,3577.7695,3576.7562,3577.2708,3574.5124,3576.7562,3577.7695,3578.268,3578.268,3582.5904,3978,3582.5905,5,3582.5906999999997,8,2,242,7,1,1.2,0.7,Time
,,035679,001,女,21,2025-06-04_21h42.54.867,Serial_Dependence_U,2023.2.3,Win32,60.240963855400565,,,,,,3582.591,222,8,3582.5912,222,,,,3586.18,3586.6782999999996,3585.6646,3586.1799,3583.6036,3585.6645,3586.6782999999996,3587.1774,3587.1775,3591.4818999999998,3898,3591.482,5,3591.4821999999995,8,3,243,1,1,1,0.3,Time
,,035679,001,女,21,2025-06-04_21h42.54.867,Serial_Dependence_U,2023.2.3,Win32,60.240963855400565,,,,,,3591.4826000000003,333,8,3591.4829,333,,,,3594.8727999999996,3595.3714,3594.3576999999996,3594.8727,3592.496,3594.3576000000003,3595.3714,3595.8702999999996,3595.8705,3600.8064,3153,3600.8065,5,3600.8066999999996,8,4,244,10,1,0.8,0.3,Time
,,035679,001,女,21,2025-06-04_21h42.54.867,Serial_Dependence_U,2023.2.3,Win32,60.240963855400565,,,,,,3600.807,21,8,3600.8073,21,,,,3604.5964,3605.0946,3604.0818999999997,3604.5962999999997,3601.8206999999998,3604.0818,3605.0946,3605.5933999999997,3605.5933999999997,3609.7987,3861,3609.7987999999996,5,3609.799,8,5,245,22,1,1.2,0.3,Time
,,035679,001,女,21,2025-06-04_21h42.54.867,Serial_Dependence_U,2023.2.3,Win32,60.240963855400565,,,,,,3609.7992999999997,147,8,3609.7996000000003,147,,,,3613.1902999999998,3613.688,3612.6742999999997,3613.1902999999998,3610.8134,3612.6741999999995,3613.688,3614.1871,3614.1872,3618.1431999999995,3645,3618.1432999999997,5,3618.1438,8,6,246,20,1,0.8,0.3,Time
,,035679,001,女,21,2025-06-04_21h42.54.867,Serial_Dependence_U,2023.2.3,Win32,60.240963855400565,,,,,,3618.1441,230,8,3618.1441999999997,230,,,,3621.5332999999996,3622.0321999999996,3621.0182999999997,3621.5332999999996,3619.1566000000003,3621.0181000000002,3622.0321999999996,3622.5303,3622.5304,3626.1536,3241,3626.1537,5,3626.154,8,7,247,0,1,0.8,0.3,Time
,,035679,001,女,21,2025-06-04_21h42.54.867,Serial_Dependence_U,2023.2.3,Win32,60.240963855400565,,,,,,3626.1544,289,8,3626.1546,289,,,,3629.961,3630.4586999999997,3629.4453,3629.9609,3627.1683,3629.4451999999997,3630.4586999999997,3630.9572,3630.9572,3634.9462999999996,3651,3634.9465,5,3634.9466,8,8,248,12,1,1.2,0.3,Time
,,035679,001,女,21,2025-06-04_21h42.54.867,Serial_Dependence_U,2023.2.3,Win32,60.240963855400565,,,,,,3634.9471,215,8,3634.9473,215,,,,3638.9196,3639.418,3638.4051999999997,3638.9195,3635.9606,3638.4051,3639.418,3639.917,3639.917,3643.9401999999995,3685,3643.9402999999998,5,3643.9406,8,9,249,8,1,1.4,0.7,Time
,,035679,001,女,21,2025-06-04_21h42.54.867,Serial_Dependence_U,2023.2.3,Win32,60.240963855400565,,,,,,3643.9408,149,8,3643.9409,149,,,,3647.3131999999996,3647.8116,3646.798,3647.3131,3644.953,3646.798,3647.8116,3648.31,3648.31,3652.0503,3327,3652.0504,5,3652.0507,8,10,250,5,1,0.8,0.7,Time
,,035679,001,女,21,2025-06-04_21h42.54.867,Serial_Dependence_U,2023.2.3,Win32,60.240963855400565,,,,,,3652.0512,56,8,3652.0514,56,,,,3656.0235,3656.5218,3655.5076999999997,3656.0235,3653.0636999999997,3655.5076999999997,3656.5218999999997,3657.0193,3657.0193999999997,3664.3826,3965,3664.3826999999997,5,3664.3829,8,11,251,18,1,1.4,0.7,Time
,,035679,001,女,21,2025-06-04_21h42.54.867,Serial_Dependence_U,2023.2.3,Win32,60.240963855400565,,,,,,3664.3831999999998,206,8,3664.3836,206,,,,3668.1569,3668.6549999999997,3667.6415,3668.1567999999997,3665.398,3667.6413,3668.6549999999997,3669.1537999999996,3669.1537999999996,3677.4306,3414,3677.4306,5,3677.4309,8,12,252,17,1,1.2,0.7,Time
,,035679,001,女,21,2025-06-04_21h42.54.867,Serial_Dependence_U,2023.2.3,Win32,60.240963855400565,,,,,,3677.4312999999997,125,8,3677.4314,125,,,,3681.6031000000003,3682.1014,3681.0872999999997,3681.603,3678.4446000000003,3681.0871999999995,3682.1016,3682.6,3682.6,3687.1708,4164,3687.1709,5,3687.1713,8,13,253,19,1,1.6,0.7,Time
,,035679,001,女,21,2025-06-04_21h42.54.867,Serial_Dependence_U,2023.2.3,Win32,60.240963855400565,,,,,,3687.1716,201,8,3687.1717999999996,201,,,,3690.9444,3691.4424,3690.4295,3690.9444,3688.1852999999996,3690.4294,3691.4424,3691.9419,3691.9419,3696.2291999999998,3853,3696.2293,5,3696.2297999999996,8,14,254,27,1,1.2,0.7,Time
,,035679,001,女,21,2025-06-04_21h42.54.867,Serial_Dependence_U,2023.2.3,Win32,60.240963855400565,,,,,,3696.2302999999997,198,8,3696.2306999999996,198,,,,3699.8036,3700.3016000000002,3699.2881,3699.8036,3697.2441,3699.2881,3700.3016000000002,3700.7999,3700.7999,3704.7893999999997,3550,3704.7895,5,3704.7897999999996,8,15,255,6,1,1,0.7,Time
,,035679,001,女,21,2025-06-04_21h42.54.867,Serial_Dependence_U,2023.2.3,Win32,60.240963855400565,,,,,,3704.7902,2,8,3704.7902999999997,2,,,,3708.1641,3708.6623999999997,3707.649,3708.1639,3705.804,3707.6488999999997,3708.6623999999997,3709.1611999999996,3709.1611999999996,3713.4822999999997,3888,3713.4822999999997,5,3713.4827999999998,8,16,256,25,1,0.8,0.7,Time
,,035679,001,女,21,2025-06-04_21h42.54.867,Serial_Dependence_U,2023.2.3,Win32,60.240963855400565,,,,,,3713.4831,183,8,3713.4833,183,,,,3716.8571999999995,3717.3551,3716.342,3716.8571,3714.4976,3716.3419,3717.3551999999995,3717.854,3717.854,3721.7096,3347,3721.7096,5,3721.7097999999996,8,17,257,15,1,0.8,0.7,Time
,,035679,001,女,21,2025-06-04_21h42.54.867,Serial_Dependence_U,2023.2.3,Win32,60.240963855400565,,,,,,3721.7097999999996,44,8,3721.7101000000002,44,,,,3725.7161,3726.2144,3725.2007999999996,3725.7158999999997,3722.7245,3725.2007,3726.2144,3726.7129,3726.713,3730.4031,3208,3730.4031,5,3730.4035,8,18,258,13,1,1.4,0.3,Time
,,035679,001,女,21,2025-06-04_21h42.54.867,Serial_Dependence_U,2023.2.3,Win32,60.240963855400565,,,,,,3730.4039,112,8,3730.4041,112,,,,3734.6081999999997,3735.1067,3734.0933,3734.6081,3731.4172,3734.0931,3735.1067,3735.6051999999995,3735.6051999999995,3740.2256,4275,3740.2256999999995,5,3740.2259,8,19,259,14,1,1.6,0.3,Time
,,035679,001,女,21,2025-06-04_21h42.54.867,Serial_Dependence_U,2023.2.3,Win32,60.240963855400565,,,,,,3740.2261,0,8,3740.2264999999998,0,,,,3744.0328,3744.5307,3743.5173999999997,3744.0326999999997,3741.2403999999997,3743.5173,3744.5307,3745.0291,3745.0291999999995,3749.1021,3681,3749.1022,5,3749.1023999999998,8,20,260,2,1,1.2,0.3,Time
,,035679,001,女,21,2025-06-04_21h42.54.867,Serial_Dependence_U,2023.2.3,Win32,60.240963855400565,,,,,,3749.1027999999997,78,8,3749.1029,78,,,,3752.6926,3753.1904,3752.1766999999995,3752.6925,3750.1156,3752.1766000000002,3753.1904,3753.6896,3753.6897,3757.5951,3577,3757.5951,5,3757.5953999999997,8,21,261,11,1,1,0.3,Time
,,035679,001,女,21,2025-06-04_21h42.54.867,Serial_Dependence_U,2023.2.3,Win32,60.240963855400565,,,,,,3757.5957999999996,52,8,3757.5959,52,,,,3761.5676,3762.0667,3761.0531,3761.5676,3758.6096000000002,3761.053,3762.0667,3762.5654,3762.5654,3767.4348999999997,4538,3767.4348999999997,5,3767.4352,8,22,262,28,1,1.4,0.7,Time
,,035679,001,女,21,2025-06-04_21h42.54.867,Serial_Dependence_U,2023.2.3,Win32,60.240963855400565,,,,,,3767.4355,322,8,3767.4356000000002,322,,,,3771.6407999999997,3772.1391,3771.1256,3771.6406999999995,3768.4492999999998,3771.1254,3772.1391999999996,3772.6376999999998,3772.6376999999998,3777.6737,4538,3777.6737999999996,5,3777.6741,8,23,263,4,1,1.6,0.3,Time
,,035679,001,女,21,2025-06-04_21h42.54.867,Serial_Dependence_U,2023.2.3,Win32,60.240963855400565,,,,,,3777.6745,305,8,3777.6746999999996,305,,,,3781.8794,3782.3774,3781.3646999999996,3781.8792999999996,3778.688,3781.3646,3782.3774,3782.8761999999997,3782.8761999999997,3787.6133999999997,4301,3787.6135,5,3787.6136,8,24,264,24,1,1.6,0.3,Time
,,035679,001,女,21,2025-06-04_21h42.54.867,Serial_Dependence_U,2023.2.3,Win32,60.240963855400565,,,,,,3787.614,211,8,3787.6141000000002,211,,,,3791.2038,3791.7023,3790.6884999999997,3791.2036999999996,3788.6281,3790.6884,3791.7023,3792.2007999999996,3792.2009,3795.5428,3008,3795.5429,5,3795.5429999999997,8,25,265,21,1,1,0.3,Time
,,035679,001,女,21,2025-06-04_21h42.54.867,Serial_Dependence_U,2023.2.3,Win32,60.240963855400565,,,,,,3795.5431999999996,55,8,3795.5433000000003,55,,,,3799.1149999999993,3799.6141000000002,3798.6009,3799.1149999999993,3796.5557,3798.6008,3799.6141000000002,3800.1126999999997,3800.1126999999997,3805.2154999999993,3559,3805.2154999999993,5,3805.2156999999997,8,26,266,16,1,1,0.7,Time
,,035679,001,女,21,2025-06-04_21h42.54.867,Serial_Dependence_U,2023.2.3,Win32,60.240963855400565,,,,,,3805.2159999999994,206,8,3805.2164,206,,,,3809.3879999999995,3809.8866999999996,3808.8724999999995,3809.3878999999997,3806.2293000000004,3808.8723999999997,3809.8868,3810.3846999999996,3810.3846999999996,3814.6396999999997,3910,3814.6396999999997,5,3814.6398999999997,8,27,267,29,1,1.6,0.7,Time
,,035679,001,女,21,2025-06-04_21h42.54.867,Serial_Dependence_U,2023.2.3,Win32,60.240963855400565,,,,,,3814.6403,220,8,3814.6404999999995,220,,,,3818.6459,3819.1439,3818.1301999999996,3818.6458000000002,3815.6536,3818.1301999999996,3819.1439,3819.6428,3819.6429,3824.3464,4361,3824.3464,5,3824.3469,8,28,268,23,1,1.4,0.3,Time
,,035679,001,女,21,2025-06-04_21h42.54.867,Serial_Dependence_U,2023.2.3,Win32,60.240963855400565,,,,,,3824.3471999999997,99,8,3824.3473000000004,99,,,,3828.5183,3829.0169,3828.0042,3828.5181999999995,3825.3609999999994,3828.0041,3829.0169,3829.5154999999995,3829.5154999999995,3833.8371999999995,4024,3833.8373,5,3833.8378000000002,8,29,269,9,1,1.6,0.7,Time