Scale_setup.started,Scale_setup.stopped,participant,session,sex,age,date,expName,psychopyVersion,OS,frameRate,Intro.started,Intro.stopped,key_resp_2.keys,key_resp_2.rt,key_resp_2.duration,block.started,direction,Block_id,block.stopped,trial_direction,Block_resp_2.keys,Block_resp_2.rt,Block_resp_2.duration,ITI.started,ITI.stopped,Mask_2.started,Mask_2.stopped,encoding.started,encoding.stopped,Cue.started,Cue.stopped,Response.started,Response.stopped,keyDuration,Feedback_Time.started,FeedbackID_T,Feedback_Time.stopped,trials.thisRepN,trials.thisTrialN,trials.thisN,trials.thisIndex,trials.ran,TimeDur,Coherence1,TrialType
0.00029999995231477783,0.00040000009536811376,064995,001,男,21,2025-06-04_21h07.45.049,Serial_Dependence_U,2023.2.3,Win32,166.66666666666666,,,,,,,,,,,,,,,,,,,,,,,,,,,,,,,,,,,
,,064995,001,男,21,2025-06-04_21h07.45.049,Serial_Dependence_U,2023.2.3,Win32,166.66666666666666,11.495200000047678,12.287799999952309,space,0.7734000000953642,,,,,,,,,,,,,,,,,,,,,,,,,,,,,,,
,,064995,001,男,21,2025-06-04_21h07.45.049,Serial_Dependence_U,2023.2.3,Win32,166.66666666666666,,,,,,12.291799999952314,104,0,13.130400000095367,104,s,0.8283999998569485,,17.076100000143047,17.572900000095363,16.573999999999995,17.075999999999997,14.136799999952313,16.57390000009536,17.573100000143047,18.07570000004768,18.075799999952313,20.638799999952315,1938,20.639,5,21.63420000004768,0,0,0,28,1,1.4,0.7,Time
,,064995,001,男,21,2025-06-04_21h07.45.049,Serial_Dependence_U,2023.2.3,Win32,166.66666666666666,,,,,,21.63460000014305,137,0,21.63610000014305,137,,,,24.988900000095366,25.48729999995231,24.473600000143048,24.98879999995231,22.6375,24.473400000095364,25.48729999995231,25.983600000143046,25.98370000004768,27.58890000009536,1146,27.588999999999995,5,28.58170000004768,0,1,1,15,1,0.8,0.7,Time
,,064995,001,男,21,2025-06-04_21h07.45.049,Serial_Dependence_U,2023.2.3,Win32,166.66666666666666,,,,,,28.581900000095363,200,0,28.581999999999997,200,,,,32.150200000047676,32.64710000014304,31.647900000095365,32.14999999999999,29.575200000047683,31.647799999952316,32.647200000047675,33.144200000047675,33.14429999995231,34.43190000009537,889,34.43190000009537,2,35.43190000009537,0,2,2,21,1,1,0.3,Time
,,064995,001,男,21,2025-06-04_21h07.45.049,Serial_Dependence_U,2023.2.3,Win32,166.66666666666666,,,,,,35.43210000014305,270,0,35.43210000014305,270,,,,38.76570000004769,39.26870000004769,38.26479999995232,38.76560000014305,36.43070000004768,38.26470000004768,39.26870000004769,39.766100000143055,39.76620000004769,40.95070000004769,711,40.95070000004769,2,41.95470000004768,0,3,3,5,1,0.8,0.7,Time
,,064995,001,男,21,2025-06-04_21h07.45.049,Serial_Dependence_U,2023.2.3,Win32,166.66666666666666,,,,,,41.95510000014305,345,0,41.95520000004768,345,,,,45.724999999999994,46.22540000009536,45.22179999995231,45.724900000095374,42.960499999999996,45.22170000004769,46.2255,46.721999999999994,46.722100000143044,48.16870000004768,1080,48.16870000004768,2,49.16970000004768,0,4,4,2,1,1.2,0.3,Time
,,064995,001,男,21,2025-06-04_21h07.45.049,Serial_Dependence_U,2023.2.3,Win32,166.66666666666666,,,,,,49.170200000047686,352,0,49.17029999995232,352,,,,53.150000000000006,53.64570000004768,52.64329999995232,53.14990000009537,50.17640000009537,52.643200000047685,53.64570000004768,54.14190000009536,54.14190000009536,56.45310000014305,1957,56.45310000014305,5,57.449700000047685,0,5,5,13,1,1.4,0.3,Time
,,064995,001,男,21,2025-06-04_21h07.45.049,Serial_Dependence_U,2023.2.3,Win32,166.66666666666666,,,,,,57.44990000009537,60,0,57.45010000014305,60,,,,61.19979999995232,61.70090000009537,60.69170000004769,61.19960000014305,58.45620000004769,60.69140000009537,61.70099999999999,62.197500000000005,62.197500000000005,63.86610000014305,1340,63.866200000047684,4,64.86520000004768,0,6,6,7,1,1.2,0.7,Time
,,064995,001,男,21,2025-06-04_21h07.45.049,Serial_Dependence_U,2023.2.3,Win32,166.66666666666666,,,,,,64.8655,124,0,64.86560000014305,124,,,,68.61029999995232,69.09929999995232,68.10429999995232,68.61010000014305,65.86429999995232,68.10429999995232,69.09929999995232,69.5955,69.59560000014305,71.57020000004768,1681,71.57029999995231,5,72.571,0,7,7,27,1,1.2,0.7,Time
,,064995,001,男,21,2025-06-04_21h07.45.049,Serial_Dependence_U,2023.2.3,Win32,166.66666666666666,,,,,,72.57120000004768,87,0,72.57129999995232,87,,,,76.51629999995231,77.01320000004769,76.01160000014305,76.51629999995231,73.579,76.0115,77.01320000004769,77.51440000009536,77.51440000009536,79.57160000014305,1769,79.57160000014305,4,80.56340000009537,0,8,8,8,1,1.4,0.7,Time
,,064995,001,男,21,2025-06-04_21h07.45.049,Serial_Dependence_U,2023.2.3,Win32,166.66666666666666,,,,,,80.56370000004769,245,0,80.56390000009537,245,,,,84.11379999995232,84.61240000009536,83.60479999995232,84.11379999995232,81.56470000004768,83.60470000004769,84.61240000009536,85.10860000014306,85.10879999995231,86.709,1210,86.70910000014305,4,87.71170000004768,0,9,9,16,1,1,0.7,Time
,,064995,001,男,21,2025-06-04_21h07.45.049,Serial_Dependence_U,2023.2.3,Win32,166.66666666666666,,,,,,87.71220000004769,127,0,87.71220000004769,127,,,,91.88820000004769,92.38460000014305,91.3815,91.88810000014306,88.71610000014306,91.3815,92.38460000014305,92.88729999995232,92.88729999995232,94.64560000014305,1484,94.64560000014305,2,95.63829999995231,0,10,10,14,1,1.6,0.3,Time
,,064995,001,男,21,2025-06-04_21h07.45.049,Serial_Dependence_U,2023.2.3,Win32,166.66666666666666,,,,,,95.63840000009537,41,0,95.63840000009537,41,,,,99.57920000004768,100.07929999995231,99.07160000014305,99.57920000004768,96.6385,99.07160000014305,100.07940000009536,100.57690000009536,100.57690000009536,102.45100000000001,1474,102.45100000000001,4,103.4472999999523,0,11,11,18,1,1.4,0.7,Time
,,064995,001,男,21,2025-06-04_21h07.45.049,Serial_Dependence_U,2023.2.3,Win32,166.66666666666666,,,,,,103.4475,124,0,103.44760000014305,124,,,,107.22360000014304,107.72170000004768,106.72099999999999,107.22360000014304,104.45429999995231,106.72099999999999,107.72170000004768,108.21960000014305,108.21960000014305,109.09020000004769,558,109.09020000004769,1,110.08579999995233,0,12,12,22,1,1.2,0.3,Time
,,064995,001,男,21,2025-06-04_21h07.45.049,Serial_Dependence_U,2023.2.3,Win32,166.66666666666666,,,,,,110.0862000000477,189,0,110.08629999995232,189,,,,113.86540000009536,114.36340000009535,113.35760000014305,113.86529999995231,111.09490000009536,113.3575,114.36340000009535,114.8635,114.8635,117.40920000004768,2036,117.40920000004768,5,118.41220000004769,0,13,13,12,1,1.2,0.3,Time
,,064995,001,男,21,2025-06-04_21h07.45.049,Serial_Dependence_U,2023.2.3,Win32,166.66666666666666,,,,,,118.41250000000001,33,0,118.41260000014306,33,,,,122.58990000009537,123.08820000004768,122.081,122.58990000009537,119.41490000009536,122.08090000009535,123.08829999995233,123.58670000004768,123.5867999999523,124.59070000004768,795,124.59070000004768,1,125.58760000014304,0,14,14,24,1,1.6,0.3,Time
,,064995,001,男,21,2025-06-04_21h07.45.049,Serial_Dependence_U,2023.2.3,Win32,166.66666666666666,,,,,,125.58779999995231,30,0,125.58790000009536,30,,,,129.1747000000477,129.6775,128.66810000014306,129.17460000014307,126.59479999995231,128.668,129.67760000014306,130.17829999995234,130.17829999995234,131.98190000009538,1412,131.98190000009538,5,132.98479999995234,0,15,15,1,1,1,0.3,Time
,,064995,001,男,21,2025-06-04_21h07.45.049,Serial_Dependence_U,2023.2.3,Win32,166.66666666666666,,,,,,132.985,325,0,132.98510000014306,325,,,,136.3495,136.8485,135.84390000009537,136.3495,133.9792000000477,135.84379999995232,136.8485,137.34929999995234,137.34929999995234,138.62260000014305,843,138.6227000000477,4,139.61979999995233,0,16,16,20,1,0.8,0.3,Time
,,064995,001,男,21,2025-06-04_21h07.45.049,Serial_Dependence_U,2023.2.3,Win32,166.66666666666666,,,,,,139.62010000014305,69,0,139.6202000000477,69,,,,143.60310000014306,144.10010000014307,143.0969000000954,143.603,140.62760000014308,143.0969000000954,144.10010000014307,144.59829999995233,144.59829999995233,145.98329999995232,967,145.98340000009537,1,146.98000000000002,0,17,17,3,1,1.4,0.3,Time
,,064995,001,男,21,2025-06-04_21h07.45.049,Serial_Dependence_U,2023.2.3,Win32,166.66666666666666,,,,,,146.9804000000954,98,0,146.9805,98,,,,150.95879999995233,151.45829999995232,150.45040000009539,150.95879999995233,147.98600000000002,150.45040000009539,151.4584000000954,151.95910000014305,151.9592000000477,154.191,1596,154.191,4,155.18860000014305,0,18,18,23,1,1.4,0.3,Time
,,064995,001,男,21,2025-06-04_21h07.45.049,Serial_Dependence_U,2023.2.3,Win32,166.66666666666666,,,,,,155.18900000000002,298,0,155.18910000014307,298,,,,158.7307000000477,159.2307000000477,158.2264000000954,158.73060000014306,156.1882000000477,158.22629999995232,159.23079999995232,159.73110000014307,159.73110000014307,162.44400000000002,1211,162.44400000000002,4,163.44060000014306,0,19,19,26,1,1,0.7,Time
,,064995,001,男,21,2025-06-04_21h07.45.049,Serial_Dependence_U,2023.2.3,Win32,166.66666666666666,,,,,,163.44110000014305,23,0,163.4412000000477,23,,,,167.5892000000477,168.09029999995232,167.0824000000954,167.58910000014308,164.4445,167.08229999995234,168.09029999995232,168.5909000000954,168.5909000000954,170.78429999995234,1667,170.78429999995234,3,171.78410000014307,0,20,20,19,1,1.6,0.7,Time
,,064995,001,男,21,2025-06-04_21h07.45.049,Serial_Dependence_U,2023.2.3,Win32,166.66666666666666,,,,,,171.78429999995234,301,0,171.7844000000954,301,,,,175.35740000009537,175.85729999995232,174.852,175.35740000009537,172.7904000000954,174.85190000009538,175.85740000009537,176.35310000014306,176.3532000000477,177.73529999995233,945,177.73540000009538,2,178.7314000000954,0,21,21,11,1,1,0.3,Time
,,064995,001,男,21,2025-06-04_21h07.45.049,Serial_Dependence_U,2023.2.3,Win32,166.66666666666666,,,,,,178.73160000014306,300,0,178.7317000000477,300,,,,182.11550000000003,182.61300000000003,181.6064000000954,182.11540000009538,179.7409000000954,181.60629999995234,182.61300000000003,183.1115,183.11160000014306,184.697,1217,184.697,5,185.69010000014308,0,22,22,0,1,0.8,0.3,Time
,,064995,001,男,21,2025-06-04_21h07.45.049,Serial_Dependence_U,2023.2.3,Win32,166.66666666666666,,,,,,185.69050000000001,350,0,185.69060000014306,350,,,,189.82360000014307,190.31940000009538,189.31740000009538,189.82350000000002,186.68679999995234,189.31729999995233,190.3195,190.81629999995232,190.81650000000002,192.69710000014305,1445,192.69710000014305,2,193.68900000000002,0,23,23,9,1,1.6,0.7,Time
,,064995,001,男,21,2025-06-04_21h07.45.049,Serial_Dependence_U,2023.2.3,Win32,166.66666666666666,,,,,,193.6895,49,0,193.6895,49,,,,197.8685,198.3682000000477,197.36529999995233,197.8684000000954,194.69679999995233,197.3652000000477,198.3682000000477,198.86810000014307,198.8682000000477,202.2142000000477,1151,202.2142000000477,2,203.2135,0,24,24,4,1,1.6,0.3,Time
,,064995,001,男,21,2025-06-04_21h07.45.049,Serial_Dependence_U,2023.2.3,Win32,166.66666666666666,,,,,,203.21379999995233,68,0,203.21390000009538,68,,,,206.5507000000477,207.04729999995234,206.0487000000477,206.5507000000477,204.21379999995233,206.0487000000477,207.0474000000954,207.54700000000003,207.54710000014308,209.06629999995232,1084,209.06640000009537,5,210.06900000000002,0,25,25,25,1,0.8,0.7,Time
,,064995,001,男,21,2025-06-04_21h07.45.049,Serial_Dependence_U,2023.2.3,Win32,166.66666666666666,,,,,,210.06940000009538,63,0,210.0695,63,,,,213.61779999995233,214.1137000000477,213.11,213.61779999995233,211.07770000004768,213.11,214.11379999995233,214.61010000014306,214.61010000014306,216.43610000014306,1288,216.4362000000477,4,217.4395,0,26,26,6,1,1,0.7,Time
,,064995,001,男,21,2025-06-04_21h07.45.049,Serial_Dependence_U,2023.2.3,Win32,166.66666666666666,,,,,,217.43990000009538,286,0,217.44000000000003,286,,,,221.5787000000477,222.0765,221.0732000000477,221.57860000014307,218.44000000000003,221.07310000014306,222.07660000014306,222.57910000014306,222.5792000000477,224.66940000009538,1703,224.66940000009538,4,225.66340000009538,0,27,27,29,1,1.6,0.7,Time
,,064995,001,男,21,2025-06-04_21h07.45.049,Serial_Dependence_U,2023.2.3,Win32,166.66666666666666,,,,,,225.66379999995232,305,0,225.66400000000002,305,,,,229.04590000009537,229.54240000009537,228.53729999995232,229.04579999995232,226.67020000004769,228.5372000000477,229.54250000000002,230.04229999995232,230.04240000009537,247.6012000000477,1675,247.6012000000477,5,248.6035,0,28,28,10,1,0.8,0.3,Time
,,064995,001,男,21,2025-06-04_21h07.45.049,Serial_Dependence_U,2023.2.3,Win32,166.66666666666666,,,,,,248.60379999995234,149,0,248.60400000000004,149,,,,252.3484000000954,252.8487000000477,251.84550000000002,252.3482999999523,249.61390000009538,251.84540000009537,252.8487000000477,253.34729999995233,253.34740000009538,255.39029999995233,1240,255.39029999995233,3,256.39179999995235,0,29,29,17,1,1.2,0.7,Time
,,064995,001,男,21,2025-06-04_21h07.45.049,Serial_Dependence_U,2023.2.3,Win32,166.66666666666666,,,,,,256.39210000014305,4,1,274.3332000000477,4,s,17.92140000009539,,278.1041000001431,278.60379999995234,277.6014000000954,278.1041000001431,275.3372000000477,277.6014000000954,278.6039000000954,279.0955,279.0955,281.2777999999523,1533,281.27790000009537,4,281.28229999995233,1,0,30,12,1,1.2,0.3,Time
,,064995,001,男,21,2025-06-04_21h07.45.049,Serial_Dependence_U,2023.2.3,Win32,166.66666666666666,,,,,,281.2824000000954,95,1,281.283,95,,,,285.22700000000003,285.7226000001431,284.7227000000477,285.2269000000954,282.2869000000954,284.7227000000477,285.7227000000477,286.21500000000003,286.21500000000003,288.67810000014305,1921,288.67810000014305,5,288.6825,1,1,31,28,1,1.4,0.7,Time
,,064995,001,男,21,2025-06-04_21h07.45.049,Serial_Dependence_U,2023.2.3,Win32,166.66666666666666,,,,,,288.6827000000477,190,1,288.6827000000477,190,,,,292.2225,292.7219000000954,291.7155,292.2224000000954,289.6791000001431,291.7155,292.7219000000954,293.2227000000477,293.2227000000477,295.375,1710,295.37510000014305,5,295.37979999995235,1,2,32,16,1,1,0.7,Time
,,064995,001,男,21,2025-06-04_21h07.45.049,Serial_Dependence_U,2023.2.3,Win32,166.66666666666666,,,,,,295.38,351,1,295.38010000014305,351,,,,299.31979999995235,299.8159000000954,298.81510000014305,299.3197000000477,296.3787000000477,298.815,299.81600000000003,300.31729999995235,300.31729999995235,302.40950000000004,1650,302.4096000001431,4,302.4142000000477,1,3,33,8,1,1.4,0.7,Time
,,064995,001,男,21,2025-06-04_21h07.45.049,Serial_Dependence_U,2023.2.3,Win32,166.66666666666666,,,,,,302.4144000000954,146,1,302.41450000000003,146,,,,306.5592000000477,307.05690000009537,306.05129999995233,306.5591000001431,303.41829999995235,306.0512000000477,307.05690000009537,307.5537000000477,307.5537000000477,310.1394000000954,2200,310.1394000000954,5,310.14429999995235,1,4,34,29,1,1.6,0.7,Time
,,064995,001,男,21,2025-06-04_21h07.45.049,Serial_Dependence_U,2023.2.3,Win32,166.66666666666666,,,,,,310.1445,0,1,310.14460000014304,0,,,,313.70910000014305,314.20640000009536,313.2051000001431,313.70910000014305,311.1392000000477,313.20500000000004,314.2065,314.7079000000954,314.708,316.47129999995235,473,316.47129999995235,1,316.4755,1,5,35,1,1,1,0.3,Time
,,064995,001,男,21,2025-06-04_21h07.45.049,Serial_Dependence_U,2023.2.3,Win32,166.66666666666666,,,,,,316.4757000000477,29,1,316.47579999995236,29,,,,320.216,320.7119000000954,319.71500000000003,320.216,317.4834000000954,319.71479999995233,320.7119000000954,321.20910000014305,321.2092000000477,323.26779999995233,1583,323.26779999995233,5,323.2727000000477,1,6,36,7,1,1.2,0.7,Time
,,064995,001,男,21,2025-06-04_21h07.45.049,Serial_Dependence_U,2023.2.3,Win32,166.66666666666666,,,,,,323.2727999999523,94,1,323.2729000000954,94,,,,327.45050000000003,327.9499000000954,326.93940000009536,327.45050000000003,324.2757000000477,326.93940000009536,327.9499000000954,328.4456000001431,328.4457000000477,329.79290000009536,859,329.793,1,329.79760000014306,1,7,37,14,1,1.6,0.3,Time
,,064995,001,男,21,2025-06-04_21h07.45.049,Serial_Dependence_U,2023.2.3,Win32,166.66666666666666,,,,,,329.7977999999523,54,1,329.7977999999523,54,,,,333.16360000014305,333.6662000000477,332.65879999995235,333.1635,330.7952000000477,332.6587000000477,333.66629999995234,334.1622999999523,334.1622999999523,336.415,1803,336.41510000014307,5,336.42060000014305,1,8,38,20,1,0.8,0.3,Time
,,064995,001,男,21,2025-06-04_21h07.45.049,Serial_Dependence_U,2023.2.3,Win32,166.66666666666666,,,,,,336.42079999995235,161,1,336.42079999995235,161,,,,340.3997000000477,340.896,339.8955,340.39960000014304,337.43010000014306,339.89529999995233,340.896,341.396,341.396,344.0294000000954,2085,344.0294000000954,5,344.03429999995234,1,9,39,13,1,1.4,0.3,Time
,,064995,001,男,21,2025-06-04_21h07.45.049,Serial_Dependence_U,2023.2.3,Win32,166.66666666666666,,,,,,344.03450000000004,215,1,344.03450000000004,215,,,,347.367,347.86279999995236,346.8602999999523,347.367,345.0277000000477,346.8602999999523,347.8629000000954,348.3635,348.36360000014304,350.1107000000477,1310,350.1107000000477,5,350.11529999995236,1,10,40,25,1,0.8,0.7,Time
,,064995,001,男,21,2025-06-04_21h07.45.049,Serial_Dependence_U,2023.2.3,Win32,166.66666666666666,,,,,,350.1155,127,1,350.11560000014305,127,,,,354.29290000009536,354.78950000000003,353.7839000000954,354.2927999999523,351.11990000009536,353.78379999995235,354.78950000000003,355.2889000000954,355.2889000000954,356.47790000009536,620,356.478,1,356.4821000001431,1,11,41,4,1,1.6,0.3,Time
,,064995,001,男,21,2025-06-04_21h07.45.049,Serial_Dependence_U,2023.2.3,Win32,166.66666666666666,,,,,,356.48240000009537,20,1,356.48240000009537,20,,,,359.8306000001431,360.3262999999523,359.3177000000477,359.8306000001431,357.4822000000477,359.31760000014305,360.3262999999523,360.8276000001431,360.8276000001431,361.87350000000004,644,361.87350000000004,2,361.87779999995234,1,12,42,15,1,0.8,0.7,Time
,,064995,001,男,21,2025-06-04_21h07.45.049,Serial_Dependence_U,2023.2.3,Win32,166.66666666666666,,,,,,361.878,284,1,361.878,284,,,,366.01679999995235,366.51640000009536,365.5145,366.0167000000477,362.87779999995234,365.5144000000954,366.51640000009536,367.0179000000954,367.01800000000003,369.365,1809,369.365,4,369.3697000000477,1,13,43,9,1,1.6,0.7,Time
,,064995,001,男,21,2025-06-04_21h07.45.049,Serial_Dependence_U,2023.2.3,Win32,166.66666666666666,,,,,,369.36990000009536,227,1,369.37,227,,,,373.34229999995233,373.84160000014305,372.8402000000477,373.3421000001431,370.3742000000477,372.8401000001431,373.84160000014305,374.34179999995234,374.3419000000954,376.18460000014306,1273,376.1847000000477,2,376.1892000000477,1,14,44,23,1,1.4,0.3,Time
,,064995,001,男,21,2025-06-04_21h07.45.049,Serial_Dependence_U,2023.2.3,Win32,166.66666666666666,,,,,,376.18940000009536,225,1,376.1895,225,,,,379.73490000009537,380.2367999999523,379.228,379.73490000009537,377.196,379.228,380.2369000000954,380.7422000000477,380.7422999999523,390.32840000009537,1615,390.32840000009537,5,390.3335,1,15,45,26,1,1,0.7,Time
,,064995,001,男,21,2025-06-04_21h07.45.049,Serial_Dependence_U,2023.2.3,Win32,166.66666666666666,,,,,,390.33360000014306,348,1,390.3337000000477,348,,,,394.2634000000954,394.7622000000477,393.76260000014304,394.2632999999523,391.3319000000954,393.7625,394.7622000000477,395.25779999995234,395.25779999995234,397.8112000000477,1777,397.8112999999523,4,397.81640000009537,1,16,46,18,1,1.4,0.7,Time
,,064995,001,男,21,2025-06-04_21h07.45.049,Serial_Dependence_U,2023.2.3,Win32,166.66666666666666,,,,,,397.81660000014307,205,1,397.8167000000477,205,,,,401.1592000000477,401.65860000014305,400.65090000009536,401.1592000000477,398.81800000000004,400.6507999999523,401.65860000014305,402.159,402.15910000014304,409.02479999995234,1682,409.02479999995234,5,409.0294000000954,1,17,47,5,1,0.8,0.7,Time
,,064995,001,男,21,2025-06-04_21h07.45.049,Serial_Dependence_U,2023.2.3,Win32,166.66666666666666,,,,,,409.0296000001431,88,1,409.0296000001431,88,,,,412.3935,412.8932999999523,411.8924000000954,412.39340000009537,410.0267000000477,411.89229999995234,412.89340000009537,413.3899000000954,413.3899000000954,415.0845,1028,415.0845,4,415.08879999995236,1,18,48,10,1,0.8,0.3,Time
,,064995,001,男,21,2025-06-04_21h07.45.049,Serial_Dependence_U,2023.2.3,Win32,166.66666666666666,,,,,,415.0889000000954,297,1,415.08910000014305,297,,,,418.85040000009536,419.35079999995236,418.34410000014304,418.85040000009536,416.10860000014304,418.34410000014304,419.35079999995236,419.8472000000477,419.8472000000477,421.88479999995235,1517,421.8849000000954,4,421.8899000000954,1,19,49,17,1,1.2,0.7,Time
,,064995,001,男,21,2025-06-04_21h07.45.049,Serial_Dependence_U,2023.2.3,Win32,166.66666666666666,,,,,,421.89,265,1,421.8901000001431,265,,,,425.43979999995236,425.9399000000954,424.9282000000477,425.43979999995236,422.89300000000003,424.9282000000477,425.9399000000954,426.44,426.44010000014305,428.2892000000477,1423,428.2892000000477,5,428.29360000014304,1,20,50,6,1,1,0.7,Time
,,064995,001,男,21,2025-06-04_21h07.45.049,Serial_Dependence_U,2023.2.3,Win32,166.66666666666666,,,,,,428.29379999995234,192,1,428.29379999995234,192,,,,431.8697000000477,432.36740000009536,431.3647000000477,431.86960000014307,429.2989000000954,431.36460000014307,432.3675,432.8679000000954,432.8679000000954,435.6362999999523,2290,435.6362999999523,5,435.6407000000477,1,21,51,21,1,1,0.3,Time
,,064995,001,男,21,2025-06-04_21h07.45.049,Serial_Dependence_U,2023.2.3,Win32,166.66666666666666,,,,,,435.64090000009537,75,1,435.64090000009537,75,,,,439.41200000000003,439.90910000014304,438.91,439.4119000000954,436.6495,438.91,439.9092000000477,440.4057000000477,440.4057000000477,441.7636000001431,951,441.7636000001431,2,441.7679000000954,1,22,52,22,1,1.2,0.3,Time
,,064995,001,男,21,2025-06-04_21h07.45.049,Serial_Dependence_U,2023.2.3,Win32,166.66666666666666,,,,,,441.76800000000003,3,1,441.7681000001431,3,,,,445.151,445.6521000001431,444.64300000000003,445.15090000009536,442.7755,444.64300000000003,445.6521000001431,446.1501000001431,446.1501000001431,448.17379999995234,1473,448.1739000000954,5,448.17829999995234,1,23,53,0,1,0.8,0.3,Time
,,064995,001,男,21,2025-06-04_21h07.45.049,Serial_Dependence_U,2023.2.3,Win32,166.66666666666666,,,,,,448.1784000000954,338,1,448.17850000000004,338,,,,452.325,452.8262999999523,451.8212999999523,452.32479999995235,449.1812000000477,451.8212000000477,452.8262999999523,453.3236000001431,453.3237000000477,455.17010000014307,1731,455.1702000000477,4,455.1747000000477,1,24,54,19,1,1.6,0.7,Time
,,064995,001,男,21,2025-06-04_21h07.45.049,Serial_Dependence_U,2023.2.3,Win32,166.66666666666666,,,,,,455.17490000009536,177,1,455.17490000009536,177,,,,458.91,459.4122000000477,458.4076000001431,458.9099000000954,456.172,458.4076000001431,459.4122000000477,459.9092000000477,459.90929999995234,462.41879999995234,1584,462.41879999995234,5,462.4235,1,25,55,27,1,1.2,0.7,Time
,,064995,001,男,21,2025-06-04_21h07.45.049,Serial_Dependence_U,2023.2.3,Win32,166.66666666666666,,,,,,462.42379999995234,208,1,462.42379999995234,208,,,,465.9932000000477,466.4929000000954,465.4911000001431,465.9932000000477,463.4244000000954,465.49100000000004,466.4929000000954,466.9922999999523,466.99240000009536,468.20300000000003,954,468.2031000001431,3,468.208,1,26,56,11,1,1,0.3,Time
,,064995,001,男,21,2025-06-04_21h07.45.049,Serial_Dependence_U,2023.2.3,Win32,166.66666666666666,,,,,,468.2082000000477,233,1,468.2082000000477,233,,,,471.9764000000954,472.4699000000954,471.469,471.9762000000477,469.20779999995233,471.469,472.47,472.96810000014307,472.9682000000477,474.8097999999523,1412,474.8097999999523,4,474.8137999999523,1,27,57,2,1,1.2,0.3,Time
,,064995,001,男,21,2025-06-04_21h07.45.049,Serial_Dependence_U,2023.2.3,Win32,166.66666666666666,,,,,,474.8139000000954,254,1,474.814,254,,,,478.9837000000477,479.4817000000477,478.4784000000954,478.9835,475.815,478.47829999995236,479.4817000000477,479.97760000014307,479.97760000014307,503.150600000143,1151,503.1507000000477,2,503.1552000000477,1,28,58,24,1,1.6,0.3,Time
,,064995,001,男,21,2025-06-04_21h07.45.049,Serial_Dependence_U,2023.2.3,Win32,166.66666666666666,,,,,,503.1554000000954,204,1,503.1555,204,,,,507.13590000009543,507.6334000000954,506.6232999999523,507.13590000009543,504.1606000001431,506.6232000000477,507.6334000000954,508.13370000004767,508.13370000004767,509.01429999995236,863,509.01429999995236,1,509.01870000004766,1,29,59,3,1,1.4,0.3,Time
,,064995,001,男,21,2025-06-04_21h07.45.049,Serial_Dependence_U,2023.2.3,Win32,166.66666666666666,,,,,,509.01890000009536,131,2,510.907,131,s,1.8802999999522854,,514.6469999999999,515.1447999999523,514.1462000000477,514.6469000000953,511.9154000000954,514.1461000001431,515.1447999999523,515.644100000143,515.6442000000476,519.4107000000477,2777,519.4107000000477,5,519.4162000000476,2,0,60,27,1,1.2,0.7,Time
,,064995,001,男,21,2025-06-04_21h07.45.049,Serial_Dependence_U,2023.2.3,Win32,166.66666666666666,,,,,,519.4164000000953,350,2,519.4172000000476,350,,,,523.5654999999999,524.061600000143,523.061600000143,523.5654000000953,520.4289000000953,523.0614999999999,524.061600000143,524.5617999999523,524.5619000000953,526.7334000000953,1766,526.7334000000953,4,526.7379999999999,2,1,61,9,1,1.6,0.7,Time
,,064995,001,男,21,2025-06-04_21h07.45.049,Serial_Dependence_U,2023.2.3,Win32,166.66666666666666,,,,,,526.738100000143,131,2,526.7382999999522,131,,,,530.525100000143,531.0211000001431,530.0215,530.525,527.7492000000476,530.0215,531.0212000000477,531.5182000000476,531.5182000000476,538.4109000000954,1682,538.4109000000954,5,538.4152999999523,2,2,62,22,1,1.2,0.3,Time
,,064995,001,男,21,2025-06-04_21h07.45.049,Serial_Dependence_U,2023.2.3,Win32,166.66666666666666,,,,,,538.4156000001431,194,2,538.4156000001431,194,,,,541.9629000000954,542.4557999999523,541.4544999999999,541.9629000000954,539.4192999999523,541.4544999999999,542.4559000000953,542.952600000143,542.952600000143,551.6552999999523,297,551.6552999999523,1,551.66,2,3,63,26,1,1,0.7,Time
,,064995,001,男,21,2025-06-04_21h07.45.049,Serial_Dependence_U,2023.2.3,Win32,166.66666666666666,,,,,,551.6602000000477,353,2,551.6602000000477,353,,,,555.8019000000953,556.300600000143,555.299600000143,555.8017999999523,552.664600000143,555.2994000000954,556.3007000000476,556.802600000143,556.802600000143,570.6714999999999,1576,570.6714999999999,3,570.6757000000476,2,4,64,19,1,1.6,0.7,Time
,,064995,001,男,21,2025-06-04_21h07.45.049,Serial_Dependence_U,2023.2.3,Win32,166.66666666666666,,,,,,570.6759000000953,288,2,570.6759999999999,288,,,,574.6217999999523,575.118600000143,574.1194999999999,574.6217000000477,571.6837999999523,574.1194999999999,575.118600000143,575.6157000000477,575.6157000000477,577.9799000000953,936,577.9799999999999,1,577.9842999999523,2,5,65,18,1,1.4,0.7,Time
,,064995,001,男,21,2025-06-04_21h07.45.049,Serial_Dependence_U,2023.2.3,Win32,166.66666666666666,,,,,,577.9844999999999,162,2,577.9844999999999,162,,,,581.5654999999999,582.065600000143,581.0567000000476,581.5654999999999,578.9897999999523,581.056600000143,582.065600000143,582.5662000000476,582.5662999999523,584.9159000000953,53,584.9159999999999,1,584.9214999999999,2,6,66,1,1,1,0.3,Time
,,064995,001,男,21,2025-06-04_21h07.45.049,Serial_Dependence_U,2023.2.3,Win32,166.66666666666666,,,,,,584.9217000000476,64,2,584.9217999999523,64,,,,588.680100000143,589.176100000143,588.1712000000476,588.680100000143,585.9347999999522,588.171100000143,589.1762000000476,589.672100000143,589.672100000143,593.036,1587,593.036,5,593.0402999999523,2,7,67,17,1,1.2,0.7,Time
,,064995,001,男,21,2025-06-04_21h07.45.049,Serial_Dependence_U,2023.2.3,Win32,166.66666666666666,,,,,,593.0405,303,2,593.0406000001431,303,,,,596.3767999999523,596.8767999999523,595.8712999999523,596.3767000000477,594.0377000000476,595.8712000000477,596.8769000000954,597.377,597.3771000001431,598.8715,1070,598.8715,5,598.875600000143,2,8,68,5,1,0.8,0.7,Time
,,064995,001,男,21,2025-06-04_21h07.45.049,Serial_Dependence_U,2023.2.3,Win32,166.66666666666666,,,,,,598.8757000000477,227,2,598.8757999999523,227,,,,602.8397999999522,603.3389000000954,602.3387999999522,602.839600000143,599.875600000143,602.3387999999522,603.3389000000954,603.8354999999999,603.835600000143,604.3122999999523,119,604.3124000000953,1,604.3167999999523,2,9,69,23,1,1.4,0.3,Time
,,064995,001,男,21,2025-06-04_21h07.45.049,Serial_Dependence_U,2023.2.3,Win32,166.66666666666666,,,,,,604.317,149,2,604.317100000143,149,,,,608.0882000000477,608.5892000000476,607.5844000000953,608.0882000000477,605.3162999999523,607.5842999999522,608.5892000000476,609.0892000000476,609.0892000000476,609.9489000000954,89,609.949,1,609.9539000000954,2,10,70,12,1,1.2,0.3,Time
,,064995,001,男,21,2025-06-04_21h07.45.049,Serial_Dependence_U,2023.2.3,Win32,166.66666666666666,,,,,,609.9542000000476,300,2,609.9542000000476,300,,,,613.4929000000953,613.9897000000476,612.9852999999523,613.4927999999522,610.9539000000954,612.9852000000476,613.9897000000476,614.4904000000953,614.490600000143,615.893100000143,982,615.893100000143,3,615.8974000000953,2,11,71,16,1,1,0.7,Time
,,064995,001,男,21,2025-06-04_21h07.45.049,Serial_Dependence_U,2023.2.3,Win32,166.66666666666666,,,,,,615.897600000143,196,2,615.8977000000476,196,,,,619.4744000000953,619.9699999999999,618.9689999999999,619.4742999999522,616.9087000000476,618.9689999999999,619.970100000143,620.468100000143,620.468100000143,621.836,450,621.836100000143,1,621.840100000143,2,12,72,21,1,1,0.3,Time
,,064995,001,男,21,2025-06-04_21h07.45.049,Serial_Dependence_U,2023.2.3,Win32,166.66666666666666,,,,,,621.8402999999523,135,2,621.8402999999523,135,,,,625.2102000000476,625.709,624.7049999999999,625.2102000000476,622.8407999999523,624.7049000000953,625.709,626.2099999999999,626.2099999999999,627.2829000000953,89,627.2829000000953,1,627.2869000000953,2,13,73,20,1,0.8,0.3,Time
,,064995,001,男,21,2025-06-04_21h07.45.049,Serial_Dependence_U,2023.2.3,Win32,166.66666666666666,,,,,,627.287100000143,257,2,627.2872000000476,257,,,,631.259600000143,631.7612000000477,630.7554000000953,631.2595,628.289600000143,630.7552999999523,631.7612000000477,632.2574999999999,632.257600000143,632.6329000000953,354,632.6329000000953,1,632.637,2,14,74,3,1,1.4,0.3,Time
,,064995,001,男,21,2025-06-04_21h07.45.049,Serial_Dependence_U,2023.2.3,Win32,166.66666666666666,,,,,,632.637100000143,267,2,632.637100000143,267,,,,636.615,637.1114000000953,636.1124000000954,636.6149000000953,633.649,636.1124000000954,637.1114000000953,637.6124000000954,637.6125,638.2729000000953,182,638.2729000000953,1,638.2772000000476,2,15,75,13,1,1.4,0.3,Time
,,064995,001,男,21,2025-06-04_21h07.45.049,Serial_Dependence_U,2023.2.3,Win32,166.66666666666666,,,,,,638.2774000000953,133,2,638.2774000000953,133,,,,642.043600000143,642.5442999999523,641.5432999999523,642.043600000143,639.2794000000953,641.5432000000476,642.5442999999523,643.0449000000954,643.0449000000954,644.4402000000476,1285,644.4402999999522,4,644.4444000000954,2,16,76,2,1,1.2,0.3,Time
,,064995,001,男,21,2025-06-04_21h07.45.049,Serial_Dependence_U,2023.2.3,Win32,166.66666666666666,,,,,,644.444600000143,161,2,644.4447000000476,161,,,,648.5922000000477,649.0914000000953,648.0899000000953,648.592100000143,645.4492000000477,648.0897999999522,649.0914000000953,649.591600000143,649.591600000143,651.8379000000954,1959,651.8379000000954,4,651.8424000000954,2,17,77,29,1,1.6,0.7,Time
,,064995,001,男,21,2025-06-04_21h07.45.049,Serial_Dependence_U,2023.2.3,Win32,166.66666666666666,,,,,,651.842600000143,37,2,651.8427000000477,37,,,,655.779100000143,656.2769000000953,655.2779999999999,655.779100000143,652.8444999999999,655.2779000000953,656.2769000000953,656.7752000000477,656.7752000000477,659.3852999999523,1631,659.3854000000953,4,659.3899000000953,2,18,78,28,1,1.4,0.7,Time
,,064995,001,男,21,2025-06-04_21h07.45.049,Serial_Dependence_U,2023.2.3,Win32,166.66666666666666,,,,,,659.3902000000477,211,2,659.3902999999523,211,,,,662.9404999999999,663.4372000000476,662.4372999999523,662.9404999999999,660.4024000000953,662.4372999999523,663.4372000000476,663.9367000000476,663.9367000000476,665.1952000000476,419,665.1952999999522,1,665.1995,2,19,79,6,1,1,0.7,Time
,,064995,001,男,21,2025-06-04_21h07.45.049,Serial_Dependence_U,2023.2.3,Win32,166.66666666666666,,,,,,665.1999000000953,148,2,665.1999999999999,148,,,,669.385100000143,669.8855,668.876600000143,669.385,666.2129000000954,668.876600000143,669.8855,670.3855,670.3855,702.6772000000476,176,702.6772999999523,1,702.6819000000953,2,20,80,24,1,1.6,0.3,Time
,,064995,001,男,21,2025-06-04_21h07.45.049,Serial_Dependence_U,2023.2.3,Win32,166.66666666666666,,,,,,702.6822000000476,74,2,702.6822000000476,74,,,,706.8467000000477,707.3457000000476,706.345600000143,706.846600000143,703.6842999999523,706.3454999999999,707.3457000000476,707.846,707.846100000143,715.2757000000477,894,715.2757000000477,1,715.28,2,21,81,4,1,1.6,0.3,Time
,,064995,001,男,21,2025-06-04_21h07.45.049,Serial_Dependence_U,2023.2.3,Win32,166.66666666666666,,,,,,715.2802000000477,168,2,715.2802999999523,168,,,,718.619100000143,719.118600000143,718.1187000000476,718.619100000143,716.286100000143,718.1187000000476,719.118600000143,719.6142999999523,719.6142999999523,722.1197000000476,326,722.1197000000476,1,722.1237999999523,2,22,82,25,1,0.8,0.7,Time
,,064995,001,男,21,2025-06-04_21h07.45.049,Serial_Dependence_U,2023.2.3,Win32,166.66666666666666,,,,,,722.1239000000953,240,2,722.1239999999999,240,,,,725.4964000000954,725.9972999999522,724.987100000143,725.4962999999523,723.1222999999522,724.987,725.9972999999522,726.4944999999999,726.494600000143,727.461100000143,487,727.461100000143,1,727.465100000143,2,23,83,0,1,0.8,0.3,Time
,,064995,001,男,21,2025-06-04_21h07.45.049,Serial_Dependence_U,2023.2.3,Win32,166.66666666666666,,,,,,727.4652999999523,6,2,727.4652999999523,6,,,,731.6362999999523,732.1357999999523,731.1317999999522,731.6362000000477,728.4704999999999,731.131600000143,732.1357999999523,732.6327000000476,732.6327999999522,744.9957000000477,1274,744.9957000000477,2,745.0007999999523,2,24,84,14,1,1.6,0.3,Time
,,064995,001,男,21,2025-06-04_21h07.45.049,Serial_Dependence_U,2023.2.3,Win32,166.66666666666666,,,,,,745.001,228,2,745.001100000143,228,,,,748.7505,749.2479000000953,748.2482999999522,748.7504000000953,746.006,748.2482000000476,749.2479999999999,749.7447999999523,749.7449000000953,752.020600000143,1828,752.020600000143,5,752.025,2,25,85,7,1,1.2,0.7,Time
,,064995,001,男,21,2025-06-04_21h07.45.049,Serial_Dependence_U,2023.2.3,Win32,166.66666666666666,,,,,,752.0252000000477,6,2,752.0252000000477,6,,,,755.4047000000477,755.9035,754.9012999999522,755.404600000143,753.0314000000953,754.9012000000477,755.9035,756.4024000000953,756.4024000000953,758.937600000143,2001,758.937600000143,5,758.9417999999523,2,26,86,10,1,0.8,0.3,Time
,,064995,001,男,21,2025-06-04_21h07.45.049,Serial_Dependence_U,2023.2.3,Win32,166.66666666666666,,,,,,758.9419000000953,232,2,758.942,232,,,,762.2874000000953,762.7859000000954,761.7842999999523,762.2872999999523,759.9439000000954,761.7842999999523,762.786,763.2864999999999,763.286600000143,765.427600000143,1644,765.427600000143,5,765.4317000000476,2,27,87,15,1,0.8,0.7,Time
,,064995,001,男,21,2025-06-04_21h07.45.049,Serial_Dependence_U,2023.2.3,Win32,166.66666666666666,,,,,,765.4317999999523,112,2,765.4319000000953,112,,,,769,769.4964000000954,768.4982999999522,769,766.4375,768.4982999999522,769.4964000000954,769.9949000000953,769.995,778.168100000143,854,778.1682000000476,2,778.172600000143,2,28,88,11,1,1,0.3,Time
,,064995,001,男,21,2025-06-04_21h07.45.049,Serial_Dependence_U,2023.2.3,Win32,166.66666666666666,,,,,,778.1727000000476,118,2,778.1727999999523,118,,,,782.1257000000477,782.6267999999523,781.620100000143,782.125600000143,779.1832000000477,781.620100000143,782.6267999999523,783.1267999999523,783.1269000000954,784.6939000000954,555,784.6939000000954,1,784.698,2,29,89,8,1,1.4,0.7,Time
,,064995,001,男,21,2025-06-04_21h07.45.049,Serial_Dependence_U,2023.2.3,Win32,166.66666666666666,,,,,,784.6982000000477,248,3,803.1819000000953,248,s,18.47199999999998,,806.5247000000477,807.024100000143,806.0222000000476,806.5247000000477,804.186100000143,806.022100000143,807.024100000143,807.5237999999523,807.5239000000953,808.722600000143,835,808.7227000000477,3,808.7267999999523,3,0,90,15,1,0.8,0.7,Time
,,064995,001,男,21,2025-06-04_21h07.45.049,Serial_Dependence_U,2023.2.3,Win32,166.66666666666666,,,,,,808.727,100,3,808.727600000143,100,,,,812.111,812.609100000143,811.6097999999523,812.1109000000953,809.7417999999523,811.6097999999523,812.609100000143,813.1105,813.110600000143,813.802100000143,100,813.802100000143,1,813.806100000143,3,1,91,10,1,0.8,0.3,Time
,,064995,001,男,21,2025-06-04_21h07.45.049,Serial_Dependence_U,2023.2.3,Win32,166.66666666666666,,,,,,813.8062999999523,318,3,813.8064000000953,318,,,,817.7707000000477,818.2689000000953,817.2627999999522,817.7707000000477,814.8019999999999,817.262600000143,818.269,818.7634000000953,818.7634000000953,820.643100000143,1602,820.643100000143,4,820.647100000143,3,2,92,13,1,1.4,0.3,Time
,,064995,001,男,21,2025-06-04_21h07.45.049,Serial_Dependence_U,2023.2.3,Win32,166.66666666666666,,,,,,820.6472999999522,119,3,820.6472999999522,119,,,,824.4237000000477,824.922100000143,823.9209000000953,824.423600000143,821.659100000143,823.9207999999522,824.922100000143,825.4244000000954,825.4244000000954,827.9562000000476,1611,827.9562999999523,5,827.9615,3,3,93,12,1,1.2,0.3,Time
,,064995,001,男,21,2025-06-04_21h07.45.049,Serial_Dependence_U,2023.2.3,Win32,166.66666666666666,,,,,,827.961600000143,200,3,827.9617000000476,200,,,,831.5139000000953,832.011,831.0052999999523,831.5137999999523,828.9727000000477,831.0052999999523,832.011100000143,832.512,832.512,834.7555,1605,834.755600000143,5,834.7597999999523,3,4,94,16,1,1,0.7,Time
,,064995,001,男,21,2025-06-04_21h07.45.049,Serial_Dependence_U,2023.2.3,Win32,166.66666666666666,,,,,,834.76,144,3,834.760100000143,144,,,,838.5032000000476,839.0042000000476,837.9982000000476,838.5032000000476,835.7629999999999,837.9982000000476,839.0042000000476,839.4997999999523,839.5,841.6222999999522,1720,841.6224000000954,5,841.6267999999523,3,5,95,17,1,1.2,0.7,Time
,,064995,001,男,21,2025-06-04_21h07.45.049,Serial_Dependence_U,2023.2.3,Win32,166.66666666666666,,,,,,841.627,67,3,841.627,67,,,,845.3772000000477,845.8724000000954,844.8675,845.3772000000477,842.6317999999522,844.8675,845.8724000000954,846.369100000143,846.3692000000476,849.5,1656,849.5,5,849.504600000143,3,6,96,7,1,1.2,0.7,Time
,,064995,001,男,21,2025-06-04_21h07.45.049,Serial_Dependence_U,2023.2.3,Win32,166.66666666666666,,,,,,849.5047999999523,331,3,849.5049000000953,331,,,,853.0419999999999,853.5332000000476,852.5385,853.0419999999999,850.5032000000476,852.5384000000953,853.5332000000476,854.0282999999523,854.0284000000953,855.746,1167,855.746,4,855.750600000143,3,7,97,6,1,1,0.7,Time
,,064995,001,男,21,2025-06-04_21h07.45.049,Serial_Dependence_U,2023.2.3,Win32,166.66666666666666,,,,,,855.7507999999523,160,3,855.7507999999523,160,,,,859.1377000000476,859.6294000000953,858.6344000000953,859.137600000143,856.7649000000953,858.6342999999523,859.6294000000953,860.123600000143,860.1237000000476,861.3624000000954,543,861.3625,1,861.366600000143,3,8,98,0,1,0.8,0.3,Time
,,064995,001,男,21,2025-06-04_21h07.45.049,Serial_Dependence_U,2023.2.3,Win32,166.66666666666666,,,,,,861.3667999999523,119,3,861.3667999999523,119,,,,865.3114000000953,865.8095,864.7994000000954,865.3112999999523,862.366600000143,864.7992000000477,865.8096000001431,866.3074000000953,866.3074000000953,868.9647000000476,1811,868.9647000000476,4,868.969100000143,3,9,99,28,1,1.4,0.7,Time
,,064995,001,男,21,2025-06-04_21h07.45.049,Serial_Dependence_U,2023.2.3,Win32,166.66666666666666,,,,,,868.9692000000476,167,3,868.9692999999522,167,,,,872.516100000143,873.0172000000476,872.0092000000476,872.5157999999523,869.9702999999523,872.0092000000476,873.0172999999522,873.515,873.515100000143,875.8702999999523,1694,875.8704000000953,5,875.874600000143,3,10,100,26,1,1,0.7,Time
,,064995,001,男,21,2025-06-04_21h07.45.049,Serial_Dependence_U,2023.2.3,Win32,166.66666666666666,,,,,,875.8747000000476,35,3,875.8749000000953,35,,,,879.6414000000954,880.1387999999523,879.1347000000476,879.6414000000954,876.873100000143,879.134600000143,880.1387999999523,880.6379000000953,880.6379000000953,881.4167000000476,708,881.4167000000476,1,881.4207999999522,3,11,101,2,1,1.2,0.3,Time
,,064995,001,男,21,2025-06-04_21h07.45.049,Serial_Dependence_U,2023.2.3,Win32,166.66666666666666,,,,,,881.4209000000953,140,3,881.4209999999999,140,,,,884.7669000000953,885.2632999999523,884.258100000143,884.7669000000953,882.4262999999522,884.2579000000953,885.2632999999523,885.7612999999523,885.7612999999523,886.7624000000953,523,886.7624000000953,1,886.7667000000476,3,12,102,25,1,0.8,0.7,Time
,,064995,001,男,21,2025-06-04_21h07.45.049,Serial_Dependence_U,2023.2.3,Win32,166.66666666666666,,,,,,886.7667999999522,193,3,886.7669000000953,193,,,,890.9407000000476,891.431600000143,890.435600000143,890.9407000000476,887.7722999999522,890.435600000143,891.4317000000476,891.929600000143,891.9297000000477,895.0327000000476,2454,895.0327000000476,5,895.0374000000953,3,13,103,24,1,1.6,0.3,Time
,,064995,001,男,21,2025-06-04_21h07.45.049,Serial_Dependence_U,2023.2.3,Win32,166.66666666666666,,,,,,895.037600000143,258,3,895.0377999999523,258,,,,898.4127000000476,898.908600000143,897.9119999999999,898.4127000000476,896.0459000000953,897.9119000000953,898.908600000143,899.406600000143,899.406600000143,901.2847999999523,1660,901.2847999999523,5,901.2887999999523,3,14,104,20,1,0.8,0.3,Time
,,064995,001,男,21,2025-06-04_21h07.45.049,Serial_Dependence_U,2023.2.3,Win32,166.66666666666666,,,,,,901.289,98,3,901.289100000143,98,,,,905.4262999999522,905.9302999999522,904.9249000000954,905.4262000000476,902.2909999999999,904.9247999999523,905.9302999999522,906.4287999999523,906.4287999999523,909.2819000000953,2277,909.2819999999999,5,909.2864000000953,3,15,105,19,1,1.6,0.7,Time
,,064995,001,男,21,2025-06-04_21h07.45.049,Serial_Dependence_U,2023.2.3,Win32,166.66666666666666,,,,,,909.2864999999999,200,3,909.2864999999999,200,,,,913.029100000143,913.528100000143,912.525100000143,913.029,910.2924999999999,912.525100000143,913.528100000143,914.0282000000476,914.0282000000476,916.6502999999523,1720,916.6504000000954,5,916.654600000143,3,16,106,27,1,1.2,0.7,Time
,,064995,001,男,21,2025-06-04_21h07.45.049,Serial_Dependence_U,2023.2.3,Win32,166.66666666666666,,,,,,916.6547000000477,43,3,916.6547999999523,43,,,,920.4302999999522,920.929100000143,919.9247000000477,920.430100000143,917.662600000143,919.924600000143,920.929100000143,921.4249000000954,921.4249000000954,923.5559000000953,139,923.5559999999999,1,923.5602000000476,3,17,107,22,1,1.2,0.3,Time
,,064995,001,男,21,2025-06-04_21h07.45.049,Serial_Dependence_U,2023.2.3,Win32,166.66666666666666,,,,,,923.5602999999522,302,3,923.5604000000953,302,,,,927.1279999999999,927.6244000000953,926.6265,927.1279000000953,924.564,926.6265,927.6244000000953,928.1257999999523,928.1257999999523,930.1182000000476,1640,930.1182000000476,5,930.1232999999522,3,18,108,21,1,1,0.3,Time
,,064995,001,男,21,2025-06-04_21h07.45.049,Serial_Dependence_U,2023.2.3,Win32,166.66666666666666,,,,,,930.1234999999999,31,3,930.1234999999999,31,,,,933.6954000000953,934.1912000000476,933.1894000000954,933.6954000000953,931.1259000000953,933.1892999999523,934.1912000000476,934.6887000000477,934.6887999999523,943.5775,78,943.577600000143,1,943.5832000000477,3,19,109,11,1,1,0.3,Time
,,064995,001,男,21,2025-06-04_21h07.45.049,Serial_Dependence_U,2023.2.3,Win32,166.66666666666666,,,,,,943.5834000000954,169,3,943.5836000001431,169,,,,947.515,948.0134999999999,947.0147000000477,947.515,944.5834000000954,947.014600000143,948.0134999999999,948.510600000143,948.510600000143,950.2782999999523,1699,950.2782999999523,4,950.282600000143,3,20,110,18,1,1.4,0.7,Time
,,064995,001,男,21,2025-06-04_21h07.45.049,Serial_Dependence_U,2023.2.3,Win32,166.66666666666666,,,,,,950.2827999999523,223,3,950.2829000000953,223,,,,954.2297000000476,954.7282999999522,953.7247000000476,954.2297000000476,951.2894000000953,953.7247000000476,954.7282999999522,955.2242000000476,955.2242000000476,958.002600000143,1749,958.002600000143,4,958.007,3,21,111,8,1,1.4,0.7,Time
,,064995,001,男,21,2025-06-04_21h07.45.049,Serial_Dependence_U,2023.2.3,Win32,166.66666666666666,,,,,,958.0072000000476,232,3,958.0072999999522,232,,,,962.1472000000476,962.6477000000476,961.640600000143,962.1472000000476,959.009600000143,961.640600000143,962.6477000000476,963.144100000143,963.144100000143,965.390100000143,1351,965.390100000143,2,965.3961000001431,3,22,112,9,1,1.6,0.7,Time
,,064995,001,男,21,2025-06-04_21h07.45.049,Serial_Dependence_U,2023.2.3,Win32,166.66666666666666,,,,,,965.3964000000954,188,3,965.3965,188,,,,969.5717000000476,970.0707999999523,969.0659000000953,969.571600000143,966.3957999999523,969.0659000000953,970.0707999999523,970.571100000143,970.571100000143,983.347,800,983.347,1,983.3515,3,23,113,14,1,1.6,0.3,Time
,,064995,001,男,21,2025-06-04_21h07.45.049,Serial_Dependence_U,2023.2.3,Win32,166.66666666666666,,,,,,983.3517000000477,140,3,983.3517999999523,140,,,,986.6977000000477,987.1985,986.1962999999523,986.697600000143,984.3565,986.1962000000476,987.1985,987.6994000000954,987.6995,988.9019000000953,819,988.9019000000953,3,988.9062999999522,3,24,114,5,1,0.8,0.7,Time
,,064995,001,男,21,2025-06-04_21h07.45.049,Serial_Dependence_U,2023.2.3,Win32,166.66666666666666,,,,,,988.9064999999999,130,3,988.9064999999999,130,,,,993.0527999999523,993.5532999999523,992.552100000143,993.0527999999523,989.915,992.552100000143,993.5534000000953,994.0507999999522,994.0507999999522,995.3961000001431,1154,995.3961000001431,2,995.4002000000477,3,25,115,29,1,1.6,0.7,Time
,,064995,001,男,21,2025-06-04_21h07.45.049,Serial_Dependence_U,2023.2.3,Win32,166.66666666666666,,,,,,995.4004000000954,270,3,995.4005,270,,,,999.3672000000474,999.8604999999998,998.8622000000476,999.367100000143,996.4014999999999,998.8621000001428,999.860600000143,1000.3587999999522,1000.3587999999522,1003.9422999999522,2969,1003.9422999999522,5,1003.9469000000952,3,26,116,3,1,1.4,0.3,Time
,,064995,001,男,21,2025-06-04_21h07.45.049,Serial_Dependence_U,2023.2.3,Win32,166.66666666666666,,,,,,1003.9471000001429,99,3,1003.9471000001429,99,,,,1007.5207999999523,1008.0172000000475,1007.0167000000474,1007.5207000000476,1004.9447000000475,1007.0167000000474,1008.0172000000475,1008.5137000000475,1008.5137000000475,1012.2526000001428,1880,1012.2526000001428,5,1012.2572999999522,3,27,117,1,1,1,0.3,Time
,,064995,001,男,21,2025-06-04_21h07.45.049,Serial_Dependence_U,2023.2.3,Win32,166.66666666666666,,,,,,1012.2574999999999,215,3,1012.2574999999999,215,,,,1016.4329999999998,1016.9297999999521,1015.9287999999522,1016.4329999999998,1013.2626000001428,1015.9287000000475,1016.9297999999521,1017.4289999999999,1017.4289999999999,1035.7136000001428,569,1035.7136000001428,1,1035.7182000000475,3,28,118,4,1,1.6,0.3,Time
,,064995,001,男,21,2025-06-04_21h07.45.049,Serial_Dependence_U,2023.2.3,Win32,166.66666666666666,,,,,,1035.7184000000952,127,3,1035.7185,127,,,,1039.6939000000953,1040.189600000143,1039.1879000000952,1039.6937000000476,1036.7267000000475,1039.1879000000952,1040.189600000143,1040.6904000000952,1040.6904000000952,1042.687299999952,1319,1042.687299999952,2,1042.6912999999522,3,29,119,23,1,1.4,0.3,Time
,,064995,001,男,21,2025-06-04_21h07.45.049,Serial_Dependence_U,2023.2.3,Win32,166.66666666666666,,,,,,1042.6915,166,4,1056.1577999999522,166,s,13.454400000095575,,1059.492100000143,1059.9924000000951,1058.9899999999998,1059.4919000000953,1057.158299999952,1058.9899000000953,1059.9924000000951,1060.4912000000475,1060.4912000000475,1061.7599000000953,825,1061.7599000000953,3,1061.764,4,0,120,25,1,0.8,0.7,Time
,,064995,001,男,21,2025-06-04_21h07.45.049,Serial_Dependence_U,2023.2.3,Win32,166.66666666666666,,,,,,1061.7642000000476,233,4,1061.7649000000952,233,,,,1065.5414999999998,1066.0404000000951,1065.0352000000476,1065.541400000095,1062.7727000000475,1065.0351000001428,1066.0404000000951,1066.5362000000475,1066.5362000000475,1068.8227000000475,1242,1068.8227999999522,3,1068.8274000000952,4,1,121,12,1,1.2,0.3,Time
,,064995,001,男,21,2025-06-04_21h07.45.049,Serial_Dependence_U,2023.2.3,Win32,166.66666666666666,,,,,,1068.8276000001429,74,4,1068.8276000001429,74,,,,1072.1894000000952,1072.6867999999522,1071.6866000001428,1072.1892999999523,1069.820100000143,1071.6864999999998,1072.6867999999522,1073.188299999952,1073.188299999952,1074.5972999999522,1024,1074.5974000000951,4,1074.601600000143,4,2,122,20,1,0.8,0.3,Time
,,064995,001,男,21,2025-06-04_21h07.45.049,Serial_Dependence_U,2023.2.3,Win32,166.66666666666666,,,,,,1074.6017000000475,43,4,1074.6017999999522,43,,,,1078.1784000000953,1078.6746000001428,1077.6719000000953,1078.178299999952,1075.6057000000476,1077.671799999952,1078.6746000001428,1079.176299999952,1079.176299999952,1080.505600000143,572,1080.505600000143,1,1080.5099999999998,4,3,123,21,1,1,0.3,Time
,,064995,001,男,21,2025-06-04_21h07.45.049,Serial_Dependence_U,2023.2.3,Win32,166.66666666666666,,,,,,1080.510100000143,260,4,1080.5102000000475,260,,,,1084.6522000000475,1085.1444000000952,1084.1439999999998,1084.6521000001428,1081.5077000000476,1084.1439000000953,1085.1444000000952,1085.6409999999998,1085.6409999999998,1088.5921000001429,1982,1088.5921000001429,4,1088.5967000000476,4,4,124,19,1,1.6,0.7,Time
,,064995,001,男,21,2025-06-04_21h07.45.049,Serial_Dependence_U,2023.2.3,Win32,166.66666666666666,,,,,,1088.5969000000953,41,4,1088.5969999999998,41,,,,1092.537600000143,1093.0337999999522,1092.0322000000476,1092.5375,1089.5969999999998,1092.0322000000476,1093.0337999999522,1093.5297000000476,1093.5297000000476,1101.3162999999522,1120,1101.3162999999522,2,1101.3212000000476,4,5,125,8,1,1.4,0.7,Time
,,064995,001,男,21,2025-06-04_21h07.45.049,Serial_Dependence_U,2023.2.3,Win32,166.66666666666666,,,,,,1101.3214000000953,148,4,1101.3214000000953,148,,,,1105.2964000000952,1105.7932000000476,1104.7957999999521,1105.2962000000475,1102.327799999952,1104.7957000000474,1105.7932000000476,1106.2897000000476,1106.2897000000476,1113.7537999999522,1105,1113.7537999999522,2,1113.7584000000952,4,6,126,3,1,1.4,0.3,Time
,,064995,001,男,21,2025-06-04_21h07.45.049,Serial_Dependence_U,2023.2.3,Win32,166.66666666666666,,,,,,1113.758600000143,231,4,1113.758600000143,231,,,,1117.1207999999522,1117.6169000000953,1116.6174000000951,1117.1207000000475,1114.7559000000952,1116.6174000000951,1117.6169000000953,1118.1182999999521,1118.1182999999521,1119.5114999999998,442,1119.5114999999998,1,1119.5157999999522,4,7,127,0,1,0.8,0.3,Time
,,064995,001,男,21,2025-06-04_21h07.45.049,Serial_Dependence_U,2023.2.3,Win32,166.66666666666666,,,,,,1119.5159000000951,4,4,1119.5159999999998,4,,,,1123.6839999999997,1124.1834999999999,1123.1774000000953,1123.6839000000953,1120.5157999999522,1123.1774000000953,1124.1834999999999,1124.6794999999997,1124.679600000143,1128.7304000000952,1015,1128.7304000000952,1,1128.7347000000475,4,8,128,24,1,1.6,0.3,Time
,,064995,001,男,21,2025-06-04_21h07.45.049,Serial_Dependence_U,2023.2.3,Win32,166.66666666666666,,,,,,1128.7349000000952,311,4,1128.7349000000952,311,,,,1132.483,1132.9827999999522,1131.9754999999998,1132.4829000000952,1129.7392999999522,1131.9754999999998,1132.9829000000952,1133.4834999999998,1133.4834999999998,1135.6837999999523,1618,1135.6837999999523,5,1135.6879999999999,4,9,129,7,1,1.2,0.7,Time
,,064995,001,男,21,2025-06-04_21h07.45.049,Serial_Dependence_U,2023.2.3,Win32,166.66666666666666,,,,,,1135.6882000000476,162,4,1135.688299999952,162,,,,1139.2424999999998,1139.7379999999998,1138.7387000000476,1139.2424999999998,1136.7017000000476,1138.738600000143,1139.7379999999998,1140.2392000000475,1140.2392999999522,1142.4782999999522,1749,1142.4782999999522,5,1142.4826000001428,4,10,130,16,1,1,0.7,Time
,,064995,001,男,21,2025-06-04_21h07.45.049,Serial_Dependence_U,2023.2.3,Win32,166.66666666666666,,,,,,1142.4827999999522,53,4,1142.4827999999522,53,,,,1146.261100000143,1146.762100000143,1145.758799999952,1146.261100000143,1143.4902999999522,1145.758799999952,1146.7622000000474,1147.2634999999998,1147.2634999999998,1152.8492000000476,1715,1152.8492000000476,5,1152.8534000000952,4,11,131,22,1,1.2,0.3,Time
,,064995,001,男,21,2025-06-04_21h07.45.049,Serial_Dependence_U,2023.2.3,Win32,166.66666666666666,,,,,,1152.8535,26,4,1152.853600000143,26,,,,1156.2002999999522,1156.701600000143,1155.6984999999997,1156.2002999999522,1153.8602000000476,1155.6984000000953,1156.701600000143,1157.1992000000475,1157.1992999999522,1161.9442999999521,1436,1161.9442999999521,5,1161.948600000143,4,12,132,15,1,0.8,0.7,Time
,,064995,001,男,21,2025-06-04_21h07.45.049,Serial_Dependence_U,2023.2.3,Win32,166.66666666666666,,,,,,1161.9487999999521,340,4,1161.9487999999521,340,,,,1165.5259000000951,1166.0227999999522,1165.0214000000951,1165.5257000000474,1162.9609000000953,1165.0214000000951,1166.0227999999522,1166.524600000143,1166.524600000143,1169.2934999999998,1223,1169.2934999999998,4,1169.2979000000953,4,13,133,11,1,1,0.3,Time
,,064995,001,男,21,2025-06-04_21h07.45.049,Serial_Dependence_U,2023.2.3,Win32,166.66666666666666,,,,,,1169.2979999999998,60,4,1169.298100000143,60,,,,1173.0344000000953,1173.5352000000476,1172.5322000000476,1173.034299999952,1170.2962000000475,1172.532100000143,1173.5352999999523,1174.0319000000952,1174.0319000000952,1182.6242999999522,1531,1182.6242999999522,4,1182.629299999952,4,14,134,27,1,1.2,0.7,Time
,,064995,001,男,21,2025-06-04_21h07.45.049,Serial_Dependence_U,2023.2.3,Win32,166.66666666666666,,,,,,1182.629600000143,329,4,1182.629600000143,329,,,,1186.7789000000953,1187.2707999999523,1186.2779000000953,1186.778799999952,1183.6404999999997,1186.2779000000953,1187.2709000000953,1187.7669999999998,1187.7669999999998,1190.2984999999999,1735,1190.2986000001429,4,1190.3034000000953,4,15,135,29,1,1.6,0.7,Time
,,064995,001,男,21,2025-06-04_21h07.45.049,Serial_Dependence_U,2023.2.3,Win32,166.66666666666666,,,,,,1190.303600000143,350,4,1190.303600000143,350,,,,1194.2432999999521,1194.744100000143,1193.7375,1194.2432000000476,1191.3071000001428,1193.7374000000952,1194.7442000000476,1195.2414999999999,1195.2416000001429,1197.2282999999522,1587,1197.2282999999522,4,1197.2334000000951,4,16,136,18,1,1.4,0.7,Time
,,064995,001,男,21,2025-06-04_21h07.45.049,Serial_Dependence_U,2023.2.3,Win32,166.66666666666666,,,,,,1197.2334999999998,161,4,1197.2336000001428,161,,,,1201.0027000000475,1201.5037000000475,1200.5024000000951,1201.0027000000475,1198.2362000000476,1200.5022999999521,1201.5037000000475,1202.0054000000953,1202.0054999999998,1204.3642999999522,1664,1204.3644000000952,5,1204.368400000095,4,17,137,2,1,1.2,0.3,Time
,,064995,001,男,21,2025-06-04_21h07.45.049,Serial_Dependence_U,2023.2.3,Win32,166.66666666666666,,,,,,1204.3687000000475,109,4,1204.3687000000475,109,,,,1208.5389999999998,1209.0349000000951,1208.0341000001429,1208.5389000000953,1205.3719000000951,1208.0339999999999,1209.0349000000951,1209.5327000000475,1209.5327000000475,1211.8932999999522,1924,1211.8932999999522,4,1211.898,4,18,138,14,1,1.6,0.3,Time
,,064995,001,男,21,2025-06-04_21h07.45.049,Serial_Dependence_U,2023.2.3,Win32,166.66666666666666,,,,,,1211.898299999952,195,4,1211.898299999952,195,,,,1215.2447000000475,1215.744,1214.7372999999523,1215.2447000000475,1212.9012000000475,1214.7372000000476,1215.744,1216.2427000000475,1216.2427999999522,1218.956600000143,1546,1218.956600000143,5,1218.960799999952,4,19,139,5,1,0.8,0.7,Time
,,064995,001,男,21,2025-06-04_21h07.45.049,Serial_Dependence_U,2023.2.3,Win32,166.66666666666666,,,,,,1218.9609999999998,184,4,1218.9609999999998,184,,,,1222.542100000143,1223.0384000000952,1222.032,1222.542,1219.9656000001428,1222.0319000000952,1223.0384000000952,1223.5379000000953,1223.5379999999998,1225.2596000001429,1355,1225.259799999952,5,1225.264100000143,4,20,140,1,1,1,0.3,Time
,,064995,001,男,21,2025-06-04_21h07.45.049,Serial_Dependence_U,2023.2.3,Win32,166.66666666666666,,,,,,1225.264299999952,139,4,1225.264299999952,139,,,,1229.0004999999999,1229.4967000000474,1228.499799999952,1229.0004999999999,1226.2681000001428,1228.499799999952,1229.4967999999521,1229.9957999999522,1229.9959000000952,1240.0674000000952,1178,1240.0674000000952,3,1240.0719000000952,4,21,141,17,1,1.2,0.7,Time
,,064995,001,男,21,2025-06-04_21h07.45.049,Serial_Dependence_U,2023.2.3,Win32,166.66666666666666,,,,,,1240.0721000001429,204,4,1240.0722000000476,204,,,,1243.6154999999999,1244.1122000000476,1243.109,1243.6154000000952,1241.071600000143,1243.109,1244.1122999999523,1244.609,1244.609100000143,1249.9504000000952,897,1249.9505,2,1249.9552000000476,4,22,142,6,1,1,0.7,Time
,,064995,001,男,21,2025-06-04_21h07.45.049,Serial_Dependence_U,2023.2.3,Win32,166.66666666666666,,,,,,1249.955299999952,62,4,1249.9554000000953,62,,,,1253.5024999999998,1254.003,1252.9947000000475,1253.5024999999998,1250.9577000000475,1252.9947000000475,1254.003100000143,1254.5002999999522,1254.5002999999522,1256.1709999999998,886,1256.1709999999998,2,1256.175100000143,4,23,143,26,1,1,0.7,Time
,,064995,001,男,21,2025-06-04_21h07.45.049,Serial_Dependence_U,2023.2.3,Win32,166.66666666666666,,,,,,1256.1752000000474,116,4,1256.1752999999521,116,,,,1259.5384999999999,1260.0377000000476,1259.0359000000951,1259.5384999999999,1257.1742000000474,1259.0357999999521,1260.0377000000476,1260.5399999999997,1260.5399999999997,1272.1664999999998,1389,1272.1664999999998,5,1272.1711000001428,4,24,144,10,1,0.8,0.3,Time
,,064995,001,男,21,2025-06-04_21h07.45.049,Serial_Dependence_U,2023.2.3,Win32,166.66666666666666,,,,,,1272.1712000000475,171,4,1272.1712000000475,171,,,,1276.1492000000476,1276.649299999952,1275.6449999999998,1276.1491000001429,1273.1774999999998,1275.6449999999998,1276.649299999952,1277.147100000143,1277.1472000000476,1280.6757999999522,1892,1280.6757999999522,5,1280.6804000000952,4,25,145,23,1,1.4,0.3,Time
,,064995,001,男,21,2025-06-04_21h07.45.049,Serial_Dependence_U,2023.2.3,Win32,166.66666666666666,,,,,,1280.680600000143,146,4,1280.6807000000476,146,,,,1284.853900000095,1285.3509999999999,1284.3514999999998,1284.8537999999521,1281.6852000000474,1284.3514999999998,1285.3509999999999,1285.8497000000475,1285.8497999999522,1289.7889000000953,1402,1289.7889999999998,2,1289.793600000143,4,26,146,4,1,1.6,0.3,Time
,,064995,001,男,21,2025-06-04_21h07.45.049,Serial_Dependence_U,2023.2.3,Win32,166.66666666666666,,,,,,1289.7937999999522,259,4,1289.7939000000952,259,,,,1293.743400000095,1294.2422000000474,1293.236299999952,1293.7432999999521,1290.8044999999997,1293.236299999952,1294.2422000000474,1294.743400000095,1294.743400000095,1297.0469999999998,1504,1297.0471000001428,4,1297.051400000095,4,27,147,28,1,1.4,0.7,Time
,,064995,001,男,21,2025-06-04_21h07.45.049,Serial_Dependence_U,2023.2.3,Win32,166.66666666666666,,,,,,1297.0517000000475,36,4,1297.0517000000475,36,,,,1301.2012000000475,1301.6994000000952,1300.6957000000475,1301.2011000001428,1298.0572999999522,1300.6957000000475,1301.6994000000952,1302.2011000001428,1302.2011000001428,1304.7704999999999,1798,1304.7704999999999,4,1304.7747999999522,4,28,148,9,1,1.6,0.7,Time
,,064995,001,男,21,2025-06-04_21h07.45.049,Serial_Dependence_U,2023.2.3,Win32,166.66666666666666,,,,,,1304.7749999999999,225,4,1304.7751000001429,225,,,,1308.753100000143,1309.250799999952,1308.2487000000476,1308.753,1305.7841000001429,1308.2487000000476,1309.2509000000953,1309.7479999999998,1309.7479999999998,1310.4747000000475,450,1310.4747999999522,1,1310.4792999999522,4,29,149,13,1,1.4,0.3,Time
,,064995,001,男,21,2025-06-04_21h07.45.049,Serial_Dependence_U,2023.2.3,Win32,166.66666666666666,,,,,,1310.479600000143,349,5,1355.8116000001428,349,s,45.320000000000164,,1359.581299999952,1360.0794000000951,1359.0789000000952,1359.581299999952,1356.8176000001429,1359.0789000000952,1360.0794999999998,1360.577799999952,1360.577799999952,1362.5109000000953,1589,1362.5109999999997,5,1362.515299999952,5,0,150,2,1,1.2,0.3,Time
,,064995,001,男,21,2025-06-04_21h07.45.049,Serial_Dependence_U,2023.2.3,Win32,166.66666666666666,,,,,,1362.5154999999997,266,5,1362.5167000000474,266,,,,1365.8652000000475,1366.3629000000951,1365.3566000001429,1365.865100000143,1363.5174000000952,1365.3564999999999,1366.3629000000951,1366.8599000000952,1366.8599000000952,1368.2439000000952,721,1368.244,2,1368.2479999999998,5,1,151,25,1,0.8,0.7,Time
,,064995,001,男,21,2025-06-04_21h07.45.049,Serial_Dependence_U,2023.2.3,Win32,166.66666666666666,,,,,,1368.2482000000475,291,5,1368.2482999999522,291,,,,1371.9914000000952,1372.4889999999998,1371.4857000000475,1371.9912999999522,1369.2517999999523,1371.485600000143,1372.4891000001428,1372.9852000000476,1372.985299999952,1375.584900000095,1509,1375.5849999999998,4,1375.589,5,2,152,17,1,1.2,0.7,Time
,,064995,001,男,21,2025-06-04_21h07.45.049,Serial_Dependence_U,2023.2.3,Win32,166.66666666666666,,,,,,1375.5892000000476,152,5,1375.5892999999521,152,,,,1378.965299999952,1379.464,1378.4567000000475,1378.965299999952,1376.5959000000953,1378.4564999999998,1379.464100000143,1379.961799999952,1379.9619000000953,1382.6987000000474,1464,1382.6987999999521,5,1382.7037000000475,5,3,153,10,1,0.8,0.3,Time
,,064995,001,男,21,2025-06-04_21h07.45.049,Serial_Dependence_U,2023.2.3,Win32,166.66666666666666,,,,,,1382.7039000000952,293,5,1382.704,293,,,,1386.6487000000475,1387.145100000143,1386.1409000000951,1386.648600000143,1383.7091000001428,1386.1407999999522,1387.145100000143,1387.643799999952,1387.6439000000953,1389.9349000000952,1845,1389.935,5,1389.9394000000952,5,4,154,8,1,1.4,0.7,Time
,,064995,001,男,21,2025-06-04_21h07.45.049,Serial_Dependence_U,2023.2.3,Win32,166.66666666666666,,,,,,1389.939600000143,282,5,1389.939600000143,282,,,,1393.5079999999998,1394.0072999999522,1393.004,1393.507799999952,1390.9389000000951,1393.0037999999522,1394.0074000000952,1394.5042000000476,1394.5042000000476,1397.2709000000953,1234,1397.2709000000953,4,1397.2761000001428,5,5,155,1,1,1,0.3,Time
,,064995,001,男,21,2025-06-04_21h07.45.049,Serial_Dependence_U,2023.2.3,Win32,166.66666666666666,,,,,,1397.2762999999522,223,5,1397.2764000000952,223,,,,1401.438299999952,1401.9352000000474,1400.937299999952,1401.4379999999999,1398.276600000143,1400.9372000000476,1401.9352999999521,1402.4325,1402.4325,1404.983,1518,1404.983100000143,2,1404.9875,5,6,156,14,1,1.6,0.3,Time
,,064995,001,男,21,2025-06-04_21h07.45.049,Serial_Dependence_U,2023.2.3,Win32,166.66666666666666,,,,,,1404.987600000143,15,5,1404.9877000000474,15,,,,1408.7271000001429,1409.2299999999998,1408.225,1408.7269999999999,1405.9937000000475,1408.225,1409.2299999999998,1409.729600000143,1409.7297000000476,1412.0434999999998,1715,1412.0434999999998,5,1412.048100000143,5,7,157,27,1,1.2,0.7,Time
,,064995,001,男,21,2025-06-04_21h07.45.049,Serial_Dependence_U,2023.2.3,Win32,166.66666666666666,,,,,,1412.0484000000952,171,5,1412.0484999999999,171,,,,1415.793600000143,1416.2949999999998,1415.2892000000475,1415.793600000143,1413.05,1415.2892000000475,1416.2949999999998,1416.7954000000952,1416.7955,1420.2924999999998,2200,1420.2926000001428,5,1420.2969999999998,5,8,158,7,1,1.2,0.7,Time
,,064995,001,男,21,2025-06-04_21h07.45.049,Serial_Dependence_U,2023.2.3,Win32,166.66666666666666,,,,,,1420.2972000000475,277,5,1420.2972000000475,277,,,,1424.072299999952,1424.5737000000474,1423.5669000000953,1424.072299999952,1421.298799999952,1423.566799999952,1424.5737999999521,1425.0724000000953,1425.0724000000953,1428.826799999952,1674,1428.826799999952,5,1428.8312000000476,5,9,159,12,1,1.2,0.3,Time
,,064995,001,男,21,2025-06-04_21h07.45.049,Serial_Dependence_U,2023.2.3,Win32,166.66666666666666,,,,,,1428.8314000000953,275,5,1428.8314000000953,275,,,,1432.4012000000475,1432.897400000095,1431.8937000000476,1432.4012000000475,1429.8312000000476,1431.893600000143,1432.8974999999998,1433.397,1433.397,1435.6825,1133,1435.6825,4,1435.6867999999522,5,10,160,11,1,1,0.3,Time
,,064995,001,男,21,2025-06-04_21h07.45.049,Serial_Dependence_U,2023.2.3,Win32,166.66666666666666,,,,,,1435.687,22,5,1435.687,22,,,,1439.624600000143,1440.125799999952,1439.121600000143,1439.624600000143,1436.690900000095,1439.1214999999997,1440.125799999952,1440.6234000000952,1440.6234000000952,1443.1242999999522,1858,1443.1242999999522,5,1443.1294000000953,5,11,161,28,1,1.4,0.7,Time
,,064995,001,男,21,2025-06-04_21h07.45.049,Serial_Dependence_U,2023.2.3,Win32,166.66666666666666,,,,,,1443.1294999999998,261,5,1443.129600000143,261,,,,1447.0799000000952,1447.5724000000953,1446.5734000000953,1447.0797000000475,1444.1317999999521,1446.5734000000953,1447.5724000000953,1448.0692999999521,1448.0692999999521,1450.171600000143,1552,1450.171600000143,4,1450.176,5,12,162,18,1,1.4,0.7,Time
,,064995,001,男,21,2025-06-04_21h07.45.049,Serial_Dependence_U,2023.2.3,Win32,166.66666666666666,,,,,,1450.1762000000476,42,5,1450.1762000000476,42,,,,1453.7557999999522,1454.257600000143,1453.2504999999999,1453.7557000000475,1451.1799000000951,1453.2504000000952,1454.2577000000476,1454.7522999999521,1454.7522999999521,1458.2134000000951,1664,1458.2134000000951,5,1458.2177000000474,5,13,163,21,1,1,0.3,Time
,,064995,001,男,21,2025-06-04_21h07.45.049,Serial_Dependence_U,2023.2.3,Win32,166.66666666666666,,,,,,1458.2179000000951,69,5,1458.2179000000951,69,,,,1462.3629000000951,1462.8604000000953,1461.8527000000474,1462.3629000000951,1459.2157999999522,1461.8527000000474,1462.8604000000953,1463.354799999952,1463.3549000000953,1466.9389999999999,2435,1466.9389999999999,5,1466.9434000000952,5,14,164,19,1,1.6,0.7,Time
,,064995,001,男,21,2025-06-04_21h07.45.049,Serial_Dependence_U,2023.2.3,Win32,166.66666666666666,,,,,,1466.9436000001429,145,5,1466.9436000001429,145,,,,1470.3259000000953,1470.8229999999999,1469.816600000143,1470.325799999952,1467.9537000000475,1469.8165,1470.8229999999999,1471.3197000000475,1471.3197999999522,1473.4891000001428,1395,1473.4891000001428,5,1473.4929000000952,5,15,165,20,1,0.8,0.3,Time
,,064995,001,男,21,2025-06-04_21h07.45.049,Serial_Dependence_U,2023.2.3,Win32,166.66666666666666,,,,,,1473.493100000143,229,5,1473.4932000000476,229,,,,1477.6681000001429,1478.166400000095,1477.1607000000474,1477.668,1474.500100000143,1477.1607000000474,1478.1664999999998,1478.6622999999522,1478.6622999999522,1480.4857999999522,1456,1480.4859000000952,2,1480.4906000001429,5,16,166,24,1,1.6,0.3,Time
,,064995,001,男,21,2025-06-04_21h07.45.049,Serial_Dependence_U,2023.2.3,Win32,166.66666666666666,,,,,,1480.490799999952,267,5,1480.490799999952,267,,,,1483.8314999999998,1484.3276000001429,1483.3299000000952,1483.8314000000953,1481.4944999999998,1483.3297999999522,1484.3276000001429,1484.825600000143,1484.825600000143,1487.1282000000476,1818,1487.1282000000476,5,1487.132799999952,5,17,167,15,1,0.8,0.7,Time
,,064995,001,男,21,2025-06-04_21h07.45.049,Serial_Dependence_U,2023.2.3,Win32,166.66666666666666,,,,,,1487.132900000095,192,5,1487.1331000001428,192,,,,1491.108100000143,1491.604600000143,1490.600299999952,1491.108100000143,1488.132600000143,1490.6002000000476,1491.6047000000476,1492.1029999999998,1492.1031000001428,1493.387400000095,923,1493.387400000095,1,1493.3921000001428,5,18,168,23,1,1.4,0.3,Time
,,064995,001,男,21,2025-06-04_21h07.45.049,Serial_Dependence_U,2023.2.3,Win32,166.66666666666666,,,,,,1493.3922999999522,229,5,1493.3922999999522,229,,,,1496.9454999999998,1497.4424999999999,1496.4415,1496.945400000095,1494.4011000001428,1496.4415,1497.4424999999999,1497.9482999999523,1497.9482999999523,1500.088100000143,1782,1500.088100000143,5,1500.0921000001429,5,19,169,26,1,1,0.7,Time
,,064995,001,男,21,2025-06-04_21h07.45.049,Serial_Dependence_U,2023.2.3,Win32,166.66666666666666,,,,,,1500.092299999952,156,5,1500.0924000000953,156,,,,1503.4337999999523,1503.9305,1502.9321000001428,1503.4337000000476,1501.0974999999999,1502.9321000001428,1503.930600000143,1504.427,1504.427,1506.7447999999522,1917,1506.7449000000952,5,1506.7492000000475,5,20,170,5,1,0.8,0.7,Time
,,064995,001,男,21,2025-06-04_21h07.45.049,Serial_Dependence_U,2023.2.3,Win32,166.66666666666666,,,,,,1506.7494000000952,235,5,1506.7495,235,,,,1510.7174000000953,1511.2147000000475,1510.2132000000474,1510.717299999952,1507.7424999999998,1510.2132000000474,1511.2147999999522,1511.7147999999522,1511.7149000000952,1512.4444000000951,474,1512.4444000000951,1,1512.4492999999522,5,21,171,13,1,1.4,0.3,Time
,,064995,001,男,21,2025-06-04_21h07.45.049,Serial_Dependence_U,2023.2.3,Win32,166.66666666666666,,,,,,1512.4495,273,5,1512.449600000143,273,,,,1516.595799999952,1517.0974999999999,1516.090100000143,1516.595799999952,1513.4557000000475,1516.090100000143,1517.0976000001428,1517.5952000000475,1517.5952000000475,1520.3407000000475,2239,1520.3407000000475,5,1520.3451000001428,5,22,172,29,1,1.6,0.7,Time
,,064995,001,男,21,2025-06-04_21h07.45.049,Serial_Dependence_U,2023.2.3,Win32,166.66666666666666,,,,,,1520.3452999999522,77,5,1520.3454000000952,77,,,,1523.9012999999522,1524.398299999952,1523.3922999999522,1523.9012000000475,1521.3499000000952,1523.3922999999522,1524.398299999952,1524.8999999999999,1524.9001000001429,1526.8667000000476,1572,1526.8667000000476,5,1526.8709999999999,5,23,173,6,1,1,0.7,Time
,,064995,001,男,21,2025-06-04_21h07.45.049,Serial_Dependence_U,2023.2.3,Win32,166.66666666666666,,,,,,1526.8712000000476,73,5,1526.8712999999523,73,,,,1531.0165,1531.516600000143,1530.5114000000951,1531.0164000000952,1527.8734000000952,1530.5114000000951,1531.5167000000474,1532.0154999999997,1532.0154999999997,1534.8764000000951,2441,1534.8764000000951,5,1534.8812999999523,5,24,174,9,1,1.6,0.7,Time
,,064995,001,男,21,2025-06-04_21h07.45.049,Serial_Dependence_U,2023.2.3,Win32,166.66666666666666,,,,,,1534.881600000143,203,5,1534.881600000143,203,,,,1538.2607000000476,1538.7579999999998,1537.755299999952,1538.2606000001429,1535.8874999999998,1537.7552000000476,1538.7579999999998,1539.2547000000475,1539.2547000000475,1540.165100000143,552,1540.165100000143,1,1540.1697999999521,5,25,175,0,1,0.8,0.3,Time
,,064995,001,男,21,2025-06-04_21h07.45.049,Serial_Dependence_U,2023.2.3,Win32,166.66666666666666,,,,,,1540.1699999999998,253,5,1540.1701000001428,253,,,,1543.715299999952,1544.2129999999997,1543.2107000000476,1543.7152000000476,1541.1767000000475,1543.2105,1544.2129999999997,1544.7132000000474,1544.7132000000474,1546.4669999999999,1444,1546.4669999999999,5,1546.4716000001429,5,26,176,16,1,1,0.7,Time
,,064995,001,男,21,2025-06-04_21h07.45.049,Serial_Dependence_U,2023.2.3,Win32,166.66666666666666,,,,,,1546.4719000000953,101,5,1546.4719999999998,101,,,,1550.6562000000474,1551.1501000001429,1550.1489000000952,1550.6562000000474,1547.4769000000952,1550.1489000000952,1551.1501000001429,1551.6476000001428,1551.6477000000475,1552.8897000000475,1164,1552.8897999999522,2,1552.8942999999522,5,27,177,4,1,1.6,0.3,Time
,,064995,001,男,21,2025-06-04_21h07.45.049,Serial_Dependence_U,2023.2.3,Win32,166.66666666666666,,,,,,1552.8944999999999,318,5,1552.8944999999999,318,,,,1556.6772000000476,1557.1782000000476,1556.1702999999522,1556.6772000000476,1553.9056000001428,1556.1702000000475,1557.178299999952,1557.674100000143,1557.674100000143,1558.9612000000475,935,1558.9612000000475,2,1558.9657000000475,5,28,178,22,1,1.2,0.3,Time
,,064995,001,男,21,2025-06-04_21h07.45.049,Serial_Dependence_U,2023.2.3,Win32,166.66666666666666,,,,,,1558.9657999999522,151,5,1558.9657999999522,151,,,,1562.9384999999997,1563.430600000143,1562.435100000143,1562.9384999999997,1559.966100000143,1562.435,1563.430600000143,1563.928600000143,1563.9287000000475,1564.7799000000953,841,1564.7799000000953,1,1564.7841000001429,5,29,179,3,1,1.4,0.3,Time
,,064995,001,男,21,2025-06-04_21h07.45.049,Serial_Dependence_U,2023.2.3,Win32,166.66666666666666,,,,,,1564.784299999952,135,6,1568.0752000000475,135,s,3.279499999999871,,1571.647,1572.147,1571.142600000143,1571.647,1569.0759999999998,1571.1425,1572.147100000143,1572.6404999999997,1572.6404999999997,1573.4194999999997,359,1573.419600000143,1,1573.4239999999998,6,0,180,11,1,1,0.3,Time
,,064995,001,男,21,2025-06-04_21h07.45.049,Serial_Dependence_U,2023.2.3,Win32,166.66666666666666,,,,,,1573.4242000000474,302,6,1573.425,302,,,,1577.199600000143,1577.6932999999522,1576.696299999952,1577.1995,1574.4292000000476,1576.6962000000476,1577.6932999999522,1578.1909999999998,1578.1909999999998,1579.8777999999522,1499,1579.8777999999522,4,1579.8819000000951,6,1,181,22,1,1.2,0.3,Time
,,064995,001,男,21,2025-06-04_21h07.45.049,Serial_Dependence_U,2023.2.3,Win32,166.66666666666666,,,,,,1579.8821000001428,173,6,1579.8821000001428,173,,,,1584.0574000000952,1584.556600000143,1583.5544999999997,1584.0572000000475,1580.8904999999997,1583.5544999999997,1584.556600000143,1585.0492999999522,1585.0494000000951,1586.112600000143,899,1586.112600000143,1,1586.1172000000474,6,2,182,24,1,1.6,0.3,Time
,,064995,001,男,21,2025-06-04_21h07.45.049,Serial_Dependence_U,2023.2.3,Win32,166.66666666666666,,,,,,1586.1174000000951,36,6,1586.1174000000951,36,,,,1589.889600000143,1590.3929000000953,1589.3857000000476,1589.8894999999998,1587.1187000000475,1589.3857000000476,1590.3929000000953,1590.8925,1590.8927000000476,1592.1699000000951,1049,1592.1699000000951,2,1592.1742000000474,6,3,183,12,1,1.2,0.3,Time
,,064995,001,男,21,2025-06-04_21h07.45.049,Serial_Dependence_U,2023.2.3,Win32,166.66666666666666,,,,,,1592.1744000000951,170,6,1592.1744000000951,170,,,,1595.9632999999521,1596.4601000001428,1595.4559000000952,1595.9632000000474,1593.1872000000476,1595.4557999999522,1596.4601000001428,1596.959799999952,1596.959799999952,1599.4677999999521,2063,1599.4679000000951,5,1599.4722999999522,6,4,184,2,1,1.2,0.3,Time
,,064995,001,男,21,2025-06-04_21h07.45.049,Serial_Dependence_U,2023.2.3,Win32,166.66666666666666,,,,,,1599.4724999999999,312,6,1599.4726000001428,312,,,,1603.2102000000475,1603.7084999999997,1602.707299999952,1603.2099999999998,1600.476600000143,1602.7072000000476,1603.7084999999997,1604.2047999999522,1604.2047999999522,1605.4147999999523,904,1605.4147999999523,2,1605.4192000000476,6,5,185,27,1,1.2,0.7,Time
,,064995,001,男,21,2025-06-04_21h07.45.049,Serial_Dependence_U,2023.2.3,Win32,166.66666666666666,,,,,,1605.4192999999523,308,6,1605.4194000000953,308,,,,1609.3622000000476,1609.8586000001428,1608.859100000143,1609.3619999999999,1606.4266000001428,1608.859,1609.8586000001428,1610.3549999999998,1610.3551000001428,1611.7034000000951,1259,1611.7034000000951,2,1611.7079000000952,6,6,186,8,1,1.4,0.7,Time
,,064995,001,男,21,2025-06-04_21h07.45.049,Serial_Dependence_U,2023.2.3,Win32,166.66666666666666,,,,,,1611.7079999999999,284,6,1611.7081000001428,284,,,,1615.6766000001428,1616.1787999999522,1615.1729000000953,1615.6766000001428,1612.7109000000953,1615.1729000000953,1616.1787999999522,1616.6749000000952,1616.675,1621.6537000000476,1529,1621.6537000000476,4,1621.6582000000476,6,7,187,3,1,1.4,0.3,Time
,,064995,001,男,21,2025-06-04_21h07.45.049,Serial_Dependence_U,2023.2.3,Win32,166.66666666666666,,,,,,1621.658600000143,17,6,1621.658600000143,17,,,,1625.4062999999521,1625.9025,1624.9029000000953,1625.4062000000474,1622.6677999999522,1624.902799999952,1625.902600000143,1626.3999999999999,1626.3999999999999,1628.8702000000476,1472,1628.8702000000476,4,1628.8742999999522,6,8,188,7,1,1.2,0.7,Time
,,064995,001,男,21,2025-06-04_21h07.45.049,Serial_Dependence_U,2023.2.3,Win32,166.66666666666666,,,,,,1628.8744000000952,53,6,1628.8744000000952,53,,,,1632.2547000000475,1632.7469999999998,1631.7482999999522,1632.2547000000475,1629.8757000000476,1631.7482000000475,1632.7469999999998,1633.244299999952,1633.244299999952,1638.3457000000476,902,1638.3457000000476,4,1638.3504000000953,6,9,189,0,1,0.8,0.3,Time
,,064995,001,男,21,2025-06-04_21h07.45.049,Serial_Dependence_U,2023.2.3,Win32,166.66666666666666,,,,,,1638.3507000000475,224,6,1638.3507000000475,224,,,,1641.697600000143,1642.1942999999521,1641.1821000001428,1641.6974000000953,1639.351600000143,1641.1821000001428,1642.1944000000951,1642.690799999952,1642.690900000095,1646.115100000143,1508,1646.1152000000475,5,1646.12,6,10,190,5,1,0.8,0.7,Time
,,064995,001,男,21,2025-06-04_21h07.45.049,Serial_Dependence_U,2023.2.3,Win32,166.66666666666666,,,,,,1646.120299999952,282,6,1646.120299999952,282,,,,1649.4609999999998,1649.9619999999998,1648.9592000000475,1649.4609000000953,1647.1214000000953,1648.9591000001428,1649.9619999999998,1650.4592000000475,1650.4592000000475,1651.6309999999999,815,1651.6309999999999,3,1651.6352999999522,6,11,191,25,1,0.8,0.7,Time
,,064995,001,男,21,2025-06-04_21h07.45.049,Serial_Dependence_U,2023.2.3,Win32,166.66666666666666,,,,,,1651.6354000000952,165,6,1651.6354999999999,165,,,,1655.7767000000476,1656.2747000000475,1655.2719000000952,1655.7767000000476,1652.6401000001429,1655.2719000000952,1656.2747000000475,1656.7741000001429,1656.7741000001429,1659.1597000000475,1937,1659.1597000000475,4,1659.163799999952,6,12,192,9,1,1.6,0.7,Time
,,064995,001,男,21,2025-06-04_21h07.45.049,Serial_Dependence_U,2023.2.3,Win32,166.66666666666666,,,,,,1659.164100000143,135,6,1659.164100000143,135,,,,1663.1322999999522,1663.6304999999998,1662.6262999999522,1663.1322999999522,1660.161799999952,1662.6262999999522,1663.6304999999998,1664.129600000143,1664.129600000143,1666.3231000001429,1177,1666.3231000001429,2,1666.328100000143,6,13,193,23,1,1.4,0.3,Time
,,064995,001,男,21,2025-06-04_21h07.45.049,Serial_Dependence_U,2023.2.3,Win32,166.66666666666666,,,,,,1666.3282999999522,296,6,1666.3284999999998,296,,,,1669.7074999999998,1670.2064000000953,1669.1989000000951,1669.7074000000953,1667.334799999952,1669.1989000000951,1670.2064999999998,1670.7084000000953,1670.7084000000953,1673.4354000000951,1826,1673.4354000000951,5,1673.4395,6,14,194,10,1,0.8,0.3,Time
,,064995,001,男,21,2025-06-04_21h07.45.049,Serial_Dependence_U,2023.2.3,Win32,166.66666666666666,,,,,,1673.4397000000474,171,6,1673.4397000000474,171,,,,1676.9814000000952,1677.4827000000475,1676.4809000000953,1676.9812999999522,1674.4471000001429,1676.480799999952,1677.4827999999522,1677.9836000001428,1677.9837000000475,1680.2062000000476,1366,1680.206299999952,5,1680.210799999952,6,15,195,26,1,1,0.7,Time
,,064995,001,男,21,2025-06-04_21h07.45.049,Serial_Dependence_U,2023.2.3,Win32,166.66666666666666,,,,,,1680.2109999999998,211,6,1680.211100000143,211,,,,1683.7542000000476,1684.2497000000476,1683.2514000000951,1683.754100000143,1681.208600000143,1683.2514000000951,1684.2497000000476,1684.7529000000952,1684.753,1687.4442000000474,1508,1687.4442000000474,5,1687.4484000000953,6,16,196,16,1,1,0.7,Time
,,064995,001,男,21,2025-06-04_21h07.45.049,Serial_Dependence_U,2023.2.3,Win32,166.66666666666666,,,,,,1687.448600000143,286,6,1687.448600000143,286,,,,1691.5949999999998,1692.091600000143,1691.0922000000476,1691.5949000000953,1688.456,1691.0921000001429,1692.091600000143,1692.591,1692.591,1694.982100000143,1951,1694.982100000143,4,1694.986600000143,6,17,197,19,1,1.6,0.7,Time
,,064995,001,男,21,2025-06-04_21h07.45.049,Serial_Dependence_U,2023.2.3,Win32,166.66666666666666,,,,,,1694.9867999999522,231,6,1694.9869000000951,231,,,,1698.5512000000476,1699.0471000001428,1698.0449000000951,1698.5512000000476,1695.9819999999997,1698.0447999999521,1699.0472000000475,1699.546799999952,1699.546799999952,1701.1309999999999,1034,1701.1311000001429,3,1701.1352000000475,6,18,198,21,1,1,0.3,Time
,,064995,001,男,21,2025-06-04_21h07.45.049,Serial_Dependence_U,2023.2.3,Win32,166.66666666666666,,,,,,1701.1354999999999,163,6,1701.1354999999999,163,,,,1705.3134000000953,1705.8096000001428,1704.8037000000475,1705.313299999952,1702.1319999999998,1704.8037000000475,1705.8096000001428,1706.305900000095,1706.305900000095,1708.1819999999998,1348,1708.1821000001428,2,1708.1864999999998,6,19,199,14,1,1.6,0.3,Time
,,064995,001,男,21,2025-06-04_21h07.45.049,Serial_Dependence_U,2023.2.3,Win32,166.66666666666666,,,,,,1708.1867999999522,291,6,1708.1869000000952,291,,,,1711.7347000000475,1712.2326000001428,1711.2267999999522,1711.7347000000475,1709.1852000000474,1711.2267000000475,1712.2326000001428,1712.7297000000476,1712.729799999952,1713.714,669,1713.714,1,1713.7179999999998,6,20,200,6,1,1,0.7,Time
,,064995,001,男,21,2025-06-04_21h07.45.049,Serial_Dependence_U,2023.2.3,Win32,166.66666666666666,,,,,,1713.7182000000475,257,6,1713.7182999999523,257,,,,1717.08,1717.576799999952,1716.5772000000475,1717.0799000000952,1714.7164000000953,1716.577100000143,1717.576799999952,1718.0774999999999,1718.0774999999999,1719.0264000000952,896,1719.0265,4,1719.031,6,21,201,20,1,0.8,0.3,Time
,,064995,001,男,21,2025-06-04_21h07.45.049,Serial_Dependence_U,2023.2.3,Win32,166.66666666666666,,,,,,1719.0312000000474,186,6,1719.0312999999521,186,,,,1722.9734000000951,1723.470799999952,1722.4701000001428,1722.9734000000951,1720.0367000000476,1722.4701000001428,1723.4709000000953,1723.9697000000476,1723.969799999952,1725.3229000000952,976,1725.3229000000952,1,1725.327100000143,6,22,202,28,1,1.4,0.7,Time
,,064995,001,男,21,2025-06-04_21h07.45.049,Serial_Dependence_U,2023.2.3,Win32,166.66666666666666,,,,,,1725.3272999999522,71,6,1725.3274000000952,71,,,,1729.5124999999998,1730.0096000001429,1729.0017999999523,1729.512400000095,1726.3314000000953,1729.0017999999523,1730.0096000001429,1730.5062000000476,1730.5062000000476,1732.3119000000952,1435,1732.312,2,1732.3165,6,23,203,4,1,1.6,0.3,Time
,,064995,001,男,21,2025-06-04_21h07.45.049,Serial_Dependence_U,2023.2.3,Win32,166.66666666666666,,,,,,1732.316600000143,267,6,1732.3167000000476,267,,,,1736.2794000000952,1736.7799999999997,1735.7727999999522,1736.2794000000952,1733.3117000000475,1735.7727000000475,1736.7799999999997,1737.2802000000474,1737.2802000000474,1739.8017000000475,1670,1739.8017000000475,4,1739.805600000143,6,24,204,13,1,1.4,0.3,Time
,,064995,001,男,21,2025-06-04_21h07.45.049,Serial_Dependence_U,2023.2.3,Win32,166.66666666666666,,,,,,1739.805900000095,31,6,1739.805900000095,31,,,,1743.1512999999522,1743.6509999999998,1742.6454999999999,1743.1512000000475,1740.8102999999521,1742.6454000000952,1743.6509999999998,1744.1511000001428,1744.1511000001428,1749.7897000000476,1476,1749.7897000000476,5,1749.7939999999999,6,25,205,15,1,0.8,0.7,Time
,,064995,001,男,21,2025-06-04_21h07.45.049,Serial_Dependence_U,2023.2.3,Win32,166.66666666666666,,,,,,1749.7942000000476,213,6,1749.7942000000476,213,,,,1753.9442999999521,1754.4456000001428,1753.4391000001428,1753.9442000000474,1750.7984000000952,1753.4391000001428,1754.4456000001428,1754.9427000000476,1754.942799999952,1758.0154999999997,2424,1758.015600000143,5,1758.0199999999998,6,26,206,29,1,1.6,0.7,Time
,,064995,001,男,21,2025-06-04_21h07.45.049,Serial_Dependence_U,2023.2.3,Win32,166.66666666666666,,,,,,1758.020100000143,70,6,1758.0202000000475,70,,,,1761.7634000000953,1762.263,1761.2629000000952,1761.7634000000953,1759.0217000000475,1761.2629000000952,1762.263,1762.7592999999522,1762.7592999999522,1766.5347999999522,2139,1766.5347999999522,5,1766.5392999999522,6,27,207,17,1,1.2,0.7,Time
,,064995,001,男,21,2025-06-04_21h07.45.049,Serial_Dependence_U,2023.2.3,Win32,166.66666666666666,,,,,,1766.5394000000952,218,6,1766.5394999999999,218,,,,1770.476299999952,1770.9772000000476,1769.973,1770.4762000000476,1767.540100000143,1769.973,1770.9772000000476,1771.4772999999523,1771.4772999999523,1776.0012000000474,2092,1776.0012000000474,5,1776.0057999999522,6,28,208,18,1,1.4,0.7,Time
,,064995,001,男,21,2025-06-04_21h07.45.049,Serial_Dependence_U,2023.2.3,Win32,166.66666666666666,,,,,,1776.0061000001429,279,6,1776.0062000000476,279,,,,1779.5862000000475,1780.0792999999521,1779.0829999999999,1779.586100000143,1777.0114999999998,1779.0829999999999,1780.0792999999521,1780.5772999999522,1780.5772999999522,1782.2282000000475,1194,1782.2282000000475,4,1782.2327999999522,6,29,209,1,1,1,0.3,Time
,,064995,001,男,21,2025-06-04_21h07.45.049,Serial_Dependence_U,2023.2.3,Win32,166.66666666666666,,,,,,1782.2329000000952,6,7,1843.7179000000951,6,s,61.473900000095455,,1847.2784000000952,1847.7749000000952,1846.7774000000952,1847.2784000000952,1844.7147999999522,1846.7772999999522,1847.7749000000952,1848.273299999952,1848.2734000000953,1850.2982000000475,1535,1850.2982999999522,5,1850.3024999999998,7,0,210,21,1,1,0.3,Time
,,064995,001,男,21,2025-06-04_21h07.45.049,Serial_Dependence_U,2023.2.3,Win32,166.66666666666666,,,,,,1850.3027000000475,355,7,1850.303299999952,355,,,,1853.847100000143,1854.3439999999998,1853.337100000143,1853.8469999999998,1851.2989999999998,1853.3369999999998,1854.3441000001428,1854.8406000001428,1854.8407000000475,1856.6707999999521,1302,1856.6707999999521,5,1856.6752000000474,7,1,211,6,1,1,0.7,Time
,,064995,001,男,21,2025-06-04_21h07.45.049,Serial_Dependence_U,2023.2.3,Win32,166.66666666666666,,,,,,1856.6754000000951,268,7,1856.6754999999998,268,,,,1860.8517999999522,1861.3437000000474,1860.3427999999521,1860.8517999999522,1857.6792000000476,1860.3427000000474,1861.3437000000474,1861.841100000143,1861.8412000000476,1865.2029999999997,1468,1865.2029999999997,2,1865.2077000000475,7,2,212,4,1,1.6,0.3,Time
,,064995,001,男,21,2025-06-04_21h07.45.049,Serial_Dependence_U,2023.2.3,Win32,166.66666666666666,,,,,,1865.2079000000952,90,7,1865.2079000000952,90,,,,1868.5444999999997,1869.043600000143,1868.0434999999998,1868.5444000000953,1866.2109999999998,1868.0434999999998,1869.043600000143,1869.542,1869.542,1874.2972999999522,1745,1874.2972999999522,5,1874.302,7,3,213,25,1,0.8,0.7,Time
,,064995,001,男,21,2025-06-04_21h07.45.049,Serial_Dependence_U,2023.2.3,Win32,166.66666666666666,,,,,,1874.302100000143,42,7,1874.302100000143,42,,,,1878.2689999999998,1878.7647000000475,1877.7649000000952,1878.2689999999998,1875.3039000000952,1877.7647999999522,1878.7647000000475,1879.2651000001429,1879.265299999952,1882.7865,1014,1882.786600000143,2,1882.7909000000952,7,4,214,23,1,1.4,0.3,Time
,,064995,001,男,21,2025-06-04_21h07.45.049,Serial_Dependence_U,2023.2.3,Win32,166.66666666666666,,,,,,1882.791100000143,51,7,1882.791100000143,51,,,,1886.726600000143,1887.2267999999522,1886.2234999999998,1886.726600000143,1883.7855,1886.2234999999998,1887.2267999999522,1887.7287999999521,1887.7287999999521,1889.7537999999522,1356,1889.7539000000952,3,1889.757900000095,7,5,215,18,1,1.4,0.7,Time
,,064995,001,男,21,2025-06-04_21h07.45.049,Serial_Dependence_U,2023.2.3,Win32,166.66666666666666,,,,,,1889.7581000001428,338,7,1889.7582000000475,338,,,,1893.1037000000476,1893.601299999952,1892.5966000001429,1893.1037000000476,1890.7657999999522,1892.5964999999999,1893.6014000000953,1894.101600000143,1894.1017000000475,1897.2297000000476,1336,1897.2297000000476,5,1897.234299999952,7,6,216,15,1,0.8,0.7,Time
,,064995,001,男,21,2025-06-04_21h07.45.049,Serial_Dependence_U,2023.2.3,Win32,166.66666666666666,,,,,,1897.2344999999998,210,7,1897.2344999999998,210,,,,1900.9762000000476,1901.473,1900.4674000000953,1900.9761000001429,1898.2326000001428,1900.467299999952,1901.473100000143,1901.9692999999522,1901.9694000000952,1906.4769000000952,1853,1906.4769000000952,5,1906.4812999999522,7,7,217,7,1,1.2,0.7,Time
,,064995,001,男,21,2025-06-04_21h07.45.049,Serial_Dependence_U,2023.2.3,Win32,166.66666666666666,,,,,,1906.4814999999999,274,7,1906.4814999999999,274,,,,1910.6429999999998,1911.1356000001429,1910.137400000095,1910.6429000000953,1907.4764000000953,1910.1372999999521,1911.1357000000476,1911.6352999999522,1911.6354000000952,1919.4091000001429,1423,1919.4091000001429,2,1919.4142000000475,7,8,218,14,1,1.6,0.3,Time
,,064995,001,男,21,2025-06-04_21h07.45.049,Serial_Dependence_U,2023.2.3,Win32,166.66666666666666,,,,,,1919.4144000000952,149,7,1919.4144000000952,149,,,,1923.1589999999999,1923.6597000000475,1922.6515,1923.1587999999522,1920.4205,1922.6515,1923.6597999999522,1924.1562000000474,1924.1562999999521,1926.581600000143,1739,1926.581600000143,5,1926.5859000000953,7,9,219,27,1,1.2,0.7,Time
,,064995,001,男,21,2025-06-04_21h07.45.049,Serial_Dependence_U,2023.2.3,Win32,166.66666666666666,,,,,,1926.5859999999998,358,7,1926.586100000143,358,,,,1930.5229000000952,1931.022,1930.021100000143,1930.5227999999522,1927.5887999999522,1930.0209999999997,1931.022,1931.5219000000952,1931.522,1935.7552000000476,1379,1935.7552000000476,3,1935.7597000000476,7,10,220,8,1,1.4,0.7,Time
,,064995,001,男,21,2025-06-04_21h07.45.049,Serial_Dependence_U,2023.2.3,Win32,166.66666666666666,,,,,,1935.7599000000953,82,7,1935.7599000000953,82,,,,1939.7327999999522,1940.2295,1939.2299000000953,1939.7327999999522,1936.7669999999998,1939.2299000000953,1940.229600000143,1940.7307000000476,1940.7307000000476,1949.7371000001428,1660,1949.7372000000476,4,1949.7417000000476,7,11,221,3,1,1.4,0.3,Time
,,064995,001,男,21,2025-06-04_21h07.45.049,Serial_Dependence_U,2023.2.3,Win32,166.66666666666666,,,,,,1949.7417999999523,39,7,1949.7419000000953,39,,,,1953.2899000000953,1953.7867000000476,1952.784600000143,1953.2899000000953,1950.7481000001428,1952.7844999999998,1953.7867000000476,1954.2889000000953,1954.2889999999998,1957.2607999999523,1295,1957.2609000000953,4,1957.265600000143,7,12,222,26,1,1,0.7,Time
,,064995,001,男,21,2025-06-04_21h07.45.049,Serial_Dependence_U,2023.2.3,Win32,166.66666666666666,,,,,,1957.2657000000474,240,7,1957.2657999999522,240,,,,1961.0161000001428,1961.5052000000476,1960.5004999999999,1961.0161000001428,1958.262400000095,1960.5004999999999,1961.505299999952,1962.0029000000952,1962.003,1964.0587999999523,1406,1964.0587999999523,4,1964.0631000001429,7,13,223,17,1,1.2,0.7,Time
,,064995,001,男,21,2025-06-04_21h07.45.049,Serial_Dependence_U,2023.2.3,Win32,166.66666666666666,,,,,,1964.063299999952,148,7,1964.063299999952,148,,,,1967.6257000000476,1968.1224000000952,1967.1229999999998,1967.6256000001429,1965.060100000143,1967.1229000000951,1968.1224000000952,1968.6186000001428,1968.6187000000475,1970.0927000000474,940,1970.0927000000474,2,1970.0969999999998,7,14,224,11,1,1,0.3,Time
,,064995,001,男,21,2025-06-04_21h07.45.049,Serial_Dependence_U,2023.2.3,Win32,166.66666666666666,,,,,,1970.0972000000475,337,7,1970.0972999999522,337,,,,1973.8762000000474,1974.3725,1973.3704999999998,1973.876100000143,1971.1076000001428,1973.3704000000953,1974.3725,1974.8692000000476,1974.8692000000476,1976.2637000000475,788,1976.2639000000952,1,1976.2682999999522,7,15,225,12,1,1.2,0.3,Time
,,064995,001,男,21,2025-06-04_21h07.45.049,Serial_Dependence_U,2023.2.3,Win32,166.66666666666666,,,,,,1976.2685,163,7,1976.2685,163,,,,1980.4109999999998,1980.9121000001428,1979.8984999999998,1980.4109999999998,1977.2657999999522,1979.8984000000953,1980.9121000001428,1981.4112999999522,1981.4112999999522,1983.9374000000953,2066,1983.9374999999998,4,1983.9419999999998,7,16,226,19,1,1.6,0.7,Time
,,064995,001,男,21,2025-06-04_21h07.45.049,Serial_Dependence_U,2023.2.3,Win32,166.66666666666666,,,,,,1983.9422000000475,98,7,1983.9422000000475,98,,,,1987.5192000000475,1988.0189000000953,1987.0142000000476,1987.5192000000475,1984.9405,1987.0142000000476,1988.0189000000953,1988.5204999999999,1988.5206000001428,1989.7665,780,1989.7665,2,1989.7706000001428,7,17,227,1,1,1,0.3,Time
,,064995,001,男,21,2025-06-04_21h07.45.049,Serial_Dependence_U,2023.2.3,Win32,166.66666666666666,,,,,,1989.7707000000476,342,7,1989.7709000000953,342,,,,1993.9187000000475,1994.4129000000953,1993.4146000001429,1993.918600000143,1990.7699999999998,1993.4146000001429,1994.4129999999998,1994.9099999999999,1994.9099999999999,1997.3284000000951,1981,1997.3284999999998,4,1997.3332999999523,7,18,228,29,1,1.6,0.7,Time
,,064995,001,男,21,2025-06-04_21h07.45.049,Serial_Dependence_U,2023.2.3,Win32,166.66666666666666,,,,,,1997.3334000000953,173,7,1997.3334999999997,173,,,,2001.1089000000952,2001.6052000000475,2000.6045,2001.1089000000952,1998.3399000000952,2000.6044000000952,2001.6052000000475,2002.1077999999522,2002.1077999999522,2003.9209999999998,1149,2003.9209999999998,3,2003.925,7,19,229,2,1,1.2,0.3,Time
,,064995,001,男,21,2025-06-04_21h07.45.049,Serial_Dependence_U,2023.2.3,Win32,166.66666666666666,,,,,,2003.9252000000474,118,7,2003.9252000000474,118,,,,2007.3062000000475,2007.805600000143,2006.8017000000475,2007.3061000001428,2004.9379000000952,2006.8014999999998,2007.8057000000476,2008.3062999999522,2008.3064000000952,2009.1074999999998,744,2009.1076000001428,2,2009.1117000000474,7,20,230,10,1,0.8,0.3,Time
,,064995,001,男,21,2025-06-04_21h07.45.049,Serial_Dependence_U,2023.2.3,Win32,166.66666666666666,,,,,,2009.1119000000951,128,7,2009.1119000000951,128,,,,2012.6637000000476,2013.1621000001428,2012.1609000000951,2012.6636000001429,2010.119299999952,2012.1607999999521,2013.1622000000475,2013.6629999999998,2013.663100000143,2016.866100000143,1407,2016.866100000143,5,2016.8709999999999,7,21,231,16,1,1,0.7,Time
,,064995,001,男,21,2025-06-04_21h07.45.049,Serial_Dependence_U,2023.2.3,Win32,166.66666666666666,,,,,,2016.8712000000476,225,7,2016.8712000000476,225,,,,2020.8127000000475,2021.3107000000477,2020.3039000000952,2020.8127000000475,2017.8694000000953,2020.3039000000952,2021.3107000000477,2021.8076000001429,2021.8076000001429,2023.3517000000475,1247,2023.3517000000475,2,2023.355799999952,7,22,232,28,1,1.4,0.7,Time
,,064995,001,男,21,2025-06-04_21h07.45.049,Serial_Dependence_U,2023.2.3,Win32,166.66666666666666,,,,,,2023.355900000095,244,7,2023.3559999999998,244,,,,2026.7227000000476,2027.2239999999997,2026.218600000143,2026.7226000001428,2024.3582999999521,2026.218600000143,2027.2239999999997,2027.7202000000475,2027.7202000000475,2030.7449000000952,1367,2030.7449000000952,5,2030.7492000000475,7,23,233,0,1,0.8,0.3,Time
,,064995,001,男,21,2025-06-04_21h07.45.049,Serial_Dependence_U,2023.2.3,Win32,166.66666666666666,,,,,,2030.7494000000952,229,7,2030.7495,229,,,,2034.125299999952,2034.6216000001427,2033.6237000000474,2034.1252000000477,2031.7622000000474,2033.6237000000474,2034.6216000001427,2035.118,2035.118,2036.3617000000477,842,2036.3617000000477,4,2036.3664999999996,7,24,234,20,1,0.8,0.3,Time
,,064995,001,男,21,2025-06-04_21h07.45.049,Serial_Dependence_U,2023.2.3,Win32,166.66666666666666,,,,,,2036.366600000143,70,7,2036.3667000000473,70,,,,2040.3366000001429,2040.8347000000476,2039.833100000143,2040.3365,2037.3685,2039.8329999999996,2040.8347000000476,2041.3352000000477,2041.3352000000477,2043.152400000095,1299,2043.152400000095,2,2043.1571000001427,7,25,235,13,1,1.4,0.3,Time
,,064995,001,男,21,2025-06-04_21h07.45.049,Serial_Dependence_U,2023.2.3,Win32,166.66666666666666,,,,,,2043.1572000000474,272,7,2043.157299999952,272,,,,2046.9297000000474,2047.4324000000952,2046.4257999999522,2046.9296000001427,2044.157299999952,2046.4257000000475,2047.4324000000952,2047.9296000001427,2047.9296000001427,2050.8434000000952,1603,2050.8434000000952,5,2050.8479000000953,7,26,236,22,1,1.2,0.3,Time
,,064995,001,男,21,2025-06-04_21h07.45.049,Serial_Dependence_U,2023.2.3,Win32,166.66666666666666,,,,,,2050.848100000143,238,7,2050.8482000000477,238,,,,2054.9957000000477,2055.4894000000954,2054.4902000000475,2054.995600000143,2051.853799999952,2054.4902000000475,2055.4894999999997,2055.9862000000476,2055.9862000000476,2058.213400000095,1460,2058.213400000095,2,2058.218100000143,7,27,237,9,1,1.6,0.7,Time
,,064995,001,男,21,2025-06-04_21h07.45.049,Serial_Dependence_U,2023.2.3,Win32,166.66666666666666,,,,,,2058.2184000000952,171,7,2058.2184000000952,171,,,,2061.5592000000474,2062.057100000143,2061.054299999952,2061.5591000001427,2059.2207999999523,2061.0542000000473,2062.057100000143,2062.5579000000953,2062.5579000000953,2065.3257999999523,1219,2065.3259000000953,5,2065.3312000000474,7,28,238,5,1,0.8,0.7,Time
,,064995,001,男,21,2025-06-04_21h07.45.049,Serial_Dependence_U,2023.2.3,Win32,166.66666666666666,,,,,,2065.331299999952,49,7,2065.331400000095,49,,,,2069.5112999999524,2070.009799999952,2069.008600000143,2069.5112000000477,2066.338600000143,2069.0085,2070.009799999952,2070.509900000095,2070.5099999999998,2080.860400000095,1439,2080.860400000095,2,2080.865100000143,7,29,239,24,1,1.6,0.3,Time
,,064995,001,男,21,2025-06-04_21h07.45.049,Serial_Dependence_U,2023.2.3,Win32,166.66666666666666,,,,,,2080.8652000000475,160,8,2082.386799999952,160,s,1.5148999998573345,,2086.158799999952,2086.6577000000475,2085.6535,2086.1587000000477,2083.3862999999524,2085.653400000095,2086.657799999952,2087.1569999999997,2087.1569999999997,2089.174799999952,1593,2089.174900000095,5,2089.179799999952,8,0,240,2,1,1.2,0.3,Time
,,064995,001,男,21,2025-06-04_21h07.45.049,Serial_Dependence_U,2023.2.3,Win32,166.66666666666666,,,,,,2089.18,279,8,2089.1809000000953,279,,,,2093.3307000000477,2093.8282000000477,2092.821600000143,2093.330600000143,2090.184400000095,2092.8215,2093.8282999999524,2094.324100000143,2094.3242000000473,2096.6712000000475,1930,2096.671299999952,4,2096.6757999999522,8,1,241,9,1,1.6,0.7,Time
,,064995,001,男,21,2025-06-04_21h07.45.049,Serial_Dependence_U,2023.2.3,Win32,166.66666666666666,,,,,,2096.676,343,8,2096.676,343,,,,2100.2219999999998,2100.717400000095,2099.719799999952,2100.221900000095,2097.6825,2099.719799999952,2100.717400000095,2101.2132000000474,2101.2132000000474,2104.303100000143,1648,2104.3032000000476,5,2104.307100000143,8,2,242,26,1,1,0.7,Time
,,064995,001,男,21,2025-06-04_21h07.45.049,Serial_Dependence_U,2023.2.3,Win32,166.66666666666666,,,,,,2104.307299999952,171,8,2104.307299999952,171,,,,2108.2467000000474,2108.743600000143,2107.746299999952,2108.2466000001427,2105.309400000095,2107.7462000000473,2108.743600000143,2109.2407000000476,2109.2407999999523,2112.380400000095,1527,2112.380400000095,4,2112.384900000095,8,3,243,8,1,1.4,0.7,Time
,,064995,001,男,21,2025-06-04_21h07.45.049,Serial_Dependence_U,2023.2.3,Win32,166.66666666666666,,,,,,2112.3849999999998,304,8,2112.3851000001428,304,,,,2115.7452000000476,2116.2385,2115.2392000000477,2115.745100000143,2113.400100000143,2115.239100000143,2116.2385,2116.740100000143,2116.740100000143,2118.645100000143,1500,2118.6452000000477,5,2118.6499999999996,8,4,244,25,1,0.8,0.7,Time
,,064995,001,男,21,2025-06-04_21h07.45.049,Serial_Dependence_U,2023.2.3,Win32,166.66666666666666,,,,,,2118.6502000000473,5,8,2118.6502000000473,5,,,,2122.819799999952,2123.3167000000476,2122.313100000143,2122.819600000143,2119.6514000000952,2122.3129999999996,2123.3167000000476,2123.8147999999524,2123.8147999999524,2124.931900000095,791,2124.932,1,2124.9361000001427,8,5,245,4,1,1.6,0.3,Time
,,064995,001,男,21,2025-06-04_21h07.45.049,Serial_Dependence_U,2023.2.3,Win32,166.66666666666666,,,,,,2124.936299999952,333,8,2124.936299999952,333,,,,2128.307100000143,2128.807299999952,2127.806100000143,2128.307,2125.9417000000476,2127.806100000143,2128.807299999952,2129.308600000143,2129.308600000143,2131.036299999952,1239,2131.036299999952,5,2131.0407000000473,8,6,246,20,1,0.8,0.3,Time
,,064995,001,男,21,2025-06-04_21h07.45.049,Serial_Dependence_U,2023.2.3,Win32,166.66666666666666,,,,,,2131.040900000095,88,8,2131.0409999999997,88,,,,2134.974900000095,2135.4719999999998,2134.473900000095,2134.974900000095,2132.0402000000477,2134.473900000095,2135.4719999999998,2135.967900000095,2135.968,2137.922299999952,1595,2137.922299999952,4,2137.9267000000477,8,7,247,18,1,1.4,0.7,Time
,,064995,001,男,21,2025-06-04_21h07.45.049,Serial_Dependence_U,2023.2.3,Win32,166.66666666666666,,,,,,2137.9269000000954,218,8,2137.9269999999997,218,,,,2141.701799999952,2142.1976000001428,2141.197299999952,2141.7017000000474,2138.9334999999996,2141.1972000000474,2142.197799999952,2142.6931000001427,2142.6931000001427,2144.8392999999523,1576,2144.8394000000953,5,2144.8432999999523,8,8,248,22,1,1.2,0.3,Time
,,064995,001,男,21,2025-06-04_21h07.45.049,Serial_Dependence_U,2023.2.3,Win32,166.66666666666666,,,,,,2144.8435,284,8,2144.843600000143,284,,,,2148.7832000000476,2149.280400000095,2148.2731000001427,2148.7832000000476,2145.840400000095,2148.2729999999997,2149.280400000095,2149.7782000000475,2149.7782000000475,2151.6617000000474,1269,2151.6617000000474,2,2151.665799999952,8,9,249,28,1,1.4,0.7,Time
,,064995,001,男,21,2025-06-04_21h07.45.049,Serial_Dependence_U,2023.2.3,Win32,166.66666666666666,,,,,,2151.6659999999997,166,8,2151.6661000001427,166,,,,2155.0377999999523,2155.533600000143,2154.534100000143,2155.0377000000476,2152.6706000001427,2154.5339999999997,2155.5337000000477,2156.040600000143,2156.040600000143,2156.8817000000477,803,2156.8817999999524,3,2156.8857999999523,8,10,250,0,1,0.8,0.3,Time
,,064995,001,男,21,2025-06-04_21h07.45.049,Serial_Dependence_U,2023.2.3,Win32,166.66666666666666,,,,,,2156.886,328,8,2156.886100000143,328,,,,2160.455,2160.9509000000953,2159.9519999999998,2160.455,2157.8849999999998,2159.951799999952,2160.9509000000953,2161.4485,2161.4485,2162.9316000001427,1034,2162.9317000000474,3,2162.935600000143,8,11,251,21,1,1,0.3,Time
