Scale_setup.started,Scale_setup.stopped,participant,session,sex,age,date,expName,psychopyVersion,OS,frameRate,Intro.started,Intro.stopped,key_resp_2.keys,key_resp_2.rt,key_resp_2.duration,block.started,direction,Block_id,block.stopped,trial_direction,Block_resp_2.keys,Block_resp_2.rt,Block_resp_2.duration,ITI.started,ITI.stopped,Mask_2.started,Mask_2.stopped,encoding.started,encoding.stopped,Cue.started,Cue.stopped,Response.started,Response.stopped,keyDuration,Feedback_Time.started,FeedbackID_T,Feedback_Time.stopped,trials.thisRepN,trials.thisTrialN,trials.thisN,trials.thisIndex,trials.ran,TimeDur,Coherence1,TrialType
0,0,109550,001,男,22,2025-06-04_16h02.02.847,Serial_Dependence_U,2023.2.3,Win32,89.92805755399449,,,,,,,,,,,,,,,,,,,,,,,,,,,,,,,,,,,
,,109550,001,男,22,2025-06-04_16h02.02.847,Serial_Dependence_U,2023.2.3,Win32,89.92805755399449,1.51400000000001,1.8700000000000045,space,0.33099999999998886,,,,,,,,,,,,,,,,,,,,,,,,,,,,,,,
,,109550,001,男,22,2025-06-04_16h02.02.847,Serial_Dependence_U,2023.2.3,Win32,89.92805755399449,,,,,,1.8740000000000236,17,0,164.84900000000002,17,s,162.94599999999997,,168.82200000000003,169.31500000000003,168.32200000000003,168.82200000000003,165.855,168.32200000000003,169.31500000000003,169.816,169.816,172.16800000000003,1946,172.16800000000003,5,173.17,0,0,0,13,1,1.4,0.3,Time
,,109550,001,男,22,2025-06-04_16h02.02.847,Serial_Dependence_U,2023.2.3,Win32,89.92805755399449,,,,,,173.172,41,0,173.17499999999998,41,,,,176.92800000000003,177.42600000000002,176.415,176.92800000000003,174.172,176.415,177.42600000000002,177.92600000000002,177.92600000000002,179.561,1325,179.561,4,180.56000000000003,0,1,1,27,1,1.2,0.7,Time
,,109550,001,男,22,2025-06-04_16h02.02.847,Serial_Dependence_U,2023.2.3,Win32,89.92805755399449,,,,,,180.561,243,0,180.561,243,,,,184.117,184.61500000000004,183.604,184.117,181.561,183.604,184.61500000000004,185.116,185.116,186.686,1269,186.686,4,187.681,0,2,2,16,1,1,0.7,Time
,,109550,001,男,22,2025-06-04_16h02.02.847,Serial_Dependence_U,2023.2.3,Win32,89.92805755399449,,,,,,187.682,242,0,187.682,242,,,,191.46200000000002,191.96,190.94700000000003,191.46200000000002,188.68300000000002,190.94700000000003,191.96,192.46,192.46,193.989,1265,193.989,4,194.982,0,3,3,2,1,1.2,0.3,Time
,,109550,001,男,22,2025-06-04_16h02.02.847,Serial_Dependence_U,2023.2.3,Win32,89.92805755399449,,,,,,194.98300000000003,341,0,194.98300000000003,341,,,,198.528,199.02599999999998,198.023,198.528,195.98300000000003,198.023,199.02599999999998,199.52599999999998,199.52599999999998,201.054,1219,201.05500000000004,4,202.049,0,4,4,26,1,1,0.7,Time
,,109550,001,男,22,2025-06-04_16h02.02.847,Serial_Dependence_U,2023.2.3,Win32,89.92805755399449,,,,,,202.049,240,0,202.049,240,,,,205.838,206.338,205.33400000000003,205.838,203.06199999999998,205.33400000000003,206.338,206.83700000000002,206.838,208.39400000000003,1385,208.39400000000003,4,209.393,0,5,5,22,1,1.2,0.3,Time
,,109550,001,男,22,2025-06-04_16h02.02.847,Serial_Dependence_U,2023.2.3,Win32,89.92805755399449,,,,,,209.39400000000003,253,0,209.39400000000003,253,,,,213.328,213.826,212.826,213.328,210.393,212.826,213.826,214.326,214.326,215.66600000000003,1031,215.66600000000003,2,216.66,0,6,6,8,1,1.4,0.7,Time
,,109550,001,男,22,2025-06-04_16h02.02.847,Serial_Dependence_U,2023.2.3,Win32,89.92805755399449,,,,,,216.66,203,0,216.66,203,,,,220.239,220.737,219.72800000000004,220.239,217.66400000000002,219.72800000000004,220.737,221.23800000000003,221.23800000000003,222.768,1229,222.768,4,223.771,0,7,7,1,1,1,0.3,Time
,,109550,001,男,22,2025-06-04_16h02.02.847,Serial_Dependence_U,2023.2.3,Win32,89.92805755399449,,,,,,223.773,41,0,223.773,41,,,,227.95000000000002,228.44899999999998,227.446,227.95000000000002,224.77900000000002,227.446,228.44899999999998,228.94899999999998,228.94899999999998,230.38900000000004,1122,230.38900000000004,2,231.38200000000003,0,8,8,4,1,1.6,0.3,Time
,,109550,001,男,22,2025-06-04_16h02.02.847,Serial_Dependence_U,2023.2.3,Win32,89.92805755399449,,,,,,231.38200000000003,188,0,231.38200000000003,188,,,,235.544,236.037,235.028,235.544,232.38500000000002,235.028,236.037,236.53799999999998,236.53799999999998,238.08900000000003,1256,238.08900000000003,2,239.08200000000002,0,9,9,29,1,1.6,0.7,Time
,,109550,001,男,22,2025-06-04_16h02.02.847,Serial_Dependence_U,2023.2.3,Win32,89.92805755399449,,,,,,239.08200000000002,295,0,239.08200000000002,295,,,,243.02700000000002,243.52700000000002,242.52599999999998,243.02700000000002,240.08400000000003,242.52599999999998,243.52700000000002,244.02700000000002,244.02700000000002,245.46099999999998,1101,245.46099999999998,2,246.46,0,10,10,28,1,1.4,0.7,Time
,,109550,001,男,22,2025-06-04_16h02.02.847,Serial_Dependence_U,2023.2.3,Win32,89.92805755399449,,,,,,246.46,72,0,246.46,72,,,,250.44000000000003,250.93800000000002,249.92300000000003,250.44000000000003,247.46099999999998,249.92300000000003,250.93800000000002,251.43800000000002,251.43800000000002,253.15,1347,253.15,3,254.14900000000003,0,11,11,3,1,1.4,0.3,Time
,,109550,001,男,22,2025-06-04_16h02.02.847,Serial_Dependence_U,2023.2.3,Win32,89.92805755399449,,,,,,254.14900000000003,115,0,254.14900000000003,115,,,,257.509,258.005,256.99800000000005,257.509,255.153,256.99800000000005,258.005,258.505,258.505,259.98400000000004,1163,259.98400000000004,5,260.98199999999997,0,12,12,5,1,0.8,0.7,Time
,,109550,001,男,22,2025-06-04_16h02.02.847,Serial_Dependence_U,2023.2.3,Win32,89.92805755399449,,,,,,260.98300000000006,107,0,260.98400000000004,107,,,,264.35,264.84900000000005,263.837,264.35,261.999,263.836,264.84900000000005,265.34900000000005,265.34900000000005,266.783,1125,266.783,5,267.78200000000004,0,13,13,25,1,0.8,0.7,Time
,,109550,001,男,22,2025-06-04_16h02.02.847,Serial_Dependence_U,2023.2.3,Win32,89.92805755399449,,,,,,267.78200000000004,244,0,267.78200000000004,244,,,,271.53999999999996,272.03700000000003,271.02599999999995,271.53999999999996,268.79600000000005,271.02599999999995,272.03700000000003,272.538,272.538,274.057,1153,274.057,3,275.049,0,14,14,17,1,1.2,0.7,Time
,,109550,001,男,22,2025-06-04_16h02.02.847,Serial_Dependence_U,2023.2.3,Win32,89.92805755399449,,,,,,275.049,203,0,275.049,203,,,,279.206,279.70500000000004,278.70400000000006,279.206,276.06500000000005,278.70400000000006,279.70500000000004,280.20500000000004,280.20500000000004,281.76700000000005,1189,281.76700000000005,2,282.76,0,15,15,19,1,1.6,0.7,Time
,,109550,001,男,22,2025-06-04_16h02.02.847,Serial_Dependence_U,2023.2.3,Win32,89.92805755399449,,,,,,282.76,143,0,282.76099999999997,143,,,,286.355,286.84900000000005,285.83799999999997,286.35400000000004,283.76300000000003,285.83799999999997,286.84900000000005,287.34900000000005,287.34900000000005,288.672,1082,288.672,4,289.67100000000005,0,16,16,21,1,1,0.3,Time
,,109550,001,男,22,2025-06-04_16h02.02.847,Serial_Dependence_U,2023.2.3,Win32,89.92805755399449,,,,,,289.672,346,0,289.672,346,,,,293.433,293.927,292.91999999999996,293.433,290.68399999999997,292.919,293.927,294.427,294.427,295.995,1206,295.995,3,296.994,0,17,17,7,1,1.2,0.7,Time
,,109550,001,男,22,2025-06-04_16h02.02.847,Serial_Dependence_U,2023.2.3,Win32,89.92805755399449,,,,,,296.994,21,0,296.994,21,,,,300.961,301.461,300.45900000000006,300.961,297.995,300.45900000000006,301.461,301.96000000000004,301.96000000000004,303.33000000000004,1124,303.33000000000004,2,304.327,0,18,18,23,1,1.4,0.3,Time
,,109550,001,男,22,2025-06-04_16h02.02.847,Serial_Dependence_U,2023.2.3,Win32,89.92805755399449,,,,,,304.327,299,0,304.327,299,,,,307.717,308.21500000000003,307.21299999999997,307.717,305.34400000000005,307.21299999999997,308.21500000000003,308.71500000000003,308.71500000000003,310.087,1093,310.087,5,311.082,0,19,19,10,1,0.8,0.3,Time
,,109550,001,男,22,2025-06-04_16h02.02.847,Serial_Dependence_U,2023.2.3,Win32,89.92805755399449,,,,,,311.082,9,0,311.082,9,,,,314.46500000000003,314.961,313.95900000000006,314.46500000000003,312.08900000000006,313.95900000000006,314.961,315.46000000000004,315.46000000000004,316.951,1161,316.951,5,317.94899999999996,0,20,20,0,1,0.8,0.3,Time
,,109550,001,男,22,2025-06-04_16h02.02.847,Serial_Dependence_U,2023.2.3,Win32,89.92805755399449,,,,,,317.95000000000005,343,0,317.95000000000005,343,,,,321.744,322.23699999999997,321.23,321.744,318.95000000000005,321.22900000000004,322.23699999999997,322.73800000000006,322.73800000000006,323.828,861,323.828,2,324.827,0,21,21,12,1,1.2,0.3,Time
,,109550,001,男,22,2025-06-04_16h02.02.847,Serial_Dependence_U,2023.2.3,Win32,89.92805755399449,,,,,,324.828,237,0,324.828,237,,,,329.006,329.505,328.506,329.006,325.83799999999997,328.506,329.505,330.004,330.004,331.616,1337,331.616,2,332.616,0,22,22,14,1,1.6,0.3,Time
,,109550,001,男,22,2025-06-04_16h02.02.847,Serial_Dependence_U,2023.2.3,Win32,89.92805755399449,,,,,,332.616,141,0,332.616,141,,,,336.203,336.70400000000006,335.703,336.203,333.63300000000004,335.702,336.70400000000006,337.20400000000006,337.20400000000006,338.80499999999995,1279,338.8059999999999,4,339.80499999999995,0,23,23,11,1,1,0.3,Time
,,109550,001,男,22,2025-06-04_16h02.02.847,Serial_Dependence_U,2023.2.3,Win32,89.92805755399449,,,,,,339.80499999999995,246,0,339.80499999999995,246,,,,343.9950000000001,344.49400000000014,343.4760000000001,343.9950000000001,340.8059999999999,343.4760000000001,344.49400000000014,344.99300000000005,344.99300000000005,346.5060000000001,1045,346.5060000000001,1,347.50400000000013,0,24,24,24,1,1.6,0.3,Time
,,109550,001,男,22,2025-06-04_16h02.02.847,Serial_Dependence_U,2023.2.3,Win32,89.92805755399449,,,,,,347.5050000000001,5,0,347.5050000000001,5,,,,351.67200000000014,352.17200000000014,351.16200000000015,351.67200000000014,348.51700000000005,351.16200000000015,352.17200000000014,352.67200000000014,352.67200000000014,354.37800000000004,1407,354.37800000000004,2,355.3710000000001,0,25,25,9,1,1.6,0.7,Time
,,109550,001,男,22,2025-06-04_16h02.02.847,Serial_Dependence_U,2023.2.3,Win32,89.92805755399449,,,,,,355.37200000000007,10,0,355.37300000000005,10,,,,358.92200000000014,359.41600000000005,358.4200000000001,358.92200000000014,356.38800000000015,358.4200000000001,359.41600000000005,359.91600000000005,359.91600000000005,361.51700000000005,1307,361.51700000000005,5,362.5160000000001,0,26,26,6,1,1,0.7,Time
,,109550,001,男,22,2025-06-04_16h02.02.847,Serial_Dependence_U,2023.2.3,Win32,89.92805755399449,,,,,,362.51700000000005,158,0,362.51700000000005,158,,,,365.8510000000001,366.34900000000005,365.35000000000014,365.8510000000001,363.5190000000001,365.35000000000014,366.34900000000005,366.84900000000005,366.84900000000005,368.2220000000001,1068,368.2220000000001,5,369.21500000000015,0,27,27,15,1,0.8,0.7,Time
,,109550,001,男,22,2025-06-04_16h02.02.847,Serial_Dependence_U,2023.2.3,Win32,89.92805755399449,,,,,,369.2160000000001,237,0,369.2160000000001,237,,,,373.16700000000014,373.6600000000001,372.6500000000001,373.16600000000005,370.2170000000001,372.6500000000001,373.6600000000001,374.1600000000001,374.1600000000001,375.59900000000005,1147,375.59900000000005,2,376.59400000000005,0,28,28,18,1,1.4,0.7,Time
,,109550,001,男,22,2025-06-04_16h02.02.847,Serial_Dependence_U,2023.2.3,Win32,89.92805755399449,,,,,,376.59400000000005,11,0,376.59400000000005,11,,,,379.9820000000001,380.4820000000001,379.47400000000005,379.9820000000001,377.6100000000001,379.47300000000007,380.4820000000001,380.9820000000001,380.9820000000001,381.8670000000001,580,381.8670000000001,2,382.8610000000001,0,29,29,20,1,0.8,0.3,Time
,,109550,001,男,22,2025-06-04_16h02.02.847,Serial_Dependence_U,2023.2.3,Win32,89.92805755399449,,,,,,382.8610000000001,15,1,449.10500000000013,15,s,66.21900000000005,,452.4670000000001,452.9610000000001,451.9570000000001,452.4670000000001,450.1210000000001,451.9570000000001,452.9610000000001,453.4610000000001,453.4610000000001,454.94600000000014,1135,454.9470000000001,5,454.9470000000001,1,0,30,25,1,0.8,0.7,Time
,,109550,001,男,22,2025-06-04_16h02.02.847,Serial_Dependence_U,2023.2.3,Win32,89.92805755399449,,,,,,454.9480000000001,170,1,454.95000000000005,170,,,,459.12300000000005,459.6160000000001,458.6070000000001,459.12200000000007,455.9620000000001,458.6070000000001,459.6160000000001,460.1160000000001,460.1160000000001,461.5620000000001,1095,461.5620000000001,1,461.5630000000001,1,1,31,19,1,1.6,0.7,Time
,,109550,001,男,22,2025-06-04_16h02.02.847,Serial_Dependence_U,2023.2.3,Win32,89.92805755399449,,,,,,461.5630000000001,114,1,461.5630000000001,114,,,,465.1400000000001,465.6390000000001,464.6400000000001,465.1400000000001,462.5620000000001,464.6400000000001,465.6390000000001,466.13800000000015,466.13800000000015,467.7930000000001,1270,467.7930000000001,4,467.7930000000001,1,2,32,11,1,1,0.3,Time
,,109550,001,男,22,2025-06-04_16h02.02.847,Serial_Dependence_U,2023.2.3,Win32,89.92805755399449,,,,,,467.7930000000001,40,1,467.7930000000001,40,,,,471.34500000000014,471.8380000000001,470.83100000000013,471.34500000000014,468.79600000000005,470.83100000000013,471.8380000000001,472.3380000000001,472.3380000000001,473.85500000000013,1131,473.85500000000013,4,473.85500000000013,1,3,33,6,1,1,0.7,Time
,,109550,001,男,22,2025-06-04_16h02.02.847,Serial_Dependence_U,2023.2.3,Win32,89.92805755399449,,,,,,473.8560000000001,185,1,473.8560000000001,185,,,,478.0290000000001,478.52700000000004,477.52300000000014,478.0290000000001,474.85300000000007,477.52300000000014,478.52700000000004,479.02700000000004,479.02700000000004,480.82900000000006,1374,480.82900000000006,2,480.83000000000004,1,4,34,14,1,1.6,0.3,Time
,,109550,001,男,22,2025-06-04_16h02.02.847,Serial_Dependence_U,2023.2.3,Win32,89.92805755399449,,,,,,480.83000000000004,238,1,480.83000000000004,238,,,,484.4290000000001,484.92700000000013,483.92200000000014,484.4290000000001,481.84400000000005,483.92100000000005,484.92700000000013,485.42700000000013,485.42700000000013,486.9280000000001,1215,486.9280000000001,4,486.93000000000006,1,5,35,21,1,1,0.3,Time
,,109550,001,男,22,2025-06-04_16h02.02.847,Serial_Dependence_U,2023.2.3,Win32,89.92805755399449,,,,,,486.93100000000004,149,1,486.93100000000004,149,,,,490.32100000000014,490.81600000000014,489.80600000000004,490.32100000000014,487.94100000000014,489.80600000000004,490.81600000000014,491.31600000000014,491.31600000000014,492.7740000000001,1196,492.7740000000001,5,492.7750000000001,1,6,36,20,1,0.8,0.3,Time
,,109550,001,男,22,2025-06-04_16h02.02.847,Serial_Dependence_U,2023.2.3,Win32,89.92805755399449,,,,,,492.7750000000001,173,1,492.7750000000001,173,,,,496.12300000000005,496.6160000000001,495.62200000000007,496.12300000000005,493.7790000000001,495.62200000000007,496.6160000000001,497.1170000000001,497.1170000000001,498.3670000000001,928,498.3670000000001,4,498.36800000000005,1,7,37,5,1,0.8,0.7,Time
,,109550,001,男,22,2025-06-04_16h02.02.847,Serial_Dependence_U,2023.2.3,Win32,89.92805755399449,,,,,,498.36800000000005,16,1,498.36800000000005,16,,,,502.35000000000014,502.84900000000005,501.83500000000015,502.35000000000014,499.37300000000005,501.83500000000015,502.84900000000005,503.34900000000005,503.34900000000005,504.9710000000001,1324,504.9720000000001,2,504.9720000000001,1,8,38,13,1,1.4,0.3,Time
,,109550,001,男,22,2025-06-04_16h02.02.847,Serial_Dependence_U,2023.2.3,Win32,89.92805755399449,,,,,,504.9720000000001,6,1,504.9720000000001,6,,,,508.3560000000001,508.85000000000014,507.83900000000006,508.3560000000001,505.9720000000001,507.83900000000006,508.85000000000014,509.35000000000014,509.35000000000014,510.7550000000001,1109,510.7550000000001,5,510.7550000000001,1,9,39,0,1,0.8,0.3,Time
,,109550,001,男,22,2025-06-04_16h02.02.847,Serial_Dependence_U,2023.2.3,Win32,89.92805755399449,,,,,,510.7550000000001,190,1,510.7550000000001,190,,,,514.9300000000001,515.4280000000001,514.4230000000001,514.9300000000001,511.7550000000001,514.4220000000001,515.4280000000001,515.9270000000001,515.9270000000001,517.5130000000001,1217,517.5130000000001,2,517.5130000000001,1,10,40,4,1,1.6,0.3,Time
,,109550,001,男,22,2025-06-04_16h02.02.847,Serial_Dependence_U,2023.2.3,Win32,89.92805755399449,,,,,,517.5140000000001,222,1,517.5140000000001,222,,,,521.1120000000001,521.6050000000001,520.599,521.1120000000001,518.5290000000001,520.599,521.6050000000001,522.1050000000001,522.1050000000001,523.5620000000001,955,523.5620000000001,3,523.5630000000001,1,11,41,1,1,1,0.3,Time
,,109550,001,男,22,2025-06-04_16h02.02.847,Serial_Dependence_U,2023.2.3,Win32,89.92805755399449,,,,,,523.5640000000001,274,1,523.5640000000001,274,,,,527.4990000000001,527.9950000000001,526.9970000000001,527.4990000000001,524.565,526.9960000000001,527.9950000000001,528.4940000000001,528.4940000000001,529.8900000000001,1161,529.8900000000001,2,529.8910000000001,1,12,42,8,1,1.4,0.7,Time
,,109550,001,男,22,2025-06-04_16h02.02.847,Serial_Dependence_U,2023.2.3,Win32,89.92805755399449,,,,,,529.8910000000001,177,1,529.8910000000001,177,,,,533.6720000000001,534.1720000000001,533.157,533.6720000000001,530.8900000000001,533.1560000000001,534.1720000000001,534.6720000000001,534.6720000000001,536.2920000000001,1328,536.2930000000001,4,536.2930000000001,1,13,43,12,1,1.2,0.3,Time
,,109550,001,男,22,2025-06-04_16h02.02.847,Serial_Dependence_U,2023.2.3,Win32,89.92805755399449,,,,,,536.2930000000001,95,1,536.2930000000001,95,,,,540.0600000000001,540.5610000000001,539.556,540.0600000000001,537.3110000000001,539.5550000000001,540.5610000000001,541.0610000000001,541.0610000000001,542.4460000000001,1060,542.4460000000001,2,542.4470000000001,1,14,44,17,1,1.2,0.7,Time
,,109550,001,男,22,2025-06-04_16h02.02.847,Serial_Dependence_U,2023.2.3,Win32,89.92805755399449,,,,,,542.4470000000001,164,1,542.4470000000001,164,,,,545.8290000000001,546.3270000000001,545.3230000000001,545.8290000000001,543.4510000000001,545.3220000000001,546.3270000000001,546.8280000000001,546.8280000000001,548.1510000000001,1136,548.1510000000001,5,548.1530000000001,1,15,45,10,1,0.8,0.3,Time
,,109550,001,男,22,2025-06-04_16h02.02.847,Serial_Dependence_U,2023.2.3,Win32,89.92805755399449,,,,,,548.1530000000001,287,1,548.1530000000001,287,,,,551.9250000000001,552.4280000000001,551.4180000000001,551.9250000000001,549.1510000000001,551.4170000000001,552.4280000000001,552.9270000000001,552.9270000000001,554.8590000000002,1543,554.8590000000002,4,554.8600000000001,1,16,46,2,1,1.2,0.3,Time
,,109550,001,男,22,2025-06-04_16h02.02.847,Serial_Dependence_U,2023.2.3,Win32,89.92805755399449,,,,,,554.8600000000001,11,1,554.8600000000001,11,,,,559.0130000000001,559.5050000000001,558.5120000000001,559.0120000000001,555.8670000000001,558.5120000000001,559.5050000000001,560.0050000000001,560.0050000000001,560.7180000000001,496,560.7180000000001,1,560.7180000000001,1,17,47,9,1,1.6,0.7,Time
,,109550,001,男,22,2025-06-04_16h02.02.847,Serial_Dependence_U,2023.2.3,Win32,89.92805755399449,,,,,,560.7180000000001,315,1,560.719,315,,,,564.6610000000001,565.1610000000001,564.1610000000001,564.6610000000001,561.729,564.1610000000001,565.1610000000001,565.6610000000001,565.6610000000001,566.9610000000001,1135,566.9610000000001,2,566.9610000000001,1,18,48,18,1,1.4,0.7,Time
,,109550,001,男,22,2025-06-04_16h02.02.847,Serial_Dependence_U,2023.2.3,Win32,89.92805755399449,,,,,,566.9620000000001,299,1,566.9620000000001,299,,,,570.7400000000001,571.238,570.2360000000001,570.7400000000001,567.974,570.2360000000001,571.238,571.7390000000001,571.7390000000001,573.2900000000001,1313,573.2900000000001,4,573.2900000000001,1,19,49,22,1,1.2,0.3,Time
,,109550,001,男,22,2025-06-04_16h02.02.847,Serial_Dependence_U,2023.2.3,Win32,89.92805755399449,,,,,,573.2900000000001,216,1,573.2900000000001,216,,,,576.8330000000001,577.3270000000001,576.3290000000001,576.8330000000001,574.2920000000001,576.3280000000001,577.3270000000001,577.8270000000001,577.8270000000001,579.4060000000001,1339,579.4060000000001,5,579.407,1,20,50,16,1,1,0.7,Time
,,109550,001,男,22,2025-06-04_16h02.02.847,Serial_Dependence_U,2023.2.3,Win32,89.92805755399449,,,,,,579.4090000000001,113,1,579.4090000000001,113,,,,583.392,583.8940000000001,582.8790000000001,583.392,580.4060000000001,582.878,583.8940000000001,584.3950000000001,584.3950000000001,585.8170000000001,1063,585.8170000000001,2,585.8180000000001,1,21,51,3,1,1.4,0.3,Time
,,109550,001,男,22,2025-06-04_16h02.02.847,Serial_Dependence_U,2023.2.3,Win32,89.92805755399449,,,,,,585.8180000000001,89,1,585.8180000000001,89,,,,589.7740000000001,590.272,589.2640000000001,589.7740000000001,586.83,589.2640000000001,590.272,590.772,590.772,592.3560000000001,1350,592.3560000000001,3,592.3570000000001,1,22,52,28,1,1.4,0.7,Time
,,109550,001,男,22,2025-06-04_16h02.02.847,Serial_Dependence_U,2023.2.3,Win32,89.92805755399449,,,,,,592.3570000000001,6,1,592.3580000000001,6,,,,596.5280000000001,597.0280000000001,596.017,596.5280000000001,593.3570000000001,596.017,597.0280000000001,597.5280000000001,597.5280000000001,598.9800000000001,1180,598.9800000000001,2,598.9810000000001,1,23,53,24,1,1.6,0.3,Time
,,109550,001,男,22,2025-06-04_16h02.02.847,Serial_Dependence_U,2023.2.3,Win32,89.92805755399449,,,,,,598.9810000000001,263,1,598.9810000000001,263,,,,603.1310000000001,603.628,602.6290000000001,603.1310000000001,599.9840000000002,602.6290000000001,603.628,604.1270000000001,604.1270000000001,605.748,1308,605.748,2,605.7490000000001,1,24,54,29,1,1.6,0.7,Time
,,109550,001,男,22,2025-06-04_16h02.02.847,Serial_Dependence_U,2023.2.3,Win32,89.92805755399449,,,,,,605.7490000000001,80,1,605.7490000000001,80,,,,609.5120000000001,610.0050000000001,608.998,609.5120000000001,606.7630000000001,608.998,610.0050000000001,610.5050000000001,610.5050000000001,612.3550000000001,1410,612.3550000000001,4,612.3560000000001,1,25,55,7,1,1.2,0.7,Time
,,109550,001,男,22,2025-06-04_16h02.02.847,Serial_Dependence_U,2023.2.3,Win32,89.92805755399449,,,,,,612.3570000000001,130,1,612.3570000000001,130,,,,615.9060000000001,616.4050000000001,615.3840000000001,615.9060000000001,613.3530000000001,615.3840000000001,616.4050000000001,616.9060000000001,616.9060000000001,618.6070000000001,1369,618.6070000000001,5,618.6080000000001,1,26,56,26,1,1,0.7,Time
,,109550,001,男,22,2025-06-04_16h02.02.847,Serial_Dependence_U,2023.2.3,Win32,89.92805755399449,,,,,,618.6090000000002,328,1,618.6090000000002,328,,,,622.6000000000001,623.094,622.0850000000002,622.6000000000001,619.6240000000001,622.0850000000002,623.094,623.594,623.594,625.267,1157,625.267,2,625.2680000000001,1,27,57,23,1,1.4,0.3,Time
,,109550,001,男,22,2025-06-04_16h02.02.847,Serial_Dependence_U,2023.2.3,Win32,89.92805755399449,,,,,,625.2680000000001,146,1,625.2680000000001,146,,,,629.0090000000001,629.5050000000001,628.498,629.0090000000001,626.2610000000001,628.498,629.5050000000001,630.0050000000001,630.0050000000001,631.7730000000001,1405,631.7730000000001,4,631.7740000000001,1,28,58,27,1,1.2,0.7,Time
,,109550,001,男,22,2025-06-04_16h02.02.847,Serial_Dependence_U,2023.2.3,Win32,89.92805755399449,,,,,,631.7740000000001,255,1,631.7740000000001,255,,,,635.123,635.6160000000001,634.6210000000001,635.1220000000001,632.7790000000001,634.6210000000001,635.6160000000001,636.1160000000001,636.1160000000001,637.6690000000001,1213,637.6690000000001,5,637.6700000000001,1,29,59,15,1,0.8,0.7,Time
,,109550,001,男,22,2025-06-04_16h02.02.847,Serial_Dependence_U,2023.2.3,Win32,89.92805755399449,,,,,,637.6700000000001,26,2,640.695,26,s,3.006999999999948,,644.2730000000001,644.772,643.7640000000001,644.2730000000001,641.6990000000001,643.7640000000001,644.772,645.272,645.272,646.9960000000001,1278,646.9960000000001,4,646.9970000000001,2,0,60,21,1,1,0.3,Time
,,109550,001,男,22,2025-06-04_16h02.02.847,Serial_Dependence_U,2023.2.3,Win32,89.92805755399449,,,,,,646.998,194,2,646.9990000000001,194,,,,650.5400000000001,651.0390000000001,650.0350000000001,650.5400000000001,647.9960000000001,650.0350000000001,651.0390000000001,651.5390000000001,651.5390000000001,653.0550000000001,1109,653.0550000000001,4,653.056,2,1,61,6,1,1,0.7,Time
,,109550,001,男,22,2025-06-04_16h02.02.847,Serial_Dependence_U,2023.2.3,Win32,89.92805755399449,,,,,,653.056,41,2,653.056,41,,,,657.2400000000001,657.738,656.724,657.2400000000001,654.0570000000001,656.724,657.738,658.2390000000001,658.2390000000001,659.7450000000001,1177,659.7450000000001,2,659.7450000000001,2,2,62,24,1,1.6,0.3,Time
,,109550,001,男,22,2025-06-04_16h02.02.847,Serial_Dependence_U,2023.2.3,Win32,89.92805755399449,,,,,,659.7450000000001,183,2,659.7450000000001,183,,,,663.099,663.594,662.5830000000001,663.099,660.7460000000001,662.5830000000001,663.594,664.0950000000001,664.0950000000001,665.6450000000001,1268,665.6450000000001,5,665.6450000000001,2,3,63,5,1,0.8,0.7,Time
,,109550,001,男,22,2025-06-04_16h02.02.847,Serial_Dependence_U,2023.2.3,Win32,89.92805755399449,,,,,,665.6460000000001,331,2,665.6460000000001,331,,,,669.2350000000001,669.7270000000001,668.7300000000001,669.2350000000001,666.6550000000001,668.7300000000001,669.7270000000001,670.2270000000001,670.2270000000001,671.9370000000001,1480,671.9370000000001,5,671.9370000000001,2,4,64,11,1,1,0.3,Time
,,109550,001,男,22,2025-06-04_16h02.02.847,Serial_Dependence_U,2023.2.3,Win32,89.92805755399449,,,,,,671.9380000000001,90,2,671.9380000000001,90,,,,676.1330000000002,676.6270000000001,675.6220000000001,676.1330000000002,672.9480000000001,675.6220000000001,676.628,677.128,677.128,678.9860000000001,1667,678.9860000000001,3,678.988,2,5,65,14,1,1.6,0.3,Time
,,109550,001,男,22,2025-06-04_16h02.02.847,Serial_Dependence_U,2023.2.3,Win32,89.92805755399449,,,,,,678.9890000000001,312,2,678.9890000000001,312,,,,682.7650000000001,683.2610000000001,682.2600000000001,682.7650000000001,679.9860000000001,682.2600000000001,683.2610000000001,683.7610000000001,683.7610000000001,685.3950000000001,1409,685.3950000000001,4,685.3950000000001,2,6,66,22,1,1.2,0.3,Time
,,109550,001,男,22,2025-06-04_16h02.02.847,Serial_Dependence_U,2023.2.3,Win32,89.92805755399449,,,,,,685.3960000000001,106,2,685.3960000000001,106,,,,688.955,689.45,688.4380000000001,688.955,686.3950000000001,688.4380000000001,689.45,689.95,689.95,691.7450000000001,1493,691.7450000000001,5,691.7460000000001,2,7,67,16,1,1,0.7,Time
,,109550,001,男,22,2025-06-04_16h02.02.847,Serial_Dependence_U,2023.2.3,Win32,89.92805755399449,,,,,,691.7460000000001,213,2,691.7460000000001,213,,,,695.69,696.1840000000001,695.1860000000001,695.69,692.7460000000001,695.1860000000001,696.1840000000001,696.6840000000001,696.6840000000001,698.4630000000001,1528,698.4630000000001,4,698.4630000000001,2,8,68,8,1,1.4,0.7,Time
,,109550,001,男,22,2025-06-04_16h02.02.847,Serial_Dependence_U,2023.2.3,Win32,89.92805755399449,,,,,,698.464,211,2,698.464,211,,,,701.8640000000001,702.3610000000001,701.3520000000001,701.8640000000001,699.479,701.3520000000001,702.3620000000001,702.8610000000001,702.8610000000001,704.3400000000001,1232,704.3400000000001,5,704.3410000000001,2,9,69,20,1,0.8,0.3,Time
,,109550,001,男,22,2025-06-04_16h02.02.847,Serial_Dependence_U,2023.2.3,Win32,89.92805755399449,,,,,,704.3420000000001,48,2,704.3420000000001,48,,,,708.2830000000001,708.7830000000001,707.7730000000001,708.282,705.3400000000001,707.7730000000001,708.7830000000001,709.2840000000001,709.2840000000001,710.8420000000001,1298,710.8420000000001,2,710.8420000000001,2,10,70,28,1,1.4,0.7,Time
,,109550,001,男,22,2025-06-04_16h02.02.847,Serial_Dependence_U,2023.2.3,Win32,89.92805755399449,,,,,,710.8420000000001,281,2,710.8420000000001,281,,,,714.2070000000001,714.705,713.6960000000001,714.2070000000001,711.8460000000001,713.6960000000001,714.7060000000001,715.2060000000001,715.2060000000001,716.6790000000001,1257,716.6790000000001,5,716.6800000000001,2,11,71,25,1,0.8,0.7,Time
,,109550,001,男,22,2025-06-04_16h02.02.847,Serial_Dependence_U,2023.2.3,Win32,89.92805755399449,,,,,,716.6800000000001,100,2,716.6800000000001,100,,,,720.4520000000001,720.9510000000001,719.9430000000001,720.4520000000001,717.6780000000001,719.9430000000001,720.9510000000001,721.4510000000001,721.4510000000001,722.974,1102,722.9750000000001,2,722.9750000000001,2,12,72,12,1,1.2,0.3,Time
,,109550,001,男,22,2025-06-04_16h02.02.847,Serial_Dependence_U,2023.2.3,Win32,89.92805755399449,,,,,,722.9760000000001,169,2,722.9760000000001,169,,,,727.1320000000001,727.628,726.6190000000001,727.1320000000001,723.9770000000001,726.6190000000001,727.628,728.128,728.128,729.8830000000002,1553,729.8830000000002,3,729.8830000000002,2,13,73,9,1,1.6,0.7,Time
,,109550,001,男,22,2025-06-04_16h02.02.847,Serial_Dependence_U,2023.2.3,Win32,89.92805755399449,,,,,,729.8830000000002,6,2,729.8830000000002,6,,,,733.8500000000001,734.3510000000001,733.3470000000001,733.8500000000001,730.8850000000001,733.3470000000001,734.3510000000001,734.8500000000001,734.8500000000001,736.4410000000001,1359,736.4410000000001,3,736.4420000000001,2,14,74,13,1,1.4,0.3,Time
,,109550,001,男,22,2025-06-04_16h02.02.847,Serial_Dependence_U,2023.2.3,Win32,89.92805755399449,,,,,,736.4430000000001,277,2,736.4430000000001,277,,,,739.9920000000001,740.4940000000001,739.479,739.9920000000001,737.4410000000001,739.479,740.4940000000001,740.9950000000001,740.9950000000001,742.5690000000001,1246,742.5690000000001,4,742.57,2,15,75,26,1,1,0.7,Time
,,109550,001,男,22,2025-06-04_16h02.02.847,Serial_Dependence_U,2023.2.3,Win32,89.92805755399449,,,,,,742.57,104,2,742.57,104,,,,746.5520000000001,747.0500000000001,746.046,746.5520000000001,743.5780000000001,746.046,747.0500000000001,747.5500000000001,747.5500000000001,749.363,1516,749.3640000000001,4,749.3640000000001,2,16,76,23,1,1.4,0.3,Time
,,109550,001,男,22,2025-06-04_16h02.02.847,Serial_Dependence_U,2023.2.3,Win32,89.92805755399449,,,,,,749.3650000000001,132,2,749.3650000000001,132,,,,753.3410000000001,753.839,752.8260000000001,753.3410000000001,750.3620000000001,752.8260000000001,753.839,754.339,754.339,755.969,1301,755.969,2,755.969,2,17,77,3,1,1.4,0.3,Time
,,109550,001,男,22,2025-06-04_16h02.02.847,Serial_Dependence_U,2023.2.3,Win32,89.92805755399449,,,,,,755.969,85,2,755.969,85,,,,759.5340000000001,760.0280000000001,759.0340000000001,759.5340000000001,756.9680000000001,759.0340000000001,760.0280000000001,760.5280000000001,760.5290000000001,761.6290000000001,972,761.6290000000001,3,761.6300000000001,2,18,78,1,1,1,0.3,Time
,,109550,001,男,22,2025-06-04_16h02.02.847,Serial_Dependence_U,2023.2.3,Win32,89.92805755399449,,,,,,761.6300000000001,295,2,761.6300000000001,295,,,,765.0060000000001,765.5060000000001,764.5020000000001,765.0050000000001,762.6400000000001,764.5020000000001,765.5060000000001,766.0060000000001,766.0060000000001,767.4120000000001,1192,767.4120000000001,5,767.4130000000001,2,19,79,0,1,0.8,0.3,Time
,,109550,001,男,22,2025-06-04_16h02.02.847,Serial_Dependence_U,2023.2.3,Win32,89.92805755399449,,,,,,767.4130000000001,64,2,767.4140000000001,64,,,,771.1560000000001,771.6500000000001,770.6430000000001,771.1560000000001,768.407,770.6430000000001,771.6500000000001,772.1500000000001,772.1500000000001,773.8280000000001,1344,773.8280000000001,4,773.8280000000001,2,20,80,17,1,1.2,0.7,Time
,,109550,001,男,22,2025-06-04_16h02.02.847,Serial_Dependence_U,2023.2.3,Win32,89.92805755399449,,,,,,773.8280000000001,2,2,773.8280000000001,2,,,,777.9900000000001,778.4840000000002,777.4770000000001,777.9900000000001,774.8410000000001,777.4770000000001,778.4840000000002,778.9840000000002,778.9840000000002,780.5900000000001,1307,780.5910000000001,2,780.5910000000001,2,21,81,29,1,1.6,0.7,Time
,,109550,001,男,22,2025-06-04_16h02.02.847,Serial_Dependence_U,2023.2.3,Win32,89.92805755399449,,,,,,780.5910000000001,10,2,780.5910000000001,10,,,,784.7320000000001,785.2280000000001,784.2270000000001,784.7320000000001,781.589,784.2270000000001,785.2280000000001,785.7280000000001,785.7280000000001,787.6300000000001,1527,787.6300000000001,3,787.6300000000001,2,22,82,19,1,1.6,0.7,Time
,,109550,001,男,22,2025-06-04_16h02.02.847,Serial_Dependence_U,2023.2.3,Win32,89.92805755399449,,,,,,787.6310000000001,173,2,787.6310000000001,173,,,,791.4190000000001,791.9170000000001,790.9130000000001,791.4190000000001,788.6410000000001,790.9130000000001,791.9170000000001,792.4170000000001,792.4170000000001,794.0630000000001,1379,794.0630000000001,4,794.0640000000001,2,23,83,2,1,1.2,0.3,Time
,,109550,001,男,22,2025-06-04_16h02.02.847,Serial_Dependence_U,2023.2.3,Win32,89.92805755399449,,,,,,794.0640000000001,170,2,794.0640000000001,170,,,,798.2450000000001,798.7390000000001,797.729,798.2450000000001,795.0630000000001,797.729,798.7390000000001,799.2400000000001,799.2400000000001,801.0210000000001,1480,801.0210000000001,2,801.022,2,24,84,4,1,1.6,0.3,Time
,,109550,001,男,22,2025-06-04_16h02.02.847,Serial_Dependence_U,2023.2.3,Win32,89.92805755399449,,,,,,801.0230000000001,339,2,801.0230000000001,339,,,,804.3600000000001,804.8620000000001,803.8580000000001,804.3600000000001,802.0280000000001,803.8580000000001,804.8620000000001,805.3620000000001,805.3620000000001,807.1860000000001,1518,807.1860000000001,5,807.1870000000001,2,25,85,15,1,0.8,0.7,Time
,,109550,001,男,22,2025-06-04_16h02.02.847,Serial_Dependence_U,2023.2.3,Win32,89.92805755399449,,,,,,807.1880000000001,171,2,807.1880000000001,171,,,,810.58,811.0730000000001,810.0630000000001,810.5790000000001,808.1970000000001,810.0630000000001,811.0730000000001,811.5730000000001,811.5730000000001,813.2940000000001,1387,813.2940000000001,5,813.2950000000001,2,26,86,10,1,0.8,0.3,Time
,,109550,001,男,22,2025-06-04_16h02.02.847,Serial_Dependence_U,2023.2.3,Win32,89.92805755399449,,,,,,813.2950000000001,241,2,813.2950000000001,241,,,,817.0440000000001,817.5390000000001,816.527,817.0440000000001,814.2950000000001,816.527,817.5390000000001,818.0400000000001,818.0400000000001,819.9590000000001,1630,819.9590000000001,5,819.9590000000001,2,27,87,27,1,1.2,0.7,Time
,,109550,001,男,22,2025-06-04_16h02.02.847,Serial_Dependence_U,2023.2.3,Win32,89.92805755399449,,,,,,819.9600000000002,63,2,819.9600000000002,63,,,,823.714,824.2060000000001,823.2020000000001,823.714,820.9710000000001,823.2020000000001,824.2060000000001,824.7060000000001,824.7060000000001,826.4430000000001,1447,826.4430000000001,4,826.4430000000001,2,28,88,7,1,1.2,0.7,Time
,,109550,001,男,22,2025-06-04_16h02.02.847,Serial_Dependence_U,2023.2.3,Win32,89.92805755399449,,,,,,826.4430000000001,42,2,826.4430000000001,42,,,,830.3850000000001,830.8840000000001,829.8800000000001,830.3850000000001,827.4410000000001,829.8800000000001,830.8840000000001,831.3840000000001,831.3840000000001,833.219,1550,833.219,4,833.2200000000001,2,29,89,18,1,1.4,0.7,Time
,,109550,001,男,22,2025-06-04_16h02.02.847,Serial_Dependence_U,2023.2.3,Win32,89.92805755399449,,,,,,833.2210000000001,212,3,1683.608,212,s,850.3709999999999,,1687.381,1687.875,1686.881,1687.381,1684.617,1686.881,1687.875,1688.375,1688.375,1690.151,1435,1690.151,4,1690.152,3,0,90,2,1,1.2,0.3,Time
,,109550,001,男,22,2025-06-04_16h02.02.847,Serial_Dependence_U,2023.2.3,Win32,89.92805755399449,,,,,,1690.153,314,3,1690.155,314,,,,1693.941,1694.442,1693.426,1693.941,1691.157,1693.426,1694.442,1694.942,1694.942,1696.685,1463,1696.685,4,1696.685,3,1,91,12,1,1.2,0.3,Time
,,109550,001,男,22,2025-06-04_16h02.02.847,Serial_Dependence_U,2023.2.3,Win32,89.92805755399449,,,,,,1696.686,312,3,1696.686,312,,,,1700.872,1701.364,1700.36,1700.872,1697.6879999999999,1700.36,1701.364,1701.864,1701.864,1703.477,1367,1703.477,2,1703.478,3,2,92,24,1,1.6,0.3,Time
,,109550,001,男,22,2025-06-04_16h02.02.847,Serial_Dependence_U,2023.2.3,Win32,89.92805755399449,,,,,,1703.478,165,3,1703.478,165,,,,1707.249,1707.742,1706.735,1707.249,1704.487,1706.735,1707.742,1708.242,1708.242,1709.76,1290,1709.76,4,1709.76,3,3,93,7,1,1.2,0.7,Time
,,109550,001,男,22,2025-06-04_16h02.02.847,Serial_Dependence_U,2023.2.3,Win32,89.92805755399449,,,,,,1709.76,3,3,1709.76,3,,,,1713.942,1714.442,1713.433,1713.942,1710.754,1713.433,1714.442,1714.942,1714.942,1716.338,1179,1716.338,2,1716.338,3,4,94,4,1,1.6,0.3,Time
,,109550,001,男,22,2025-06-04_16h02.02.847,Serial_Dependence_U,2023.2.3,Win32,89.92805755399449,,,,,,1716.339,144,3,1716.339,144,,,,1720.304,1720.797,1719.788,1720.304,1717.354,1719.788,1720.797,1721.297,1721.297,1722.822,1244,1722.822,2,1722.822,3,5,95,28,1,1.4,0.7,Time
,,109550,001,男,22,2025-06-04_16h02.02.847,Serial_Dependence_U,2023.2.3,Win32,89.92805755399449,,,,,,1722.822,28,3,1722.822,28,,,,1726.383,1726.875,1725.869,1726.382,1723.828,1725.869,1726.875,1727.375,1727.375,1728.718,1093,1728.718,4,1728.719,3,6,96,16,1,1,0.7,Time
,,109550,001,男,22,2025-06-04_16h02.02.847,Serial_Dependence_U,2023.2.3,Win32,89.92805755399449,,,,,,1728.72,47,3,1728.72,47,,,,1732.703,1733.197,1732.201,1732.702,1729.7359999999999,1732.201,1733.197,1733.697,1733.697,1735.23,1393,1735.23,3,1735.231,3,7,97,23,1,1.4,0.3,Time
,,109550,001,男,22,2025-06-04_16h02.02.847,Serial_Dependence_U,2023.2.3,Win32,89.92805755399449,,,,,,1735.231,292,3,1735.231,292,,,,1738.596,1739.097,1738.083,1738.596,1736.241,1738.083,1739.097,1739.597,1739.597,1741.086,1192,1741.086,5,1741.087,3,8,98,25,1,0.8,0.7,Time
,,109550,001,男,22,2025-06-04_16h02.02.847,Serial_Dependence_U,2023.2.3,Win32,89.92805755399449,,,,,,1741.087,314,3,1741.087,314,,,,1745.235,1745.731,1744.732,1745.235,1742.093,1744.732,1745.731,1746.231,1746.231,1747.833,1182,1747.833,2,1747.833,3,9,99,9,1,1.6,0.7,Time
,,109550,001,男,22,2025-06-04_16h02.02.847,Serial_Dependence_U,2023.2.3,Win32,89.92805755399449,,,,,,1747.834,250,3,1747.834,250,,,,1751.5919999999999,1752.086,1751.079,1751.5919999999999,1748.836,1751.079,1752.086,1752.587,1752.587,1754.452,1525,1754.452,4,1754.452,3,10,100,27,1,1.2,0.7,Time
,,109550,001,男,22,2025-06-04_16h02.02.847,Serial_Dependence_U,2023.2.3,Win32,89.92805755399449,,,,,,1754.453,120,3,1754.453,120,,,,1757.866,1758.364,1757.343,1757.866,1755.471,1757.343,1758.364,1758.865,1758.865,1760.195,1187,1760.196,5,1760.196,3,11,101,0,1,0.8,0.3,Time
,,109550,001,男,22,2025-06-04_16h02.02.847,Serial_Dependence_U,2023.2.3,Win32,89.92805755399449,,,,,,1760.197,302,3,1760.197,302,,,,1763.547,1764.042,1763.032,1763.547,1761.199,1763.032,1764.042,1764.542,1764.542,1766.243,1269,1766.244,5,1766.245,3,12,102,15,1,0.8,0.7,Time
,,109550,001,男,22,2025-06-04_16h02.02.847,Serial_Dependence_U,2023.2.3,Win32,89.92805755399449,,,,,,1766.245,240,3,1766.245,240,,,,1769.83,1770.331,1769.321,1769.83,1767.247,1769.321,1770.331,1770.831,1770.831,1772.41,1233,1772.41,4,1772.41,3,13,103,1,1,1,0.3,Time
,,109550,001,男,22,2025-06-04_16h02.02.847,Serial_Dependence_U,2023.2.3,Win32,89.92805755399449,,,,,,1772.411,26,3,1772.411,26,,,,1775.7649999999999,1776.264,1775.263,1775.7649999999999,1773.421,1775.263,1776.264,1776.764,1776.764,1778.414,1294,1778.414,5,1778.415,3,14,104,5,1,0.8,0.7,Time
,,109550,001,男,22,2025-06-04_16h02.02.847,Serial_Dependence_U,2023.2.3,Win32,89.92805755399449,,,,,,1778.415,65,3,1778.415,65,,,,1782.395,1782.897,1781.894,1782.395,1779.421,1781.893,1782.897,1783.398,1783.398,1784.963,1267,1784.963,2,1784.964,3,15,105,13,1,1.4,0.3,Time
,,109550,001,男,22,2025-06-04_16h02.02.847,Serial_Dependence_U,2023.2.3,Win32,89.92805755399449,,,,,,1784.964,320,3,1784.964,320,,,,1788.731,1789.231,1788.228,1788.731,1785.9669999999999,1788.228,1789.231,1789.731,1789.731,1791.165,1156,1791.165,3,1791.166,3,16,106,22,1,1.2,0.3,Time
,,109550,001,男,22,2025-06-04_16h02.02.847,Serial_Dependence_U,2023.2.3,Win32,89.92805755399449,,,,,,1791.167,334,3,1791.167,334,,,,1794.745,1795.242,1794.244,1794.745,1792.1779999999999,1794.244,1795.242,1795.742,1795.742,1797.281,1180,1797.281,4,1797.282,3,17,107,11,1,1,0.3,Time
,,109550,001,男,22,2025-06-04_16h02.02.847,Serial_Dependence_U,2023.2.3,Win32,89.92805755399449,,,,,,1797.282,165,3,1797.282,165,,,,1800.648,1801.142,1800.146,1800.648,1798.28,1800.146,1801.142,1801.642,1801.642,1803.297,1435,1803.297,5,1803.298,3,18,108,20,1,0.8,0.3,Time
,,109550,001,男,22,2025-06-04_16h02.02.847,Serial_Dependence_U,2023.2.3,Win32,89.92805755399449,,,,,,1803.298,267,3,1803.298,267,,,,1807.454,1807.953,1806.948,1807.454,1804.304,1806.948,1807.953,1808.454,1808.454,1810.325,1560,1810.325,3,1810.326,3,19,109,29,1,1.6,0.7,Time
,,109550,001,男,22,2025-06-04_16h02.02.847,Serial_Dependence_U,2023.2.3,Win32,89.92805755399449,,,,,,1810.326,34,3,1810.326,34,,,,1813.908,1814.408,1813.407,1813.907,1811.344,1813.406,1814.408,1814.908,1814.9089999999999,1816.2,1094,1816.2,4,1816.2,3,20,110,21,1,1,0.3,Time
,,109550,001,男,22,2025-06-04_16h02.02.847,Serial_Dependence_U,2023.2.3,Win32,89.92805755399449,,,,,,1816.2,331,3,1816.201,331,,,,1820.164,1820.665,1819.662,1820.164,1817.198,1819.662,1820.665,1821.164,1821.164,1822.837,1362,1822.837,3,1822.838,3,21,111,3,1,1.4,0.3,Time
,,109550,001,男,22,2025-06-04_16h02.02.847,Serial_Dependence_U,2023.2.3,Win32,89.92805755399449,,,,,,1822.839,356,3,1822.839,356,,,,1826.216,1826.709,1825.713,1826.216,1823.8419999999999,1825.713,1826.709,1827.209,1827.209,1828.82,1278,1828.82,5,1828.821,3,22,112,10,1,0.8,0.3,Time
,,109550,001,男,22,2025-06-04_16h02.02.847,Serial_Dependence_U,2023.2.3,Win32,89.92805755399449,,,,,,1828.821,231,3,1828.822,231,,,,1832.97,1833.465,1832.465,1832.97,1829.824,1832.465,1833.465,1833.965,1833.965,1835.555,1316,1835.555,2,1835.556,3,23,113,19,1,1.6,0.7,Time
,,109550,001,男,22,2025-06-04_16h02.02.847,Serial_Dependence_U,2023.2.3,Win32,89.92805755399449,,,,,,1835.556,158,3,1835.556,158,,,,1839.099,1839.598,1838.593,1839.099,1836.554,1838.593,1839.598,1840.098,1840.098,1841.671,1272,1841.671,4,1841.671,3,24,114,26,1,1,0.7,Time
,,109550,001,男,22,2025-06-04_16h02.02.847,Serial_Dependence_U,2023.2.3,Win32,89.92805755399449,,,,,,1841.671,327,3,1841.672,327,,,,1845.615,1846.109,1845.105,1845.615,1842.671,1845.105,1846.109,1846.609,1846.609,1848.0439999999999,1198,1848.0439999999999,2,1848.045,3,25,115,18,1,1.4,0.7,Time
,,109550,001,男,22,2025-06-04_16h02.02.847,Serial_Dependence_U,2023.2.3,Win32,89.92805755399449,,,,,,1848.045,158,3,1848.045,158,,,,1851.994,1852.487,1851.482,1851.993,1849.0439999999999,1851.482,1852.487,1852.987,1852.987,1854.605,1298,1854.605,2,1854.606,3,26,116,8,1,1.4,0.7,Time
,,109550,001,男,22,2025-06-04_16h02.02.847,Serial_Dependence_U,2023.2.3,Win32,89.92805755399449,,,,,,1854.606,213,3,1854.607,213,,,,1858.788,1859.286,1858.288,1858.788,1855.622,1858.288,1859.286,1859.787,1859.787,1861.363,1248,1861.363,2,1861.364,3,27,117,14,1,1.6,0.3,Time
,,109550,001,男,22,2025-06-04_16h02.02.847,Serial_Dependence_U,2023.2.3,Win32,89.92805755399449,,,,,,1861.364,166,3,1861.364,166,,,,1864.93,1865.431,1864.422,1864.929,1862.382,1864.421,1865.431,1865.931,1865.931,1867.655,1395,1867.655,5,1867.656,3,28,118,6,1,1,0.7,Time
,,109550,001,男,22,2025-06-04_16h02.02.847,Serial_Dependence_U,2023.2.3,Win32,89.92805755399449,,,,,,1867.656,97,3,1867.657,97,,,,1871.402,1871.898,1870.899,1871.402,1868.662,1870.899,1871.898,1872.398,1872.398,1874.0079999999998,1313,1874.0079999999998,4,1874.0079999999998,3,29,119,17,1,1.2,0.7,Time
,,109550,001,男,22,2025-06-04_16h02.02.847,Serial_Dependence_U,2023.2.3,Win32,89.92805755399449,,,,,,1874.009,304,4,1913.2770000000003,304,s,39.25200000000018,,1916.8490000000004,1917.343,1916.3470000000004,1916.8490000000004,1914.2830000000001,1916.3470000000004,1917.343,1917.843,1917.843,1919.611,1333,1919.611,5,1919.6120000000003,4,0,120,1,1,1,0.3,Time
,,109550,001,男,22,2025-06-04_16h02.02.847,Serial_Dependence_U,2023.2.3,Win32,89.92805755399449,,,,,,1919.613,45,4,1919.615,45,,,,1922.9890000000003,1923.4870000000003,1922.4830000000004,1922.9890000000003,1920.6100000000004,1922.4830000000004,1923.4870000000003,1923.9870000000003,1923.9870000000003,1925.4830000000004,1096,1925.4830000000004,5,1925.4830000000004,4,1,121,10,1,0.8,0.3,Time
,,109550,001,男,22,2025-06-04_16h02.02.847,Serial_Dependence_U,2023.2.3,Win32,89.92805755399449,,,,,,1925.4830000000004,185,4,1925.4840000000002,185,,,,1929.669,1930.164,1929.169,1929.669,1926.5000000000002,1929.169,1930.164,1930.6650000000002,1930.6650000000002,1932.352,1359,1932.352,2,1932.3530000000003,4,2,122,24,1,1.6,0.3,Time
,,109550,001,男,22,2025-06-04_16h02.02.847,Serial_Dependence_U,2023.2.3,Win32,89.92805755399449,,,,,,1932.3530000000003,142,4,1932.354,142,,,,1935.711,1936.209,1935.1960000000001,1935.711,1933.3620000000003,1935.1960000000001,1936.209,1936.709,1936.709,1938.231,1139,1938.231,5,1938.2320000000002,4,3,123,25,1,0.8,0.7,Time
,,109550,001,男,22,2025-06-04_16h02.02.847,Serial_Dependence_U,2023.2.3,Win32,89.92805755399449,,,,,,1938.2320000000002,330,4,1938.2320000000002,330,,,,1941.6170000000004,1942.1090000000002,1941.115,1941.6160000000002,1939.2480000000003,1941.115,1942.1090000000002,1942.6100000000004,1942.6100000000004,1944.104,1122,1944.104,5,1944.104,4,4,124,20,1,0.8,0.3,Time
,,109550,001,男,22,2025-06-04_16h02.02.847,Serial_Dependence_U,2023.2.3,Win32,89.92805755399449,,,,,,1944.1050000000002,247,4,1944.1050000000002,247,,,,1948.073,1948.5650000000003,1947.573,1948.073,1945.104,1947.573,1948.5650000000003,1949.0650000000003,1949.0650000000003,1950.544,1240,1950.544,2,1950.546,4,5,125,13,1,1.4,0.3,Time
,,109550,001,男,22,2025-06-04_16h02.02.847,Serial_Dependence_U,2023.2.3,Win32,89.92805755399449,,,,,,1950.546,164,4,1950.5470000000003,164,,,,1954.316,1954.8090000000004,1953.8150000000003,1954.316,1951.544,1953.8150000000003,1954.8090000000004,1955.3100000000002,1955.3100000000002,1956.8490000000004,1220,1956.8490000000004,3,1956.8490000000004,4,6,126,12,1,1.2,0.3,Time
,,109550,001,男,22,2025-06-04_16h02.02.847,Serial_Dependence_U,2023.2.3,Win32,89.92805755399449,,,,,,1956.8490000000004,24,4,1956.8490000000004,24,,,,1960.4220000000003,1960.921,1959.9220000000003,1960.4220000000003,1957.845,1959.9220000000003,1960.921,1961.421,1961.421,1963.1090000000002,1488,1963.1090000000002,5,1963.1100000000004,4,7,127,21,1,1,0.3,Time
,,109550,001,男,22,2025-06-04_16h02.02.847,Serial_Dependence_U,2023.2.3,Win32,89.92805755399449,,,,,,1963.1100000000004,14,4,1963.1100000000004,14,,,,1967.0880000000004,1967.5870000000002,1966.5780000000002,1967.0870000000002,1964.1100000000004,1966.5780000000002,1967.5870000000002,1968.0870000000002,1968.0870000000002,1969.611,1264,1969.611,2,1969.611,4,8,128,23,1,1.4,0.3,Time
,,109550,001,男,22,2025-06-04_16h02.02.847,Serial_Dependence_U,2023.2.3,Win32,89.92805755399449,,,,,,1969.6120000000003,78,4,1969.6120000000003,78,,,,1973.5670000000002,1974.0650000000003,1973.066,1973.5670000000002,1970.6190000000004,1973.066,1974.0650000000003,1974.564,1974.564,1976.361,1500,1976.361,4,1976.361,4,9,129,18,1,1.4,0.7,Time
,,109550,001,男,22,2025-06-04_16h02.02.847,Serial_Dependence_U,2023.2.3,Win32,89.92805755399449,,,,,,1976.361,74,4,1976.361,74,,,,1980.3200000000004,1980.8210000000001,1979.8170000000002,1980.3200000000004,1977.354,1979.8170000000002,1980.8210000000001,1981.3210000000001,1981.3210000000001,1983.0830000000003,1506,1983.0830000000003,4,1983.0830000000003,4,10,130,3,1,1.4,0.3,Time
,,109550,001,男,22,2025-06-04_16h02.02.847,Serial_Dependence_U,2023.2.3,Win32,89.92805755399449,,,,,,1983.084,135,4,1983.084,135,,,,1986.8700000000001,1987.365,1986.3570000000002,1986.8700000000001,1984.0880000000004,1986.3570000000002,1987.365,1987.8640000000003,1987.8640000000003,1989.526,1406,1989.526,4,1989.5270000000003,4,11,131,22,1,1.2,0.3,Time
,,109550,001,男,22,2025-06-04_16h02.02.847,Serial_Dependence_U,2023.2.3,Win32,89.92805755399449,,,,,,1989.5270000000003,64,4,1989.5270000000003,64,,,,1992.9110000000003,1993.4090000000003,1992.4110000000003,1992.9110000000003,1990.5360000000003,1992.4110000000003,1993.41,1993.9090000000003,1993.9090000000003,1995.7260000000003,1474,1995.7260000000003,5,1995.727,4,12,132,0,1,0.8,0.3,Time
,,109550,001,男,22,2025-06-04_16h02.02.847,Serial_Dependence_U,2023.2.3,Win32,89.92805755399449,,,,,,1995.727,28,4,1995.727,28,,,,1999.26,1999.7540000000001,1998.76,1999.26,1996.7260000000003,1998.7590000000002,1999.7540000000001,2000.2540000000001,2000.2540000000001,2002.073,1592,2002.073,5,2002.075,4,13,133,26,1,1,0.7,Time
,,109550,001,男,22,2025-06-04_16h02.02.847,Serial_Dependence_U,2023.2.3,Win32,89.92805755399449,,,,,,2002.075,50,4,2002.075,50,,,,2006.2340000000002,2006.7320000000002,2005.727,2006.2340000000002,2003.0940000000003,2005.727,2006.7320000000002,2007.231,2007.231,2008.9780000000003,1450,2008.9780000000003,2,2008.9780000000003,4,14,134,19,1,1.6,0.7,Time
,,109550,001,男,22,2025-06-04_16h02.02.847,Serial_Dependence_U,2023.2.3,Win32,89.92805755399449,,,,,,2008.979,95,4,2008.979,95,,,,2012.921,2013.421,2012.4200000000003,2012.921,2009.9780000000003,2012.419,2013.421,2013.9200000000003,2013.9200000000003,2015.6970000000003,1500,2015.6970000000003,4,2015.6970000000003,4,15,135,28,1,1.4,0.7,Time
,,109550,001,男,22,2025-06-04_16h02.02.847,Serial_Dependence_U,2023.2.3,Win32,89.92805755399449,,,,,,2015.698,306,4,2015.698,306,,,,2019.461,2019.9540000000004,2018.952,2019.4600000000003,2016.711,2018.9510000000002,2019.9540000000004,2020.4540000000004,2020.4540000000004,2022.2420000000004,1561,2022.2420000000004,5,2022.2430000000002,4,16,136,7,1,1.2,0.7,Time
,,109550,001,男,22,2025-06-04_16h02.02.847,Serial_Dependence_U,2023.2.3,Win32,89.92805755399449,,,,,,2022.2430000000002,141,4,2022.2430000000002,141,,,,2026.037,2026.5320000000004,2025.5230000000004,2026.037,2023.2540000000001,2025.5220000000002,2026.5320000000004,2027.0320000000004,2027.0320000000004,2028.611,1300,2028.611,4,2028.6120000000003,4,17,137,2,1,1.2,0.3,Time
,,109550,001,男,22,2025-06-04_16h02.02.847,Serial_Dependence_U,2023.2.3,Win32,89.92805755399449,,,,,,2028.6120000000003,149,4,2028.613,149,,,,2031.9650000000004,2032.4650000000004,2031.4560000000004,2031.9650000000004,2029.6230000000003,2031.4560000000004,2032.4650000000004,2032.9650000000004,2032.9650000000004,2034.4380000000003,1190,2034.4380000000003,5,2034.439,4,18,138,5,1,0.8,0.7,Time
,,109550,001,男,22,2025-06-04_16h02.02.847,Serial_Dependence_U,2023.2.3,Win32,89.92805755399449,,,,,,2034.439,226,4,2034.439,226,,,,2037.9950000000001,2038.4870000000003,2037.4940000000004,2037.9950000000001,2035.448,2037.4930000000002,2038.4870000000003,2038.9870000000003,2038.9870000000003,2040.5120000000004,1259,2040.5120000000004,4,2040.5120000000004,4,19,139,16,1,1,0.7,Time
,,109550,001,男,22,2025-06-04_16h02.02.847,Serial_Dependence_U,2023.2.3,Win32,89.92805755399449,,,,,,2040.5130000000001,181,4,2040.5130000000001,181,,,,2044.095,2044.5870000000002,2043.5940000000003,2044.095,2041.515,2043.5940000000003,2044.5870000000002,2045.0870000000002,2045.0870000000002,2046.3710000000003,1072,2046.3710000000003,4,2046.372,4,20,140,11,1,1,0.3,Time
,,109550,001,男,22,2025-06-04_16h02.02.847,Serial_Dependence_U,2023.2.3,Win32,89.92805755399449,,,,,,2046.3730000000003,228,4,2046.374,228,,,,2050.323,2050.82,2049.82,2050.323,2047.3890000000004,2049.82,2050.82,2051.321,2051.321,2052.938,1329,2052.938,2,2052.939,4,21,141,8,1,1.4,0.7,Time
,,109550,001,男,22,2025-06-04_16h02.02.847,Serial_Dependence_U,2023.2.3,Win32,89.92805755399449,,,,,,2052.939,92,4,2052.939,92,,,,2056.478,2056.976,2055.964,2056.478,2053.933,2055.964,2056.976,2057.476,2057.476,2059.038,1278,2059.038,4,2059.038,4,22,142,6,1,1,0.7,Time
,,109550,001,男,22,2025-06-04_16h02.02.847,Serial_Dependence_U,2023.2.3,Win32,89.92805755399449,,,,,,2059.0389999999998,120,4,2059.0389999999998,120,,,,2063.217,2063.71,2062.71,2063.217,2060.038,2062.71,2063.71,2064.21,2064.21,2064.615,128,2064.616,1,2064.616,4,23,143,4,1,1.6,0.3,Time
,,109550,001,男,22,2025-06-04_16h02.02.847,Serial_Dependence_U,2023.2.3,Win32,89.92805755399449,,,,,,2064.616,137,4,2064.616,137,,,,2068.362,2068.854,2067.849,2068.362,2065.611,2067.849,2068.854,2069.354,2069.354,2071.182,1554,2071.183,4,2071.183,4,24,144,17,1,1.2,0.7,Time
,,109550,001,男,22,2025-06-04_16h02.02.847,Serial_Dependence_U,2023.2.3,Win32,89.92805755399449,,,,,,2071.183,137,4,2071.183,137,,,,2074.543,2075.043,2074.03,2074.543,2072.189,2074.03,2075.043,2075.543,2075.543,2077.131,1300,2077.131,5,2077.132,4,25,145,15,1,0.8,0.7,Time
,,109550,001,男,22,2025-06-04_16h02.02.847,Serial_Dependence_U,2023.2.3,Win32,89.92805755399449,,,,,,2077.133,105,4,2077.133,105,,,,2081.282,2081.776,2080.78,2081.282,2078.145,2080.779,2081.776,2082.276,2082.276,2084.013,1393,2084.013,2,2084.013,4,26,146,9,1,1.6,0.7,Time
,,109550,001,男,22,2025-06-04_16h02.02.847,Serial_Dependence_U,2023.2.3,Win32,89.92805755399449,,,,,,2084.014,55,4,2084.014,55,,,,2088.197,2088.698,2087.694,2088.197,2085.027,2087.694,2088.699,2089.198,2089.198,2090.727,1191,2090.727,2,2090.728,4,27,147,14,1,1.6,0.3,Time
,,109550,001,男,22,2025-06-04_16h02.02.847,Serial_Dependence_U,2023.2.3,Win32,89.92805755399449,,,,,,2090.728,121,4,2090.728,121,,,,2094.872,2095.365,2094.365,2094.872,2091.722,2094.365,2095.365,2095.865,2095.865,2097.545,1347,2097.545,2,2097.546,4,28,148,29,1,1.6,0.7,Time
,,109550,001,男,22,2025-06-04_16h02.02.847,Serial_Dependence_U,2023.2.3,Win32,89.92805755399449,,,,,,2097.546,156,4,2097.546,156,,,,2101.294,2101.787,2100.782,2101.294,2098.55,2100.782,2101.787,2102.287,2102.287,2104.36,1722,2104.36,5,2104.36,4,29,149,27,1,1.2,0.7,Time
,,109550,001,男,22,2025-06-04_16h02.02.847,Serial_Dependence_U,2023.2.3,Win32,89.92805755399449,,,,,,2104.36,45,5,2135.299,45,s,30.920000000000073,,2139.078,2139.5769999999998,2138.575,2139.078,2136.307,2138.574,2139.5769999999998,2140.0769999999998,2140.0769999999998,2141.838,1422,2141.838,4,2141.839,5,0,150,2,1,1.2,0.3,Time
,,109550,001,男,22,2025-06-04_16h02.02.847,Serial_Dependence_U,2023.2.3,Win32,89.92805755399449,,,,,,2141.84,7,5,2141.841,7,,,,2145.821,2146.321,2145.311,2145.821,2142.844,2145.311,2146.321,2146.821,2146.821,2148.61,1466,2148.61,3,2148.611,5,1,151,3,1,1.4,0.3,Time
,,109550,001,男,22,2025-06-04_16h02.02.847,Serial_Dependence_U,2023.2.3,Win32,89.92805755399449,,,,,,2148.611,85,5,2148.611,85,,,,2152.004,2152.499,2151.489,2152.004,2149.618,2151.489,2152.499,2152.999,2152.999,2154.52,1235,2154.52,5,2154.521,5,2,152,10,1,0.8,0.3,Time
,,109550,001,男,22,2025-06-04_16h02.02.847,Serial_Dependence_U,2023.2.3,Win32,89.92805755399449,,,,,,2154.521,339,5,2154.522,339,,,,2158.104,2158.599,2157.589,2158.104,2155.529,2157.589,2158.599,2159.099,2159.099,2160.697,1308,2160.698,5,2160.698,5,3,153,1,1,1,0.3,Time
,,109550,001,男,22,2025-06-04_16h02.02.847,Serial_Dependence_U,2023.2.3,Win32,89.92805755399449,,,,,,2160.698,52,5,2160.698,52,,,,2164.852,2165.354,2164.338,2164.852,2161.706,2164.338,2165.354,2165.854,2165.854,2167.27,1182,2167.27,2,2167.27,5,4,154,9,1,1.6,0.7,Time
,,109550,001,男,22,2025-06-04_16h02.02.847,Serial_Dependence_U,2023.2.3,Win32,89.92805755399449,,,,,,2167.271,353,5,2167.271,353,,,,2171.0099999999998,2171.5099999999998,2170.508,2171.0099999999998,2168.266,2170.508,2171.5099999999998,2172.0099999999998,2172.0099999999998,2173.728,1441,2173.728,4,2173.729,5,5,155,27,1,1.2,0.7,Time
,,109550,001,男,22,2025-06-04_16h02.02.847,Serial_Dependence_U,2023.2.3,Win32,89.92805755399449,,,,,,2173.729,29,5,2173.73,29,,,,2177.917,2178.41,2177.405,2177.917,2174.743,2177.405,2178.41,2178.91,2178.91,2180.831,1448,2180.831,2,2180.831,5,6,156,4,1,1.6,0.3,Time
,,109550,001,男,22,2025-06-04_16h02.02.847,Serial_Dependence_U,2023.2.3,Win32,89.92805755399449,,,,,,2180.831,226,5,2180.831,226,,,,2184.227,2184.721,2183.71,2184.226,2181.847,2183.71,2184.721,2185.221,2185.221,2186.857,1229,2186.857,5,2186.858,5,7,157,0,1,0.8,0.3,Time
,,109550,001,男,22,2025-06-04_16h02.02.847,Serial_Dependence_U,2023.2.3,Win32,89.92805755399449,,,,,,2186.858,345,5,2186.858,345,,,,2190.411,2190.91,2189.901,2190.411,2187.855,2189.901,2190.91,2191.41,2191.41,2193.023,1247,2193.023,4,2193.024,5,8,158,26,1,1,0.7,Time
,,109550,001,男,22,2025-06-04_16h02.02.847,Serial_Dependence_U,2023.2.3,Win32,89.92805755399449,,,,,,2193.024,331,5,2193.025,331,,,,2196.79,2197.288,2196.267,2196.7889999999998,2194.03,2196.267,2197.288,2197.788,2197.788,2199.704,1400,2199.705,4,2199.705,5,9,159,17,1,1.2,0.7,Time
,,109550,001,男,22,2025-06-04_16h02.02.847,Serial_Dependence_U,2023.2.3,Win32,89.92805755399449,,,,,,2199.705,37,5,2199.705,37,,,,2203.677,2204.177,2203.161,2203.677,2200.716,2203.161,2204.177,2204.676,2204.677,2206.516,1455,2206.516,3,2206.516,5,10,160,28,1,1.4,0.7,Time
,,109550,001,男,22,2025-06-04_16h02.02.847,Serial_Dependence_U,2023.2.3,Win32,89.92805755399449,,,,,,2206.517,209,5,2206.517,209,,,,2210.695,2211.187,2210.185,2210.695,2207.512,2210.185,2211.187,2211.688,2211.688,2213.49,1428,2213.49,2,2213.491,5,11,161,24,1,1.6,0.3,Time
,,109550,001,男,22,2025-06-04_16h02.02.847,Serial_Dependence_U,2023.2.3,Win32,89.92805755399449,,,,,,2213.491,62,5,2213.491,62,,,,2217.293,2217.787,2216.778,2217.293,2214.504,2216.778,2217.787,2218.287,2218.287,2219.951,1226,2219.951,3,2219.951,5,12,162,22,1,1.2,0.3,Time
,,109550,001,男,22,2025-06-04_16h02.02.847,Serial_Dependence_U,2023.2.3,Win32,89.92805755399449,,,,,,2219.9519999999998,116,5,2219.9519999999998,116,,,,2223.305,2223.799,2222.801,2223.305,2220.9519999999998,2222.801,2223.799,2224.298,2224.298,2226.116,1450,2226.116,5,2226.116,5,13,163,25,1,0.8,0.7,Time
,,109550,001,男,22,2025-06-04_16h02.02.847,Serial_Dependence_U,2023.2.3,Win32,89.92805755399449,,,,,,2226.116,291,5,2226.118,291,,,,2230.0769999999998,2230.576,2229.567,2230.0769999999998,2227.115,2229.567,2230.576,2231.0769999999998,2231.0769999999998,2232.821,1399,2232.821,3,2232.821,5,14,164,18,1,1.4,0.7,Time
,,109550,001,男,22,2025-06-04_16h02.02.847,Serial_Dependence_U,2023.2.3,Win32,89.92805755399449,,,,,,2232.822,306,5,2232.822,306,,,,2236.962,2237.454,2236.461,2236.962,2233.821,2236.461,2237.454,2237.955,2237.955,2239.694,1471,2239.694,2,2239.695,5,15,165,19,1,1.6,0.7,Time
,,109550,001,男,22,2025-06-04_16h02.02.847,Serial_Dependence_U,2023.2.3,Win32,89.92805755399449,,,,,,2239.695,19,5,2239.696,19,,,,2243.252,2243.744,2242.738,2243.252,2240.705,2242.738,2243.744,2244.244,2244.244,2246.323,1783,2246.323,5,2246.323,5,16,166,6,1,1,0.7,Time
,,109550,001,男,22,2025-06-04_16h02.02.847,Serial_Dependence_U,2023.2.3,Win32,89.92805755399449,,,,,,2246.323,280,5,2246.323,280,,,,2249.901,2250.399,2249.39,2249.9,2247.321,2249.39,2250.399,2250.899,2250.899,2252.821,1593,2252.821,5,2252.821,5,17,167,21,1,1,0.3,Time
,,109550,001,男,22,2025-06-04_16h02.02.847,Serial_Dependence_U,2023.2.3,Win32,89.92805755399449,,,,,,2252.821,182,5,2252.822,182,,,,2256.973,2257.466,2256.468,2256.973,2253.834,2256.467,2257.466,2257.966,2257.966,2259.793,1574,2259.793,3,2259.794,5,18,168,29,1,1.6,0.7,Time
,,109550,001,男,22,2025-06-04_16h02.02.847,Serial_Dependence_U,2023.2.3,Win32,89.92805755399449,,,,,,2259.794,166,5,2259.794,166,,,,2263.575,2264.0769999999998,2263.064,2263.575,2260.792,2263.064,2264.0769999999998,2264.5769999999998,2264.5769999999998,2266.284,1490,2266.284,4,2266.285,5,19,169,12,1,1.2,0.3,Time
,,109550,001,男,22,2025-06-04_16h02.02.847,Serial_Dependence_U,2023.2.3,Win32,89.92805755399449,,,,,,2266.285,152,5,2266.285,152,,,,2270.256,2270.754,2269.753,2270.256,2267.29,2269.753,2270.754,2271.255,2271.255,2273.2309999999998,1560,2273.2309999999998,4,2273.232,5,20,170,13,1,1.4,0.3,Time
,,109550,001,男,22,2025-06-04_16h02.02.847,Serial_Dependence_U,2023.2.3,Win32,89.92805755399449,,,,,,2273.232,347,5,2273.233,347,,,,2277.223,2277.721,2276.716,2277.223,2274.246,2276.716,2277.721,2278.222,2278.222,2279.739,1290,2279.739,2,2279.74,5,21,171,23,1,1.4,0.3,Time
,,109550,001,男,22,2025-06-04_16h02.02.847,Serial_Dependence_U,2023.2.3,Win32,89.92805755399449,,,,,,2279.74,260,5,2279.74,260,,,,2283.275,2283.777,2282.767,2283.275,2280.737,2282.767,2283.777,2284.277,2284.277,2286.105,1518,2286.1059999999998,5,2286.1059999999998,5,22,172,16,1,1,0.7,Time
,,109550,001,男,22,2025-06-04_16h02.02.847,Serial_Dependence_U,2023.2.3,Win32,89.92805755399449,,,,,,2286.1059999999998,211,5,2286.1059999999998,211,,,,2289.449,2289.944,2288.945,2289.449,2287.103,2288.945,2289.944,2290.444,2290.444,2292.194,1473,2292.194,5,2292.195,5,23,173,5,1,0.8,0.7,Time
,,109550,001,男,22,2025-06-04_16h02.02.847,Serial_Dependence_U,2023.2.3,Win32,89.92805755399449,,,,,,2292.195,187,5,2292.195,187,,,,2295.778,2296.277,2295.2599999999998,2295.778,2293.189,2295.2599999999998,2296.277,2296.777,2296.777,2298.493,1436,2298.493,5,2298.494,5,24,174,11,1,1,0.3,Time
,,109550,001,男,22,2025-06-04_16h02.02.847,Serial_Dependence_U,2023.2.3,Win32,89.92805755399449,,,,,,2298.494,250,5,2298.494,250,,,,2302.241,2302.744,2301.729,2302.241,2299.49,2301.729,2302.744,2303.244,2303.244,2305.0099999999998,1411,2305.0099999999998,4,2305.011,5,25,175,7,1,1.2,0.7,Time
,,109550,001,男,22,2025-06-04_16h02.02.847,Serial_Dependence_U,2023.2.3,Win32,89.92805755399449,,,,,,2305.012,258,5,2305.013,258,,,,2308.387,2308.888,2307.887,2308.387,2306.023,2307.887,2308.888,2309.388,2309.388,2311.238,1582,2311.238,5,2311.238,5,26,176,20,1,0.8,0.3,Time
,,109550,001,男,22,2025-06-04_16h02.02.847,Serial_Dependence_U,2023.2.3,Win32,89.92805755399449,,,,,,2311.239,242,5,2311.239,242,,,,2315.183,2315.677,2314.668,2315.183,2312.234,2314.668,2315.677,2316.177,2316.177,2317.919,1468,2317.919,3,2317.919,5,27,177,8,1,1.4,0.7,Time
,,109550,001,男,22,2025-06-04_16h02.02.847,Serial_Dependence_U,2023.2.3,Win32,89.92805755399449,,,,,,2317.919,248,5,2317.919,248,,,,2321.278,2321.777,2320.775,2321.278,2318.931,2320.775,2321.777,2322.277,2322.277,2323.989,1400,2323.989,5,2323.989,5,28,178,15,1,0.8,0.7,Time
,,109550,001,男,22,2025-06-04_16h02.02.847,Serial_Dependence_U,2023.2.3,Win32,89.92805755399449,,,,,,2323.99,170,5,2323.991,170,,,,2328.186,2328.688,2327.679,2328.186,2325.006,2327.679,2328.688,2329.188,2329.188,2330.767,1313,2330.767,2,2330.768,5,29,179,14,1,1.6,0.3,Time
,,109550,001,男,22,2025-06-04_16h02.02.847,Serial_Dependence_U,2023.2.3,Win32,89.92805755399449,,,,,,2330.768,165,6,2333.677,165,s,2.88799999999992,,2337.071,2337.566,2336.557,2337.071,2334.683,2336.557,2337.566,2338.066,2338.066,2339.845,1278,2339.845,5,2339.846,6,0,180,0,1,0.8,0.3,Time
,,109550,001,男,22,2025-06-04_16h02.02.847,Serial_Dependence_U,2023.2.3,Win32,89.92805755399449,,,,,,2339.848,306,6,2339.849,306,,,,2343.825,2344.322,2343.323,2343.824,2340.8559999999998,2343.323,2344.322,2344.821,2344.821,2346.299,1223,2346.299,2,2346.3,6,1,181,3,1,1.4,0.3,Time
,,109550,001,男,22,2025-06-04_16h02.02.847,Serial_Dependence_U,2023.2.3,Win32,89.92805755399449,,,,,,2346.3,147,6,2346.3,147,,,,2350.482,2350.978,2349.967,2350.482,2347.301,2349.967,2350.978,2351.477,2351.477,2353.237,1443,2353.238,2,2353.238,6,2,182,4,1,1.6,0.3,Time
,,109550,001,男,22,2025-06-04_16h02.02.847,Serial_Dependence_U,2023.2.3,Win32,89.92805755399449,,,,,,2353.238,103,6,2353.238,103,,,,2357.212,2357.711,2356.694,2357.212,2354.245,2356.694,2357.711,2358.211,2358.211,2360.465,1610,2360.465,4,2360.465,6,3,183,28,1,1.4,0.7,Time
,,109550,001,男,22,2025-06-04_16h02.02.847,Serial_Dependence_U,2023.2.3,Win32,89.92805755399449,,,,,,2360.465,266,6,2360.465,266,,,,2364.25,2364.744,2363.74,2364.25,2361.467,2363.739,2364.744,2365.244,2365.244,2367.011,1493,2367.011,4,2367.012,6,4,184,2,1,1.2,0.3,Time
,,109550,001,男,22,2025-06-04_16h02.02.847,Serial_Dependence_U,2023.2.3,Win32,89.92805755399449,,,,,,2367.013,257,6,2367.014,257,,,,2370.364,2370.866,2369.853,2370.364,2368.022,2369.853,2370.866,2371.366,2371.366,2373.235,1517,2373.235,5,2373.236,6,5,185,5,1,0.8,0.7,Time
,,109550,001,男,22,2025-06-04_16h02.02.847,Serial_Dependence_U,2023.2.3,Win32,89.92805755399449,,,,,,2373.236,260,6,2373.236,260,,,,2376.997,2377.499,2376.483,2376.997,2374.246,2376.483,2377.499,2378,2378,2379.384,1164,2379.384,3,2379.384,6,6,186,27,1,1.2,0.7,Time
,,109550,001,男,22,2025-06-04_16h02.02.847,Serial_Dependence_U,2023.2.3,Win32,89.92805755399449,,,,,,2379.384,150,6,2379.384,150,,,,2382.934,2383.433,2382.423,2382.934,2380.378,2382.423,2383.433,2383.933,2383.933,2385.538,1273,2385.538,4,2385.538,6,7,187,26,1,1,0.7,Time
,,109550,001,男,22,2025-06-04_16h02.02.847,Serial_Dependence_U,2023.2.3,Win32,89.92805755399449,,,,,,2385.538,179,6,2385.5389999999998,179,,,,2389.303,2389.8,2388.79,2389.302,2386.544,2388.79,2389.8,2390.3,2390.3,2391.95,1366,2391.95,4,2391.95,6,8,188,17,1,1.2,0.7,Time
,,109550,001,男,22,2025-06-04_16h02.02.847,Serial_Dependence_U,2023.2.3,Win32,89.92805755399449,,,,,,2391.951,76,6,2391.951,76,,,,2396.101,2396.6,2395.59,2396.101,2392.949,2395.59,2396.6,2397.1,2397.1,2399.24,1634,2399.24,3,2399.241,6,9,189,29,1,1.6,0.7,Time
,,109550,001,男,22,2025-06-04_16h02.02.847,Serial_Dependence_U,2023.2.3,Win32,89.92805755399449,,,,,,2399.242,221,6,2399.242,221,,,,2402.801,2403.299,2402.296,2402.801,2400.256,2402.296,2403.299,2403.8,2403.8,2405.667,1550,2405.667,5,2405.668,6,10,190,16,1,1,0.7,Time
,,109550,001,男,22,2025-06-04_16h02.02.847,Serial_Dependence_U,2023.2.3,Win32,89.92805755399449,,,,,,2405.668,270,6,2405.668,270,,,,2409.243,2409.744,2408.733,2409.243,2406.672,2408.733,2409.745,2410.244,2410.244,2411.823,1335,2411.823,5,2411.824,6,11,191,11,1,1,0.3,Time
,,109550,001,男,22,2025-06-04_16h02.02.847,Serial_Dependence_U,2023.2.3,Win32,89.92805755399449,,,,,,2411.824,56,6,2411.824,56,,,,2415.8,2416.299,2415.29,2415.8,2412.822,2415.29,2416.299,2416.8,2416.8,2418.484,1390,2418.485,3,2418.485,6,12,192,23,1,1.4,0.3,Time
,,109550,001,男,22,2025-06-04_16h02.02.847,Serial_Dependence_U,2023.2.3,Win32,89.92805755399449,,,,,,2418.485,84,6,2418.485,84,,,,2422.625,2423.122,2422.121,2422.625,2419.486,2422.121,2423.122,2423.622,2423.622,2425.351,1512,2425.351,2,2425.352,6,13,193,9,1,1.6,0.7,Time
,,109550,001,男,22,2025-06-04_16h02.02.847,Serial_Dependence_U,2023.2.3,Win32,89.92805755399449,,,,,,2425.352,136,6,2425.352,136,,,,2428.939,2429.433,2428.421,2428.939,2426.345,2428.421,2429.433,2429.933,2429.933,2431.513,1390,2431.513,5,2431.514,6,14,194,1,1,1,0.3,Time
,,109550,001,男,22,2025-06-04_16h02.02.847,Serial_Dependence_U,2023.2.3,Win32,89.92805755399449,,,,,,2431.515,340,6,2431.515,340,,,,2434.8849999999998,2435.377,2434.3849999999998,2434.8849999999998,2432.517,2434.3849999999998,2435.377,2435.877,2435.877,2438.089,1703,2438.089,5,2438.09,6,15,195,10,1,0.8,0.3,Time
,,109550,001,男,22,2025-06-04_16h02.02.847,Serial_Dependence_U,2023.2.3,Win32,89.92805755399449,,,,,,2438.09,202,6,2438.09,202,,,,2442.027,2442.522,2441.526,2442.027,2439.09,2441.525,2442.522,2443.022,2443.022,2444.86,1436,2444.86,3,2444.861,6,16,196,18,1,1.4,0.7,Time
,,109550,001,男,22,2025-06-04_16h02.02.847,Serial_Dependence_U,2023.2.3,Win32,89.92805755399449,,,,,,2444.861,137,6,2444.861,137,,,,2449.018,2449.511,2448.517,2449.018,2445.8559999999998,2448.517,2449.511,2450.011,2450.011,2451.567,1355,2451.5679999999998,2,2451.5679999999998,6,17,197,24,1,1.6,0.3,Time
,,109550,001,男,22,2025-06-04_16h02.02.847,Serial_Dependence_U,2023.2.3,Win32,89.92805755399449,,,,,,2451.5679999999998,119,6,2451.569,119,,,,2455.722,2456.221,2455.218,2455.722,2452.579,2455.218,2456.221,2456.722,2456.722,2458.28,1329,2458.28,2,2458.28,6,18,198,19,1,1.6,0.7,Time
,,109550,001,男,22,2025-06-04_16h02.02.847,Serial_Dependence_U,2023.2.3,Win32,89.92805755399449,,,,,,2458.281,221,6,2458.281,221,,,,2461.6349999999998,2462.133,2461.129,2461.6349999999998,2459.281,2461.129,2462.133,2462.633,2462.633,2464.446,1486,2464.446,5,2464.447,6,19,199,15,1,0.8,0.7,Time
,,109550,001,男,22,2025-06-04_16h02.02.847,Serial_Dependence_U,2023.2.3,Win32,89.92805755399449,,,,,,2464.448,143,6,2464.448,143,,,,2468.034,2468.533,2467.524,2468.034,2465.451,2467.524,2468.533,2469.033,2469.033,2470.712,1479,2470.712,5,2470.713,6,20,200,21,1,1,0.3,Time
,,109550,001,男,22,2025-06-04_16h02.02.847,Serial_Dependence_U,2023.2.3,Win32,89.92805755399449,,,,,,2470.713,194,6,2470.713,194,,,,2474.459,2474.955,2473.946,2474.459,2471.712,2473.946,2474.955,2475.455,2475.455,2477.112,1379,2477.112,4,2477.113,6,21,201,7,1,1.2,0.7,Time
,,109550,001,男,22,2025-06-04_16h02.02.847,Serial_Dependence_U,2023.2.3,Win32,89.92805755399449,,,,,,2477.113,173,6,2477.113,173,,,,2481.1,2481.6,2480.598,2481.099,2478.126,2480.598,2481.6,2482.099,2482.099,2483.904,1517,2483.904,4,2483.905,6,22,202,13,1,1.4,0.3,Time
,,109550,001,男,22,2025-06-04_16h02.02.847,Serial_Dependence_U,2023.2.3,Win32,89.92805755399449,,,,,,2483.905,287,6,2483.905,287,,,,2488.084,2488.578,2487.569,2488.083,2484.901,2487.569,2488.578,2489.0769999999998,2489.0769999999998,2490.951,1622,2490.951,3,2490.9519999999998,6,23,203,14,1,1.6,0.3,Time
,,109550,001,男,22,2025-06-04_16h02.02.847,Serial_Dependence_U,2023.2.3,Win32,89.92805755399449,,,,,,2490.9519999999998,245,6,2490.9519999999998,245,,,,2494.728,2495.222,2494.213,2494.728,2491.946,2494.213,2495.222,2495.722,2495.722,2497.53,1497,2497.53,4,2497.531,6,24,204,12,1,1.2,0.3,Time
,,109550,001,男,22,2025-06-04_16h02.02.847,Serial_Dependence_U,2023.2.3,Win32,89.92805755399449,,,,,,2497.532,322,6,2497.532,322,,,,2500.93,2501.422,2500.417,2500.93,2498.54,2500.417,2501.422,2501.922,2501.922,2503.6929999999998,1496,2503.6929999999998,5,2503.6929999999998,6,25,205,20,1,0.8,0.3,Time
,,109550,001,男,22,2025-06-04_16h02.02.847,Serial_Dependence_U,2023.2.3,Win32,89.92805755399449,,,,,,2503.6929999999998,84,6,2503.6929999999998,84,,,,2507.468,2507.966,2506.959,2507.468,2504.698,2506.959,2507.966,2508.467,2508.467,2510.1059999999998,1424,2510.1059999999998,4,2510.1059999999998,6,26,206,22,1,1.2,0.3,Time
,,109550,001,男,22,2025-06-04_16h02.02.847,Serial_Dependence_U,2023.2.3,Win32,89.92805755399449,,,,,,2510.1059999999998,71,6,2510.1059999999998,71,,,,2513.653,2514.156,2513.152,2513.653,2511.11,2513.152,2514.156,2514.655,2514.655,2516.332,1511,2516.332,5,2516.332,6,27,207,6,1,1,0.7,Time
,,109550,001,男,22,2025-06-04_16h02.02.847,Serial_Dependence_U,2023.2.3,Win32,89.92805755399449,,,,,,2516.334,13,6,2516.334,13,,,,2519.707,2520.2,2519.19,2519.707,2517.349,2519.19,2520.2,2520.699,2520.699,2522.3559999999998,1429,2522.3559999999998,5,2522.3559999999998,6,28,208,25,1,0.8,0.7,Time
,,109550,001,男,22,2025-06-04_16h02.02.847,Serial_Dependence_U,2023.2.3,Win32,89.92805755399449,,,,,,2522.3559999999998,189,6,2522.3559999999998,189,,,,2526.322,2526.822,2525.808,2526.322,2523.365,2525.808,2526.822,2527.322,2527.322,2529.102,1459,2529.102,3,2529.103,6,29,209,8,1,1.4,0.7,Time
,,109550,001,男,22,2025-06-04_16h02.02.847,Serial_Dependence_U,2023.2.3,Win32,89.92805755399449,,,,,,2529.104,37,7,2608.567,37,s,79.44799999999987,,2612.1349999999998,2612.634,2611.617,2612.1349999999998,2609.572,2611.617,2612.634,2613.133,2613.133,2614.873,1366,2614.873,5,2614.873,7,0,210,6,1,1,0.7,Time
,,109550,001,男,22,2025-06-04_16h02.02.847,Serial_Dependence_U,2023.2.3,Win32,89.92805755399449,,,,,,2614.874,343,7,2614.876,343,,,,2618.662,2619.155,2618.151,2618.662,2615.883,2618.15,2619.155,2619.656,2619.656,2621.402,1338,2621.402,4,2621.403,7,1,211,2,1,1.2,0.3,Time
,,109550,001,男,22,2025-06-04_16h02.02.847,Serial_Dependence_U,2023.2.3,Win32,89.92805755399449,,,,,,2621.403,307,7,2621.404,307,,,,2625.551,2626.044,2625.041,2625.551,2622.401,2625.04,2626.044,2626.544,2626.544,2628.206,1318,2628.206,2,2628.206,7,2,212,19,1,1.6,0.7,Time
,,109550,001,男,22,2025-06-04_16h02.02.847,Serial_Dependence_U,2023.2.3,Win32,89.92805755399449,,,,,,2628.208,23,7,2628.208,23,,,,2632.38,2632.878,2631.874,2632.38,2629.213,2631.874,2632.878,2633.378,2633.378,2634.924,1296,2634.924,2,2634.925,7,3,213,4,1,1.6,0.3,Time
,,109550,001,男,22,2025-06-04_16h02.02.847,Serial_Dependence_U,2023.2.3,Win32,89.92805755399449,,,,,,2634.925,207,7,2634.925,207,,,,2638.313,2638.811,2637.796,2638.313,2635.923,2637.796,2638.811,2639.312,2639.312,2640.75,1157,2640.75,5,2640.75,7,4,214,0,1,0.8,0.3,Time
,,109550,001,男,22,2025-06-04_16h02.02.847,Serial_Dependence_U,2023.2.3,Win32,89.92805755399449,,,,,,2640.75,7,7,2640.75,7,,,,2644.925,2645.422,2644.422,2644.924,2641.749,2644.422,2645.422,2645.922,2645.922,2647.924,1750,2647.924,4,2647.925,7,5,215,24,1,1.6,0.3,Time
,,109550,001,男,22,2025-06-04_16h02.02.847,Serial_Dependence_U,2023.2.3,Win32,89.92805755399449,,,,,,2647.926,9,7,2647.926,9,,,,2651.884,2652.377,2651.372,2651.884,2648.928,2651.371,2652.377,2652.878,2652.878,2654.32,1190,2654.32,2,2654.32,7,6,216,18,1,1.4,0.7,Time
,,109550,001,男,22,2025-06-04_16h02.02.847,Serial_Dependence_U,2023.2.3,Win32,89.92805755399449,,,,,,2654.32,75,7,2654.32,75,,,,2658.269,2658.767,2657.759,2658.269,2655.324,2657.759,2658.767,2659.267,2659.267,2661.016,1508,2661.016,4,2661.017,7,7,217,28,1,1.4,0.7,Time
,,109550,001,男,22,2025-06-04_16h02.02.847,Serial_Dependence_U,2023.2.3,Win32,89.92805755399449,,,,,,2661.018,34,7,2661.018,34,,,,2664.557,2665.056,2664.052,2664.557,2662.017,2664.051,2665.056,2665.556,2665.556,2667.131,1309,2667.131,5,2667.132,7,8,218,26,1,1,0.7,Time
,,109550,001,男,22,2025-06-04_16h02.02.847,Serial_Dependence_U,2023.2.3,Win32,89.92805755399449,,,,,,2667.132,329,7,2667.132,329,,,,2671.119,2671.611,2670.6059999999998,2671.119,2668.1349999999998,2670.6059999999998,2671.611,2672.112,2672.112,2674.195,1706,2674.195,4,2674.196,7,9,219,23,1,1.4,0.3,Time
,,109550,001,男,22,2025-06-04_16h02.02.847,Serial_Dependence_U,2023.2.3,Win32,89.92805755399449,,,,,,2674.196,158,7,2674.196,158,,,,2677.537,2678.034,2677.033,2677.537,2675.1929999999998,2677.033,2678.034,2678.534,2678.534,2680.072,1214,2680.072,5,2680.073,7,10,220,5,1,0.8,0.7,Time
,,109550,001,男,22,2025-06-04_16h02.02.847,Serial_Dependence_U,2023.2.3,Win32,89.92805755399449,,,,,,2680.073,123,7,2680.073,123,,,,2683.824,2684.322,2683.308,2683.824,2681.075,2683.308,2684.322,2684.822,2684.822,2686.44,1368,2686.44,4,2686.441,7,11,221,17,1,1.2,0.7,Time
,,109550,001,男,22,2025-06-04_16h02.02.847,Serial_Dependence_U,2023.2.3,Win32,89.92805755399449,,,,,,2686.441,120,7,2686.441,120,,,,2690.007,2690.5,2689.507,2690.007,2687.439,2689.507,2690.5,2691,2691,2692.6059999999998,1415,2692.6059999999998,5,2692.607,7,12,222,21,1,1,0.3,Time
,,109550,001,男,22,2025-06-04_16h02.02.847,Serial_Dependence_U,2023.2.3,Win32,89.92805755399449,,,,,,2692.608,283,7,2692.608,283,,,,2696.358,2696.8559999999998,2695.846,2696.358,2693.605,2695.846,2696.8559999999998,2697.3559999999998,2697.3559999999998,2698.913,1352,2698.913,4,2698.9139999999998,7,13,223,7,1,1.2,0.7,Time
,,109550,001,男,22,2025-06-04_16h02.02.847,Serial_Dependence_U,2023.2.3,Win32,89.92805755399449,,,,,,2698.9139999999998,205,7,2698.9139999999998,205,,,,2702.901,2703.4,2702.387,2702.9,2699.912,2702.386,2703.4,2703.9,2703.9,2705.529,1364,2705.529,3,2705.53,7,14,224,3,1,1.4,0.3,Time
,,109550,001,男,22,2025-06-04_16h02.02.847,Serial_Dependence_U,2023.2.3,Win32,89.92805755399449,,,,,,2705.53,271,7,2705.53,271,,,,2708.88,2709.378,2708.368,2708.88,2706.523,2708.368,2709.378,2709.878,2709.878,2711.604,1437,2711.604,5,2711.605,7,15,225,15,1,0.8,0.7,Time
,,109550,001,男,22,2025-06-04_16h02.02.847,Serial_Dependence_U,2023.2.3,Win32,89.92805755399449,,,,,,2711.605,258,7,2711.605,258,,,,2715.357,2715.8559999999998,2714.838,2715.357,2712.604,2714.838,2715.8559999999998,2716.3559999999998,2716.3559999999998,2718.256,1526,2718.256,4,2718.256,7,16,226,27,1,1.2,0.7,Time
,,109550,001,男,22,2025-06-04_16h02.02.847,Serial_Dependence_U,2023.2.3,Win32,89.92805755399449,,,,,,2718.257,196,7,2718.257,196,,,,2722.402,2722.901,2721.902,2722.402,2719.266,2721.901,2722.901,2723.401,2723.401,2725.053,1308,2725.053,2,2725.054,7,17,227,9,1,1.6,0.7,Time
,,109550,001,男,22,2025-06-04_16h02.02.847,Serial_Dependence_U,2023.2.3,Win32,89.92805755399449,,,,,,2725.055,91,7,2725.055,91,,,,2728.6,2729.101,2728.097,2728.599,2726.057,2728.097,2729.101,2729.6,2729.6,2731.346,1362,2731.346,5,2731.346,7,18,228,16,1,1,0.7,Time
,,109550,001,男,22,2025-06-04_16h02.02.847,Serial_Dependence_U,2023.2.3,Win32,89.92805755399449,,,,,,2731.347,209,7,2731.347,209,,,,2734.732,2735.234,2734.224,2734.7309999999998,2732.347,2734.224,2735.234,2735.734,2735.734,2737.438,1458,2737.438,5,2737.439,7,19,229,20,1,0.8,0.3,Time
,,109550,001,男,22,2025-06-04_16h02.02.847,Serial_Dependence_U,2023.2.3,Win32,89.92805755399449,,,,,,2737.439,304,7,2737.439,304,,,,2741.58,2742.078,2741.072,2741.58,2738.438,2741.072,2742.078,2742.578,2742.578,2744.267,1333,2744.267,2,2744.268,7,20,230,29,1,1.6,0.7,Time
,,109550,001,男,22,2025-06-04_16h02.02.847,Serial_Dependence_U,2023.2.3,Win32,89.92805755399449,,,,,,2744.268,38,7,2744.268,38,,,,2748.054,2748.556,2747.552,2748.054,2745.282,2747.552,2748.556,2749.056,2749.056,2750.727,1271,2750.727,4,2750.727,7,21,231,22,1,1.2,0.3,Time
,,109550,001,男,22,2025-06-04_16h02.02.847,Serial_Dependence_U,2023.2.3,Win32,89.92805755399449,,,,,,2750.728,192,7,2750.728,192,,,,2754.9,2755.401,2754.397,2754.9,2751.724,2754.397,2755.401,2755.9,2755.9,2757.475,1374,2757.475,2,2757.476,7,22,232,14,1,1.6,0.3,Time
,,109550,001,男,22,2025-06-04_16h02.02.847,Serial_Dependence_U,2023.2.3,Win32,89.92805755399449,,,,,,2757.476,133,7,2757.476,133,,,,2761.473,2761.967,2760.957,2761.473,2758.489,2760.957,2761.967,2762.467,2762.467,2764.0099999999998,1347,2764.0099999999998,3,2764.011,7,23,233,13,1,1.4,0.3,Time
,,109550,001,男,22,2025-06-04_16h02.02.847,Serial_Dependence_U,2023.2.3,Win32,89.92805755399449,,,,,,2764.011,106,7,2764.011,106,,,,2767.367,2767.867,2766.858,2767.367,2765.018,2766.858,2767.867,2768.367,2768.367,2770.086,1341,2770.086,5,2770.086,7,24,234,25,1,0.8,0.7,Time
,,109550,001,男,22,2025-06-04_16h02.02.847,Serial_Dependence_U,2023.2.3,Win32,89.92805755399449,,,,,,2770.086,305,7,2770.086,305,,,,2773.461,2773.956,2772.957,2773.461,2771.09,2772.957,2773.956,2774.456,2774.456,2776.134,1348,2776.134,5,2776.1349999999998,7,25,235,10,1,0.8,0.3,Time
,,109550,001,男,22,2025-06-04_16h02.02.847,Serial_Dependence_U,2023.2.3,Win32,89.92805755399449,,,,,,2776.1349999999998,107,7,2776.1349999999998,107,,,,2780.083,2780.578,2779.5769999999998,2780.083,2777.134,2779.5769999999998,2780.578,2781.078,2781.078,2782.824,1475,2782.824,4,2782.825,7,26,236,8,1,1.4,0.7,Time
,,109550,001,男,22,2025-06-04_16h02.02.847,Serial_Dependence_U,2023.2.3,Win32,89.92805755399449,,,,,,2782.825,162,7,2782.825,162,,,,2786.417,2786.911,2785.905,2786.417,2783.835,2785.905,2786.911,2787.411,2787.411,2789.141,1366,2789.141,5,2789.142,7,27,237,11,1,1,0.3,Time
,,109550,001,男,22,2025-06-04_16h02.02.847,Serial_Dependence_U,2023.2.3,Win32,89.92805755399449,,,,,,2789.143,95,7,2789.143,95,,,,2792.741,2793.233,2792.227,2792.741,2790.157,2792.226,2793.234,2793.734,2793.734,2795.6349999999998,1463,2795.6349999999998,5,2795.636,7,28,238,1,1,1,0.3,Time
,,109550,001,男,22,2025-06-04_16h02.02.847,Serial_Dependence_U,2023.2.3,Win32,89.92805755399449,,,,,,2795.636,325,7,2795.636,325,,,,2799.431,2799.923,2798.917,2799.431,2796.649,2798.916,2799.923,2800.423,2800.423,2802.179,1342,2802.179,4,2802.18,7,29,239,12,1,1.2,0.3,Time
,,109550,001,男,22,2025-06-04_16h02.02.847,Serial_Dependence_U,2023.2.3,Win32,89.92805755399449,,,,,,2802.181,201,8,2832.312,201,s,30.114000000000033,,2836.271,2836.767,2835.761,2836.271,2833.323,2835.761,2836.767,2837.268,2837.268,2839.067,1492,2839.067,4,2839.0679999999998,8,0,240,18,1,1.4,0.7,Time
,,109550,001,男,22,2025-06-04_16h02.02.847,Serial_Dependence_U,2023.2.3,Win32,89.92805755399449,,,,,,2839.07,52,8,2839.072,52,,,,2842.646,2843.145,2842.129,2842.646,2840.084,2842.129,2843.145,2843.645,2843.645,2845.463,1448,2845.463,5,2845.463,8,1,241,26,1,1,0.7,Time
,,109550,001,男,22,2025-06-04_16h02.02.847,Serial_Dependence_U,2023.2.3,Win32,89.92805755399449,,,,,,2845.463,52,8,2845.463,52,,,,2849.618,2850.112,2849.105,2849.618,2846.473,2849.105,2850.112,2850.612,2850.612,2852.424,1482,2852.424,2,2852.425,8,2,242,29,1,1.6,0.7,Time
,,109550,001,男,22,2025-06-04_16h02.02.847,Serial_Dependence_U,2023.2.3,Win32,89.92805755399449,,,,,,2852.426,182,8,2852.426,182,,,,2856.388,2856.89,2855.887,2856.388,2853.424,2855.887,2856.89,2857.389,2857.389,2857.9139999999998,234,2857.9139999999998,1,2857.915,8,3,243,23,1,1.4,0.3,Time
,,109550,001,男,22,2025-06-04_16h02.02.847,Serial_Dependence_U,2023.2.3,Win32,89.92805755399449,,,,,,2857.915,65,8,2857.915,65,,,,2861.9139999999998,2862.412,2861.396,2861.913,2858.925,2861.395,2862.412,2862.912,2862.912,2864.73,1367,2864.73,3,2864.73,8,4,244,3,1,1.4,0.3,Time
,,109550,001,男,22,2025-06-04_16h02.02.847,Serial_Dependence_U,2023.2.3,Win32,89.92805755399449,,,,,,2864.7309999999998,156,8,2864.7309999999998,156,,,,2868.528,2869.023,2868.016,2868.528,2865.749,2868.016,2869.023,2869.523,2869.524,2871.388,1544,2871.388,4,2871.389,8,5,245,22,1,1.2,0.3,Time
,,109550,001,男,22,2025-06-04_16h02.02.847,Serial_Dependence_U,2023.2.3,Win32,89.92805755399449,,,,,,2871.389,227,8,2871.389,227,,,,2875.14,2875.634,2874.639,2875.14,2872.391,2874.639,2875.634,2876.134,2876.134,2878.1639999999998,1669,2878.1639999999998,5,2878.1639999999998,8,6,246,7,1,1.2,0.7,Time
,,109550,001,男,22,2025-06-04_16h02.02.847,Serial_Dependence_U,2023.2.3,Win32,89.92805755399449,,,,,,2878.1639999999998,358,8,2878.1639999999998,358,,,,2881.747,2882.245,2881.243,2881.746,2879.169,2881.242,2882.245,2882.745,2882.745,2884.658,1483,2884.658,5,2884.658,8,7,247,11,1,1,0.3,Time
,,109550,001,男,22,2025-06-04_16h02.02.847,Serial_Dependence_U,2023.2.3,Win32,89.92805755399449,,,,,,2884.66,310,8,2884.66,310,,,,2888.036,2888.534,2887.534,2888.036,2885.669,2887.534,2888.534,2889.034,2889.034,2890.756,1383,2890.756,5,2890.757,8,8,248,10,1,0.8,0.3,Time
,,109550,001,男,22,2025-06-04_16h02.02.847,Serial_Dependence_U,2023.2.3,Win32,89.92805755399449,,,,,,2890.757,286,8,2890.757,286,,,,2894.355,2894.8559999999998,2893.847,2894.355,2891.771,2893.847,2894.8559999999998,2895.3559999999998,2895.3559999999998,2897.003,1379,2897.003,5,2897.003,8,9,249,21,1,1,0.3,Time
,,109550,001,男,22,2025-06-04_16h02.02.847,Serial_Dependence_U,2023.2.3,Win32,89.92805755399449,,,,,,2897.004,12,8,2897.004,12,,,,2900.5679999999998,2901.0679999999998,2900.054,2900.5679999999998,2898.018,2900.054,2901.0679999999998,2901.567,2901.567,2903.396,1555,2903.396,5,2903.396,8,10,250,6,1,1,0.7,Time
,,109550,001,男,22,2025-06-04_16h02.02.847,Serial_Dependence_U,2023.2.3,Win32,89.92805755399449,,,,,,2903.396,171,8,2903.397,171,,,,2907.527,2908.023,2907.025,2907.527,2904.391,2907.025,2908.023,2908.523,2908.523,2910.411,1538,2910.411,3,2910.411,8,11,251,9,1,1.6,0.7,Time
,,109550,001,男,22,2025-06-04_16h02.02.847,Serial_Dependence_U,2023.2.3,Win32,89.92805755399449,,,,,,2910.411,259,8,2910.411,259,,,,2913.763,2914.257,2913.259,2913.763,2911.419,2913.259,2914.257,2914.757,2914.757,2916.58,1522,2916.58,5,2916.581,8,12,252,15,1,0.8,0.7,Time
,,109550,001,男,22,2025-06-04_16h02.02.847,Serial_Dependence_U,2023.2.3,Win32,89.92805755399449,,,,,,2916.582,217,8,2916.582,217,,,,2919.933,2920.434,2919.425,2919.933,2917.58,2919.425,2920.434,2920.934,2920.934,2922.739,1522,2922.739,5,2922.739,8,13,253,25,1,0.8,0.7,Time
,,109550,001,男,22,2025-06-04_16h02.02.847,Serial_Dependence_U,2023.2.3,Win32,89.92805755399449,,,,,,2922.74,65,8,2922.74,65,,,,2926.503,2927.001,2925.991,2926.503,2923.741,2925.991,2927.001,2927.501,2927.501,2929.259,1454,2929.259,4,2929.2599999999998,8,14,254,17,1,1.2,0.7,Time
,,109550,001,男,22,2025-06-04_16h02.02.847,Serial_Dependence_U,2023.2.3,Win32,89.92805755399449,,,,,,2929.2599999999998,49,8,2929.2599999999998,49,,,,2933.229,2933.724,2932.725,2933.229,2930.262,2932.725,2933.724,2934.223,2934.223,2936.003,1535,2936.003,4,2936.004,8,15,255,13,1,1.4,0.3,Time
,,109550,001,男,22,2025-06-04_16h02.02.847,Serial_Dependence_U,2023.2.3,Win32,89.92805755399449,,,,,,2936.004,326,8,2936.004,326,,,,2940.152,2940.645,2939.646,2940.152,2937.013,2939.646,2940.645,2941.145,2941.145,2942.774,1343,2942.774,2,2942.774,8,16,256,19,1,1.6,0.7,Time
,,109550,001,男,22,2025-06-04_16h02.02.847,Serial_Dependence_U,2023.2.3,Win32,89.92805755399449,,,,,,2942.774,271,8,2942.775,271,,,,2946.114,2946.613,2945.603,2946.114,2943.768,2945.603,2946.613,2947.113,2947.113,2948.375,1056,2948.375,5,2948.376,8,17,257,5,1,0.8,0.7,Time
,,109550,001,男,22,2025-06-04_16h02.02.847,Serial_Dependence_U,2023.2.3,Win32,89.92805755399449,,,,,,2948.377,41,8,2948.377,41,,,,2952.169,2952.668,2951.654,2952.169,2949.386,2951.654,2952.668,2953.167,2953.167,2954.534,1248,2954.534,3,2954.535,8,18,258,12,1,1.2,0.3,Time
,,109550,001,男,22,2025-06-04_16h02.02.847,Serial_Dependence_U,2023.2.3,Win32,89.92805755399449,,,,,,2954.535,223,8,2954.536,223,,,,2957.911,2958.413,2957.401,2957.911,2955.536,2957.4,2958.413,2958.912,2958.912,2960.463,1398,2960.463,5,2960.464,8,19,259,0,1,0.8,0.3,Time
,,109550,001,男,22,2025-06-04_16h02.02.847,Serial_Dependence_U,2023.2.3,Win32,89.92805755399449,,,,,,2960.464,216,8,2960.464,216,,,,2964.212,2964.712,2963.698,2964.212,2961.459,2963.697,2964.712,2965.213,2965.213,2966.869,1394,2966.869,4,2966.869,8,20,260,27,1,1.2,0.7,Time
,,109550,001,男,22,2025-06-04_16h02.02.847,Serial_Dependence_U,2023.2.3,Win32,89.92805755399449,,,,,,2966.87,23,8,2966.87,23,,,,2970.654,2971.146,2970.14,2970.653,2967.874,2970.14,2971.146,2971.645,2971.645,2973.592,1705,2973.592,5,2973.592,8,21,261,2,1,1.2,0.3,Time
,,109550,001,男,22,2025-06-04_16h02.02.847,Serial_Dependence_U,2023.2.3,Win32,89.92805755399449,,,,,,2973.593,122,8,2973.593,122,,,,2976.969,2977.468,2976.465,2976.969,2974.602,2976.465,2977.468,2977.968,2977.968,2979.511,1220,2979.511,5,2979.512,8,22,262,20,1,0.8,0.3,Time
,,109550,001,男,22,2025-06-04_16h02.02.847,Serial_Dependence_U,2023.2.3,Win32,89.92805755399449,,,,,,2979.513,151,8,2979.513,151,,,,2983.714,2984.212,2983.197,2983.713,2980.525,2983.197,2984.212,2984.712,2984.712,2986.305,1142,2986.305,2,2986.306,8,23,263,14,1,1.6,0.3,Time
,,109550,001,男,22,2025-06-04_16h02.02.847,Serial_Dependence_U,2023.2.3,Win32,89.92805755399449,,,,,,2986.306,105,8,2986.306,105,,,,2990.48,2990.979,2989.968,2990.479,2987.303,2989.968,2990.979,2991.478,2991.478,2993.009,1220,2993.009,2,2993.009,8,24,264,4,1,1.6,0.3,Time
,,109550,001,男,22,2025-06-04_16h02.02.847,Serial_Dependence_U,2023.2.3,Win32,89.92805755399449,,,,,,2993.009,241,8,2993.009,241,,,,2996.562,2997.057,2996.046,2996.562,2994.008,2996.046,2997.057,2997.557,2997.557,2998.825,1090,2998.826,4,2998.826,8,25,265,16,1,1,0.7,Time
,,109550,001,男,22,2025-06-04_16h02.02.847,Serial_Dependence_U,2023.2.3,Win32,89.92805755399449,,,,,,2998.826,72,8,2998.8269999999998,72,,,,3003.019,3003.512,3002.514,3003.019,2999.832,3002.514,3003.512,3004.012,3004.012,3005.58,1191,3005.58,2,3005.581,8,26,266,24,1,1.6,0.3,Time
,,109550,001,男,22,2025-06-04_16h02.02.847,Serial_Dependence_U,2023.2.3,Win32,89.92805755399449,,,,,,3005.581,351,8,3005.581,351,,,,3009.547,3010.047,3009.033,3009.547,3006.593,3009.033,3010.047,3010.545,3010.545,3011.998,1253,3011.998,2,3011.998,8,27,267,8,1,1.4,0.7,Time
,,109550,001,男,22,2025-06-04_16h02.02.847,Serial_Dependence_U,2023.2.3,Win32,89.92805755399449,,,,,,3011.999,231,8,3011.999,231,,,,3015.58,3016.079,3015.069,3015.58,3013.002,3015.069,3016.079,3016.579,3016.579,3018.019,1202,3018.019,4,3018.02,8,28,268,1,1,1,0.3,Time
,,109550,001,男,22,2025-06-04_16h02.02.847,Serial_Dependence_U,2023.2.3,Win32,89.92805755399449,,,,,,3018.02,15,8,3018.02,15,,,,3021.963,3022.456,3021.456,3021.963,3019.018,3021.456,3022.456,3022.957,3022.957,3024.752,1530,3024.752,4,3024.752,8,29,269,28,1,1.4,0.7,Time