Scale_setup.started,Scale_setup.stopped,participant,session,sex,age,date,expName,psychopyVersion,OS,frameRate,Intro.started,Intro.stopped,key_resp_2.keys,key_resp_2.rt,key_resp_2.duration,block.started,direction,Block_id,block.stopped,trial_direction,Block_resp_2.keys,Block_resp_2.rt,Block_resp_2.duration,ITI.started,ITI.stopped,Mask_2.started,Mask_2.stopped,encoding.started,encoding.stopped,Cue.started,Cue.stopped,Response.started,Response.stopped,keyDuration,Feedback_Time.started,FeedbackID_T,Feedback_Time.stopped,trials.thisRepN,trials.thisTrialN,trials.thisN,trials.thisIndex,trials.ran,TimeDur,Coherence1,TrialType
0.0002100002020597458,0.00040500005707144737,132230,001,男,32,2025-06-03_17h16.12.785,Serial_Dependence_U,2023.2.3,Win32,60.00240009601306,,,,,,,,,,,,,,,,,,,,,,,,,,,,,,,,,,,
,,132230,001,男,32,2025-06-03_17h16.12.785,Serial_Dependence_U,2023.2.3,Win32,60.00240009601306,24.480274999979883,349.223745000083,space,324.6994749996811,,,,,,,,,,,,,,,,,,,,,,,,,,,,,,,
,,132230,001,男,32,2025-06-03_17h16.12.785,Serial_Dependence_U,2023.2.3,Win32,60.00240009601306,,,,,,349.25099000008777,249,0,356.3651100001298,249,s,7.085104999598116,,360.1174300001003,360.6194949997589,359.611525000073,360.1172199998982,357.37432499974966,359.6112299999222,360.62019000016153,361.11347999982536,361.1139799999073,364.78252999996766,1462,364.7830849997699,4,365.7792850001715,0,0,0,27,1,1.2,0.7,Time
,,132230,001,男,32,2025-06-03_17h16.12.785,Serial_Dependence_U,2023.2.3,Win32,60.00240009601306,,,,,,365.7860099999234,174,0,365.7925599999726,174,,,,369.7735500000417,370.28151499992236,369.25626999977976,369.77327999984846,366.8050049999729,369.25611499976367,370.2816200000234,370.78102499991655,370.7811900000088,374.28083000006154,2718,374.28109000017866,5,375.2786099999212,0,1,1,28,1,1.4,0.7,Time
,,132230,001,男,32,2025-06-03_17h16.12.785,Serial_Dependence_U,2023.2.3,Win32,60.00240009601306,,,,,,375.2822050000541,321,0,375.28293999983,321,,,,379.4868499999866,379.9854350001551,378.97215500008315,379.48669000016525,376.2905600001104,378.97194000007585,379.9857749999501,380.471539999824,380.4716550000012,383.11884499993175,1776,383.11904500005767,4,384.10545999975875,0,2,2,24,1,1.6,0.3,Time
,,132230,001,男,32,2025-06-03_17h16.12.785,Serial_Dependence_U,2023.2.3,Win32,60.00240009601306,,,,,,384.10808999976143,21,0,384.10867499979213,21,,,,388.1279299999587,388.62740499991924,387.6181299998425,388.1277700001374,385.135540000163,387.61791000002995,388.6275349999778,389.120199999772,389.12036499986425,390.93120499979705,1143,390.93159499997273,2,391.9254049998708,0,3,3,3,1,1.4,0.3,Time
,,132230,001,男,32,2025-06-03_17h16.12.785,Serial_Dependence_U,2023.2.3,Win32,60.00240009601306,,,,,,391.92728499975055,266,0,391.92774000018835,266,,,,395.30126000009477,395.8035999997519,394.7908499999903,395.3010350000113,392.9222099999897,394.7906649997458,395.80366999981925,396.2987299999222,396.2987799998373,398.6142500001006,1709,398.614459999837,5,399.6084549999796,0,4,4,10,1,0.8,0.3,Time
,,132230,001,男,32,2025-06-03_17h16.12.785,Serial_Dependence_U,2023.2.3,Win32,60.00240009601306,,,,,,399.6093350001611,172,0,399.60957999993116,172,,,,402.9847599999048,403.48223999980837,402.48082000017166,402.9844100000337,400.6087650000118,402.4806699999608,403.48234000010416,403.98285999987274,403.98294000001624,408.47837499994785,3862,408.4785600001924,5,409.4810049999505,0,5,5,0,1,0.8,0.3,Time
,,132230,001,男,32,2025-06-03_17h16.12.785,Serial_Dependence_U,2023.2.3,Win32,60.00240009601306,,,,,,409.48303999984637,224,0,409.4835549998097,224,,,,413.04589000018314,413.54695999994874,412.529205000028,413.04575000004843,410.48973000003025,412.5290799997747,413.5470549999736,414.038129999768,414.038234999869,419.2008500001393,4427,419.2010650001466,5,420.2037049997598,0,6,6,26,1,1,0.7,Time
,,132230,001,男,32,2025-06-03_17h16.12.785,Serial_Dependence_U,2023.2.3,Win32,60.00240009601306,,,,,,420.20512499986216,246,0,420.20576999988407,246,,,,423.56946999998763,424.069645000156,423.0547349997796,423.56930000009015,421.20894999988377,423.05458999983966,424.0697050001472,424.57340000011027,424.58006499987096,427.5406550001353,2380,427.54086000006646,5,428.53693499974906,0,7,7,25,1,0.8,0.7,Time
,,132230,001,男,32,2025-06-03_17h16.12.785,Serial_Dependence_U,2023.2.3,Win32,60.00240009601306,,,,,,428.5386399999261,51,0,428.53962499974295,51,,,,432.49016000004485,432.9865850000642,431.98268999997526,432.49001999991015,429.53737000003457,431.9825050001964,432.98667000001296,433.48033999977633,433.48045999975875,437.0539750000462,3037,437.05411999998614,5,438.05260000005364,0,8,8,18,1,1.4,0.7,Time
,,132230,001,男,32,2025-06-03_17h16.12.785,Serial_Dependence_U,2023.2.3,Win32,60.00240009601306,,,,,,438.0536850001663,350,0,438.05425499984995,350,,,,441.4388250000775,441.93711999990046,440.9254799997434,441.43868000013754,439.0701299998909,440.9252499998547,441.93719499977306,442.42882499983534,442.4289350002073,445.7862249999307,2879,445.7864549998194,5,446.7775050001219,0,9,9,5,1,0.8,0.7,Time
,,132230,001,男,32,2025-06-03_17h16.12.785,Serial_Dependence_U,2023.2.3,Win32,60.00240009601306,,,,,,446.77836999995634,265,0,446.7787099997513,265,,,,450.36750000016764,450.86944499984384,449.86607499979436,450.3673149999231,447.7797849997878,449.8658900000155,450.86951000010595,451.359375,451.3594749998301,455.7382299997844,3835,455.7384299999103,5,456.7385900001973,0,10,10,11,1,1,0.3,Time
,,132230,001,男,32,2025-06-03_17h16.12.785,Serial_Dependence_U,2023.2.3,Win32,60.00240009601306,,,,,,456.7401850000024,65,0,456.74090000009164,65,,,,460.2804849999957,460.7797249997966,459.77902999985963,460.2802699999884,457.74387999996543,459.77887499984354,460.7798199998215,461.28237499995157,461.28245500009507,465.6672200001776,3876,465.6675249999389,5,466.67101000016555,0,11,11,16,1,1,0.7,Time
,,132230,001,男,32,2025-06-03_17h16.12.785,Serial_Dependence_U,2023.2.3,Win32,60.00240009601306,,,,,,466.67230999981984,200,0,466.6728449999355,200,,,,470.46426999988034,470.95556000014767,469.94859000016004,470.4640899999067,467.678309999872,469.948324999772,470.9557550000027,471.4479800001718,471.4481150000356,474.411084999796,2561,474.4112399998121,5,475.4145949999802,0,12,12,2,1,1.2,0.3,Time
,,132230,001,男,32,2025-06-03_17h16.12.785,Serial_Dependence_U,2023.2.3,Win32,60.00240009601306,,,,,,475.41596999997273,178,0,475.416685000062,178,,,,478.8228699997999,479.32061999989673,478.306154999882,478.82269500009716,476.43648999975994,478.3059450001456,479.32085999986157,479.8108600000851,479.81574499979615,482.80966500006616,2538,482.80982000008225,5,483.8043100000359,0,13,13,20,1,0.8,0.3,Time
,,132230,001,男,32,2025-06-03_17h16.12.785,Serial_Dependence_U,2023.2.3,Win32,60.00240009601306,,,,,,483.8054949999787,60,0,483.80604999978095,60,,,,487.6166249997914,488.1124800001271,487.09748499980196,487.61642500013113,484.81981999985874,487.0972049999982,488.1125549999997,488.6067449999973,488.60682999994606,492.07331500016153,3003,492.0734999999404,5,493.0674549997784,0,14,14,22,1,1.2,0.3,Time
,,132230,001,男,32,2025-06-03_17h16.12.785,Serial_Dependence_U,2023.2.3,Win32,60.00240009601306,,,,,,493.06912499992177,277,0,493.0698500000872,277,,,,496.6626699999906,497.16029499983415,496.1462199999951,496.6624699998647,494.0958949998021,496.1460150000639,497.16033500013873,497.6629599998705,497.6630349997431,501.94162499997765,3840,501.9418750000186,5,502.9303399999626,0,15,15,6,1,1,0.7,Time
,,132230,001,男,32,2025-06-03_17h16.12.785,Serial_Dependence_U,2023.2.3,Win32,60.00240009601306,,,,,,502.9319000001997,321,0,502.9326049997471,321,,,,507.13581500016153,507.6296250000596,506.6259200000204,507.1356750000268,503.967399999965,506.6256900001317,507.62971000000834,508.1287050000392,508.1288049998693,511.94971999991685,3333,511.94996999995783,5,512.9607899999246,0,16,16,9,1,1.6,0.7,Time
,,132230,001,男,32,2025-06-03_17h16.12.785,Serial_Dependence_U,2023.2.3,Win32,60.00240009601306,,,,,,512.9620500002056,231,0,512.9630749998614,231,,,,516.92057499988,517.4220099998638,516.4141600001603,516.9204000001773,513.9467000002041,516.4139600000344,517.422069999855,517.9196999999695,517.919774999842,521.9119799998589,3662,521.9121550000273,5,522.9056750000454,0,17,17,23,1,1.4,0.3,Time
,,132230,001,男,32,2025-06-03_17h16.12.785,Serial_Dependence_U,2023.2.3,Win32,60.00240009601306,,,,,,522.9072599997744,75,0,522.9079200001433,75,,,,526.6780900000595,527.1685600001365,526.1666700001806,526.6779100000858,523.9238049997948,526.1664200001396,527.1687599997967,527.679020000156,527.6791300000623,531.2719899998046,3039,531.272220000159,5,532.2646050001495,0,18,18,17,1,1.2,0.7,Time
,,132230,001,男,32,2025-06-03_17h16.12.785,Serial_Dependence_U,2023.2.3,Win32,60.00240009601306,,,,,,532.2658400000073,135,0,532.2663850001991,135,,,,536.0624600001611,536.5588699998334,535.5408899998292,536.062249999959,533.2951650000177,535.5407449998893,536.5589250000194,537.0366799999028,537.0464849998243,539.9890800002031,2410,539.9892949997447,5,540.9850849998184,0,19,19,7,1,1.2,0.7,Time
,,132230,001,男,32,2025-06-03_17h16.12.785,Serial_Dependence_U,2023.2.3,Win32,60.00240009601306,,,,,,540.9861900000833,218,0,540.9865749999881,218,,,,545.188850000035,545.6914349999279,544.6700149998069,545.1886450001039,541.9895950001664,544.6698050000705,545.6915199998766,546.1843949998729,546.1844999999739,549.3177899997681,2598,549.3180999998003,5,550.3206949997693,0,20,20,4,1,1.6,0.3,Time
,,132230,001,男,32,2025-06-03_17h16.12.785,Serial_Dependence_U,2023.2.3,Win32,60.00240009601306,,,,,,550.3219800000079,207,0,550.3228349997662,207,,,,554.3025400000624,554.802509999834,553.7854349999689,554.3023500000127,551.3209699997678,553.7852650000714,554.8025949997827,555.3029749998823,555.3030949998647,558.4809750001878,2569,558.4811700000428,5,559.4862950001843,0,21,21,13,1,1.4,0.3,Time
,,132230,001,男,32,2025-06-03_17h16.12.785,Serial_Dependence_U,2023.2.3,Win32,60.00240009601306,,,,,,559.4878449998796,87,0,559.4883300000802,87,,,,563.0931649999693,563.5849649999291,562.5792350000702,563.0929849999957,560.5116900000721,562.5790650001727,563.5850149998441,564.0785300000571,564.0786049999297,567.4917999999598,2933,567.4920399999246,5,568.4865899998695,0,22,22,1,1,1,0.3,Time
,,132230,001,男,32,2025-06-03_17h16.12.785,Serial_Dependence_U,2023.2.3,Win32,60.00240009601306,,,,,,568.488570000045,146,0,568.4893499999307,146,,,,571.8421249999665,572.3413550001569,571.3288599997759,571.8418950000778,569.4933299999684,571.3286350001581,572.3414150001481,572.8425449999049,572.8427249998786,576.172480000183,2812,576.1726799998432,5,577.1605750001036,0,23,23,15,1,0.8,0.7,Time
,,132230,001,男,32,2025-06-03_17h16.12.785,Serial_Dependence_U,2023.2.3,Win32,60.00240009601306,,,,,,577.1616400000639,83,0,577.1620800001547,83,,,,580.9753200002015,581.4742049998604,580.4635899998248,580.9751300001517,578.1766099999659,580.4634099998511,581.4742850000039,581.9698600000702,581.9699849998578,586.1094399997965,3507,586.1096999999136,5,587.0889099999331,0,24,24,12,1,1.2,0.3,Time
,,132230,001,男,32,2025-06-03_17h16.12.785,Serial_Dependence_U,2023.2.3,Win32,60.00240009601306,,,,,,587.0902800001204,284,0,587.0907899998128,284,,,,590.7229949999601,591.2318949997425,590.2104899999686,590.7228350001387,588.1246750000864,590.2103300001472,591.2319800001569,591.727835000027,591.7279349998571,594.1998999998905,2015,594.2001550002024,5,595.188244999852,0,25,25,21,1,1,0.3,Time
,,132230,001,男,32,2025-06-03_17h16.12.785,Serial_Dependence_U,2023.2.3,Win32,60.00240009601306,,,,,,595.1894700000994,76,0,595.1900900001638,76,,,,599.3689000001177,599.8607749999501,598.8552449997514,599.3686750000343,596.2001899997704,598.8549850001,599.8608650001697,600.3717950000428,600.3760250001214,603.2252349997871,2462,603.2254800000228,5,604.2215299997479,0,26,26,19,1,1.6,0.7,Time
,,132230,001,男,32,2025-06-03_17h16.12.785,Serial_Dependence_U,2023.2.3,Win32,60.00240009601306,,,,,,604.222444999963,210,0,604.2228950001299,210,,,,608.1922999997623,608.6972449999303,607.6802550000139,608.1921600000933,605.2405699999072,607.6801249999553,608.6974550001323,609.2004450000823,609.2005599997938,611.5562849999405,1667,611.556510000024,4,612.5531500000507,0,27,27,8,1,1.4,0.7,Time
,,132230,001,男,32,2025-06-03_17h16.12.785,Serial_Dependence_U,2023.2.3,Win32,60.00240009601306,,,,,,612.5544750001281,213,0,612.5551550001837,213,,,,616.7717550001107,617.2688449998386,616.2458000001498,616.77155999979,613.5782949998975,616.2455850001425,617.2690249998122,617.7620549998246,617.7622199999169,621.1082700002007,2481,621.1084599997848,5,622.0973749998957,0,28,28,14,1,1.6,0.3,Time
,,132230,001,男,32,2025-06-03_17h16.12.785,Serial_Dependence_U,2023.2.3,Win32,60.00240009601306,,,,,,622.0985150001943,349,0,622.0995550001971,349,,,,626.2581199998967,626.7516700001433,625.7476050001569,626.2579149999656,623.1102849999443,625.7474150001071,626.751739999745,627.2558749997988,627.2559750000946,629.9990799999796,2396,629.9993099998683,5,631.0050900001079,0,29,29,29,1,1.6,0.7,Time
,,132230,001,男,32,2025-06-03_17h16.12.785,Serial_Dependence_U,2023.2.3,Win32,60.00240009601306,,,,,,631.0067050000653,115,1,635.6743799997494,115,s,4.627899999730289,,639.0181450000964,639.5213399999775,638.5020849998109,639.0179900000803,636.668690000195,638.501900000032,639.5214499998838,640.0272099999711,640.027304999996,642.6391099998727,2152,642.6393349999562,5,642.6398700000718,1,0,30,5,1,0.8,0.7,Time
,,132230,001,男,32,2025-06-03_17h16.12.785,Serial_Dependence_U,2023.2.3,Win32,60.00240009601306,,,,,,642.6405150000937,344,1,642.6433600001037,344,,,,646.0411249999888,646.544119999744,645.5205850000493,646.0409399997443,643.6440300000831,645.5204150001518,646.5444000000134,647.0495799998753,647.0496899997815,649.5736400000751,1965,649.5738949999213,5,649.5743849999271,1,1,31,20,1,0.8,0.3,Time
,,132230,001,男,32,2025-06-03_17h16.12.785,Serial_Dependence_U,2023.2.3,Win32,60.00240009601306,,,,,,649.575029999949,104,1,649.5752750001848,104,,,,653.7443300001323,654.2458850000985,653.2315150001086,653.7441799999215,650.5919699999504,653.231319999788,654.245949999895,654.7473949999548,654.7559699998237,657.7465599998832,2448,657.7467899997719,5,657.7474599997513,1,2,32,19,1,1.6,0.7,Time
,,132230,001,男,32,2025-06-03_17h16.12.785,Serial_Dependence_U,2023.2.3,Win32,60.00240009601306,,,,,,657.7481200001203,80,1,657.7483700001612,80,,,,661.5414700000547,662.0301049998961,661.030894999858,661.5413099997677,658.7594750002027,661.0307200001553,662.0301649998873,662.5400249999948,662.5401449999772,665.6946000000462,2708,665.6948049999774,5,665.695284999907,1,3,33,22,1,1.2,0.3,Time
,,132230,001,男,32,2025-06-03_17h16.12.785,Serial_Dependence_U,2023.2.3,Win32,60.00240009601306,,,,,,665.6958650001325,293,1,665.6961050000973,293,,,,669.0744199999608,669.570390000008,668.5723799997941,669.0742950001732,666.7046750001609,668.5721299997531,669.5704499999993,670.0691700000316,670.0692500001751,671.7090799999423,1292,671.7092900001444,5,671.7098750001751,1,4,34,0,1,0.8,0.3,Time
,,132230,001,男,32,2025-06-03_17h16.12.785,Serial_Dependence_U,2023.2.3,Win32,60.00240009601306,,,,,,671.7105299998075,32,1,671.710820000153,32,,,,675.9096099999733,676.4080799999647,675.4033249998465,675.9094799999148,672.7214350001886,675.4031650000252,676.4081449997611,676.9033900001086,676.9034349997528,680.4214249998331,3046,680.4216100000776,5,680.4220949998125,1,5,35,24,1,1.6,0.3,Time
,,132230,001,男,32,2025-06-03_17h16.12.785,Serial_Dependence_U,2023.2.3,Win32,60.00240009601306,,,,,,680.4228099999018,30,1,680.4231400000863,30,,,,684.4273199997842,684.927364999894,683.9252900001593,684.4270899998955,681.4530549999326,683.9250650000758,684.9274499998428,685.4167800000869,685.4168850001879,688.553559999913,3100,688.5537399998866,5,688.5542799998075,1,6,36,13,1,1.4,0.3,Time
,,132230,001,男,32,2025-06-03_17h16.12.785,Serial_Dependence_U,2023.2.3,Win32,60.00240009601306,,,,,,688.5549349999055,155,1,688.5551700000651,155,,,,692.7336450000294,693.2342849997804,692.2304899999872,692.7334900000133,689.5873050000519,692.2302700001746,693.2343549998477,693.737625000067,693.737714999821,696.1424699998461,1916,696.1426450000145,4,696.1432099998929,1,7,37,9,1,1.6,0.7,Time
,,132230,001,男,32,2025-06-03_17h16.12.785,Serial_Dependence_U,2023.2.3,Win32,60.00240009601306,,,,,,696.1438400000334,69,1,696.1440449999645,69,,,,700.3091299999505,700.8012649999,699.7904949998483,700.3089250000194,697.1565549997613,699.790279999841,700.8013300001621,701.2944000000134,701.304409999866,704.9484000001103,3143,704.9486199999228,5,704.9491300000809,1,8,38,29,1,1.6,0.7,Time
,,132230,001,男,32,2025-06-03_17h16.12.785,Serial_Dependence_U,2023.2.3,Win32,60.00240009601306,,,,,,704.9496499998495,117,1,704.949835000094,117,,,,708.5395800000988,709.0348999998532,708.0197749999352,708.5394350001588,705.9610049999319,708.0196099998429,709.034984999802,709.5313149997965,709.531444999855,713.4515649997629,3269,713.451774999965,5,713.452219999861,1,9,39,6,1,1,0.7,Time
,,132230,001,男,32,2025-06-03_17h16.12.785,Serial_Dependence_U,2023.2.3,Win32,60.00240009601306,,,,,,713.4528299998492,298,1,713.4530600002035,298,,,,717.0410050000064,717.5383999999613,716.5319349998608,717.0408100001514,714.4592149998061,716.5316849998198,717.5384649997577,718.0343650002033,718.0344599997625,720.6354899997823,2220,720.6357249999419,5,720.6362399999052,1,10,40,1,1,1,0.3,Time
,,132230,001,男,32,2025-06-03_17h16.12.785,Serial_Dependence_U,2023.2.3,Win32,60.00240009601306,,,,,,720.6368800001219,338,1,720.6371149998158,338,,,,724.6039049997926,725.1061499998905,724.1020399997942,724.6037200000137,721.6634900001809,724.1018949998543,725.1062199999578,725.6008100002073,725.6009249999188,728.3613049997948,2392,728.3615500000305,5,728.3620050000027,1,11,41,18,1,1.4,0.7,Time
,,132230,001,男,32,2025-06-03_17h16.12.785,Serial_Dependence_U,2023.2.3,Win32,60.00240009601306,,,,,,728.3627550001256,3,1,728.3629749999382,3,,,,732.1115449997596,732.613425000105,731.5960699999705,732.1113849999383,729.3532750001177,731.595844999887,732.6134950001724,733.118259999901,733.1183699998073,735.9635499999858,2731,735.9637750000693,5,735.9643700001761,1,12,42,27,1,1.2,0.7,Time
,,132230,001,男,32,2025-06-03_17h16.12.785,Serial_Dependence_U,2023.2.3,Win32,60.00240009601306,,,,,,735.9650400001556,332,1,735.9653300000355,332,,,,739.7062650001608,740.2038050000556,739.1955999997444,739.7060400000773,736.9608149998821,739.1954600000754,740.2038850001991,740.7005549999885,740.700619999785,743.5389749999158,2320,743.5391750000417,5,743.5396799999289,1,13,43,17,1,1.2,0.7,Time
,,132230,001,男,32,2025-06-03_17h16.12.785,Serial_Dependence_U,2023.2.3,Win32,60.00240009601306,,,,,,743.5403700000606,255,1,743.5406249999069,255,,,,747.3579600001685,747.8570099999197,746.8406899999827,747.3578050001524,744.563000000082,746.840499999933,747.857079999987,748.3497199998237,748.3573849997483,752.0960800000466,3037,752.0962800001726,5,752.0967350001447,1,14,44,2,1,1.2,0.3,Time
,,132230,001,男,32,2025-06-03_17h16.12.785,Serial_Dependence_U,2023.2.3,Win32,60.00240009601306,,,,,,752.0972649999894,143,1,752.0975449997932,143,,,,756.2900049998425,756.7884399998002,755.7736249999143,756.2898849998601,753.0964049999602,755.7734499997459,756.7885099998675,757.2838599998504,757.2839600001462,760.7555999998003,3128,760.7558100000024,5,760.7562549998984,1,15,45,14,1,1.6,0.3,Time
,,132230,001,男,32,2025-06-03_17h16.12.785,Serial_Dependence_U,2023.2.3,Win32,60.00240009601306,,,,,,760.7568450002,246,1,760.75708999997,246,,,,764.3238200000487,764.8195949997753,763.8130100001581,764.3236699998379,761.7732350002043,763.812799999956,764.8196499999613,765.3177249999717,765.3177849999629,768.5863399999216,2778,768.5865299999714,5,768.586959999986,1,16,46,26,1,1,0.7,Time
,,132230,001,男,32,2025-06-03_17h16.12.785,Serial_Dependence_U,2023.2.3,Win32,60.00240009601306,,,,,,768.5875050001778,218,1,768.5876750000753,218,,,,772.3758649998344,772.876189999748,771.8559099999256,772.375744999852,769.6065050000325,771.8557400000282,772.8762750001624,773.3775349999778,773.3776850001886,776.0405999999493,2144,776.0408499999903,5,776.0414550001733,1,17,47,7,1,1.2,0.7,Time
,,132230,001,男,32,2025-06-03_17h16.12.785,Serial_Dependence_U,2023.2.3,Win32,60.00240009601306,,,,,,776.0420900001191,309,1,776.0423099999316,309,,,,780.0220550000668,780.5216649998911,779.500694999937,780.021809999831,777.0544050000608,779.5005100001581,780.5217249998823,781.0166449998505,781.0167049998417,784.1087250001729,2715,784.1089949999005,5,784.1097699999809,1,18,48,28,1,1.4,0.7,Time
,,132230,001,男,32,2025-06-03_17h16.12.785,Serial_Dependence_U,2023.2.3,Win32,60.00240009601306,,,,,,784.1104399999604,80,1,784.11067500012,80,,,,788.0860899998806,788.5842149998061,787.5620699999854,788.0858999998309,785.1230299999006,787.5618900000118,788.5842900001444,789.0776499998756,789.0777650000528,792.1952149998397,2758,792.195390000008,5,792.1957999998704,1,19,49,8,1,1.4,0.7,Time
,,132230,001,男,32,2025-06-03_17h16.12.785,Serial_Dependence_U,2023.2.3,Win32,60.00240009601306,,,,,,792.196440000087,171,1,792.1966499998234,171,,,,795.5703799999319,796.0612599998713,795.0615750001743,795.5702300001867,793.208459999878,795.0614399998449,796.0615349998698,796.5516849998385,796.5517699997872,800.1394549999386,2954,800.1396349999122,5,800.1401599999517,1,20,50,15,1,0.8,0.7,Time
,,132230,001,男,32,2025-06-03_17h16.12.785,Serial_Dependence_U,2023.2.3,Win32,60.00240009601306,,,,,,800.1408350002021,358,1,800.1411150000058,358,,,,804.1329350001179,804.6230049999431,803.6194299999624,804.1327999997884,801.140269999858,803.6192100001499,804.6230850000866,805.118420000188,805.1287199999206,808.0398749997839,2527,808.0400700001046,5,808.0405700001866,1,21,51,3,1,1.4,0.3,Time
,,132230,001,男,32,2025-06-03_17h16.12.785,Serial_Dependence_U,2023.2.3,Win32,60.00240009601306,,,,,,808.0411749999039,351,1,808.0414599999785,351,,,,811.8250250001438,812.3246700000018,811.3067000000738,811.824835000094,809.044280000031,811.306559999939,812.3247449998744,812.8171799997799,812.8172399997711,815.8879149998538,2599,815.888135000132,5,815.8886750000529,1,22,52,12,1,1.2,0.3,Time
,,132230,001,男,32,2025-06-03_17h16.12.785,Serial_Dependence_U,2023.2.3,Win32,60.00240009601306,,,,,,815.8893349999562,200,1,815.8895649998449,200,,,,819.4885599999689,819.9852700000629,818.9744850001298,819.4883949998766,816.9002249999903,818.9742299998179,819.9853349998593,820.4703350001946,820.470455000177,823.3457149998285,2549,823.3458699998446,5,823.3465149998665,1,23,53,21,1,1,0.3,Time
,,132230,001,男,32,2025-06-03_17h16.12.785,Serial_Dependence_U,2023.2.3,Win32,60.00240009601306,,,,,,823.3471849998459,285,1,823.3477750001475,285,,,,826.7231499999762,827.2166399997659,826.2053849999793,826.7230250001885,824.3615449997596,826.2051749997772,827.2167349997908,827.7263549999334,827.7264749999158,831.1476699998602,3035,831.147965000011,5,831.1485600001179,1,24,54,25,1,0.8,0.7,Time
,,132230,001,男,32,2025-06-03_17h16.12.785,Serial_Dependence_U,2023.2.3,Win32,60.00240009601306,,,,,,831.1491849999875,45,1,831.1494299997576,45,,,,834.7382950000465,835.234875000082,834.2232550000772,834.7381049999967,832.1597699997947,834.2230699998327,835.2349350000732,835.733519999776,835.7336200000718,838.6018750001676,2512,838.602084999904,5,838.6025100001134,1,25,55,11,1,1,0.3,Time
,,132230,001,男,32,2025-06-03_17h16.12.785,Serial_Dependence_U,2023.2.3,Win32,60.00240009601306,,,,,,838.6030950001441,200,1,838.603329999838,200,,,,842.8041499997489,843.2962650000118,842.2866599997506,842.8039950001985,839.5967950001359,842.2864700001664,843.2963350000791,843.7999950000085,843.8001000001095,846.5376249998808,2385,846.537845000159,5,846.5383649999276,1,26,56,4,1,1.6,0.3,Time
,,132230,001,男,32,2025-06-03_17h16.12.785,Serial_Dependence_U,2023.2.3,Win32,60.00240009601306,,,,,,846.538945000153,101,1,846.5392049998045,101,,,,850.0842699999921,850.586459999904,849.5794549998827,850.084114999976,847.5460700001568,849.5792549997568,850.5865349997766,851.0824449998327,851.0825749998912,854.214304999914,2796,854.2144700000063,5,854.2148649999872,1,27,57,16,1,1,0.7,Time
,,132230,001,男,32,2025-06-03_17h16.12.785,Serial_Dependence_U,2023.2.3,Win32,60.00240009601306,,,,,,854.2154350001365,359,1,854.2156500001438,359,,,,857.6321950000711,858.1432449999265,857.1109649999999,857.6319900001399,855.2429749998264,857.1108050001785,858.1433549998328,858.6441199998371,858.6506449999288,861.6355800000019,2650,861.6357849999331,5,861.6362600000575,1,28,58,10,1,0.8,0.3,Time
,,132230,001,男,32,2025-06-03_17h16.12.785,Serial_Dependence_U,2023.2.3,Win32,60.00240009601306,,,,,,861.6369199999608,135,1,861.6371700000018,135,,,,865.6263899998739,866.1229849997908,865.1074999999255,865.6261649997905,862.638724999968,865.107330000028,866.1230500000529,866.6132399998605,866.6133699999191,867.0929350000806,82,867.0931150000542,1,867.093694999814,1,29,59,23,1,1.4,0.3,Time
,,132230,001,男,32,2025-06-03_17h16.12.785,Serial_Dependence_U,2023.2.3,Win32,60.00240009601306,,,,,,867.0943450001068,102,2,872.6597850001417,102,s,5.540739999618381,,876.8597499998286,877.3596600000747,876.34206000017,876.8595549999736,873.6844099997543,876.3418899998069,877.3597749997862,877.8511049998924,877.8512499998324,881.4252849998884,3008,881.4255300001241,5,881.4259600001387,2,0,60,19,1,1.6,0.7,Time
,,132230,001,男,32,2025-06-03_17h16.12.785,Serial_Dependence_U,2023.2.3,Win32,60.00240009601306,,,,,,881.4264949997887,98,2,881.4297449998558,98,,,,885.0115450001322,885.504745000042,884.4999850001186,885.0112999998964,882.4491849998012,884.4997849999927,885.5048650000244,885.9994450001977,885.9996799998917,889.874505000189,3020,889.8747649998404,5,889.875299999956,2,1,61,26,1,1,0.7,Time
,,132230,001,男,32,2025-06-03_17h16.12.785,Serial_Dependence_U,2023.2.3,Win32,60.00240009601306,,,,,,889.875905000139,68,2,889.8761700000614,68,,,,893.6463449997827,894.147965000011,893.1289099999703,893.6461899997666,890.8809099998325,893.1286849998869,894.1480499999598,894.6437499998137,894.6441350001842,898.2776150000282,3228,898.2778199999593,5,898.27840499999,2,2,62,27,1,1.2,0.7,Time
,,132230,001,男,32,2025-06-03_17h16.12.785,Serial_Dependence_U,2023.2.3,Win32,60.00240009601306,,,,,,898.279010000173,173,2,898.279205000028,173,,,,902.2945650001056,902.7930549997836,901.7789099998772,902.2944149998948,899.2984000002034,901.7787500000559,902.7931349999271,903.3008900000714,903.3010499998927,907.0664349999279,3492,907.0666649998166,5,907.0672300001606,2,3,63,23,1,1.4,0.3,Time
,,132230,001,男,32,2025-06-03_17h16.12.785,Serial_Dependence_U,2023.2.3,Win32,60.00240009601306,,,,,,907.067884999793,14,2,907.0681249997579,14,,,,911.2716350001283,911.7688449998386,910.7595099997707,911.2714949999936,908.0698600001633,910.7593700001016,911.7689249999821,912.2610499998555,912.271954999771,915.6576649998315,3199,915.6579200001433,5,915.6584199997596,2,4,64,4,1,1.6,0.3,Time
,,132230,001,男,32,2025-06-03_17h16.12.785,Serial_Dependence_U,2023.2.3,Win32,60.00240009601306,,,,,,915.6590200001374,169,2,915.6592649999075,169,,,,919.4199500000104,919.9099900000729,918.9047650001012,919.4196549998596,916.6524249999784,918.9045850001276,919.9101049997844,920.4006849997677,920.4007899998687,923.5677899997681,2791,923.5680249999277,5,923.5686200000346,2,5,65,17,1,1.2,0.7,Time
,,132230,001,男,32,2025-06-03_17h16.12.785,Serial_Dependence_U,2023.2.3,Win32,60.00240009601306,,,,,,923.5692249997519,246,2,923.5694550001062,246,,,,927.1828649998643,927.6862800000235,926.6698400001042,927.182699999772,924.5806200001389,926.6696600001305,927.6863699997775,928.1654050000943,928.1654949998483,931.9087749999017,3299,931.9089649999514,5,931.9093300001696,2,6,66,1,1,1,0.3,Time
,,132230,001,男,32,2025-06-03_17h16.12.785,Serial_Dependence_U,2023.2.3,Win32,60.00240009601306,,,,,,931.9098000000231,35,2,931.9099699999206,35,,,,935.8774799997918,936.3824649997987,935.3590150000528,935.8773400001228,932.9129499997944,935.3588649998419,936.3825400001369,936.8836249997839,936.8837199998088,937.3514149999246,182,937.3517149998806,1,937.3525499999523,2,7,67,28,1,1.4,0.7,Time
,,132230,001,男,32,2025-06-03_17h16.12.785,Serial_Dependence_U,2023.2.3,Win32,60.00240009601306,,,,,,937.3532099998556,350,2,937.3534249998629,350,,,,941.3128949999809,941.8087249998935,940.8089049998671,941.3127350001596,938.3660800000653,940.8087399997748,941.8088150001131,942.3016050001606,942.301725000143,945.3500500000082,2562,945.3502449998632,5,945.3507849997841,2,8,68,18,1,1.4,0.7,Time
,,132230,001,男,32,2025-06-03_17h16.12.785,Serial_Dependence_U,2023.2.3,Win32,60.00240009601306,,,,,,945.3515050001442,297,2,945.3518199999817,297,,,,948.7293899999931,949.2312599997967,948.213560000062,948.729185000062,946.3552649999037,948.2133499998599,949.2313299998641,949.7256700000726,949.7257849997841,952.4207799998112,2300,952.4210000000894,5,952.4215449998155,2,9,69,15,1,0.8,0.7,Time
,,132230,001,男,32,2025-06-03_17h16.12.785,Serial_Dependence_U,2023.2.3,Win32,60.00240009601306,,,,,,952.4222399997525,4,2,952.4225200000219,4,,,,955.9863800001331,956.4829349997453,955.4748900001869,955.9862000001594,953.4361849999987,955.4747000001371,956.483080000151,956.9841200001538,956.9842349998653,960.1710600000806,2834,960.1712150000967,5,960.1716849999502,2,10,70,16,1,1,0.7,Time
,,132230,001,男,32,2025-06-03_17h16.12.785,Serial_Dependence_U,2023.2.3,Win32,60.00240009601306,,,,,,960.1722999997437,53,2,960.1724899997935,53,,,,963.9881299999543,964.4778249999508,963.4652700000443,963.9879749999382,961.1874600001611,963.4650799999945,964.4779150001705,964.977584999986,964.9872800000012,968.0800450001843,2708,968.0803200001828,5,968.0813449998386,2,11,71,12,1,1.2,0.3,Time
,,132230,001,男,32,2025-06-03_17h16.12.785,Serial_Dependence_U,2023.2.3,Win32,60.00240009601306,,,,,,968.0820900001563,172,2,968.0823550000787,172,,,,971.8945900001563,972.3836550000124,971.3710799999535,971.8944100001827,969.1022199997678,971.3708850000985,972.3837500000373,972.8842650000006,972.8843749999069,976.4772950001061,3195,976.4774899999611,5,976.4781249999069,2,12,72,22,1,1.2,0.3,Time
,,132230,001,男,32,2025-06-03_17h16.12.785,Serial_Dependence_U,2023.2.3,Win32,60.00240009601306,,,,,,976.4790449999273,26,2,976.4793750001118,26,,,,980.0887949997559,980.5844899998046,979.5871449997649,980.0886249998584,977.511735000182,979.5869200001471,980.5845849998295,981.0794600001536,981.0795749998651,984.2238949998282,2819,984.2240699999966,5,984.2245149998926,2,13,73,21,1,1,0.3,Time
,,132230,001,男,32,2025-06-03_17h16.12.785,Serial_Dependence_U,2023.2.3,Win32,60.00240009601306,,,,,,984.2251550001092,12,2,984.2253549997695,12,,,,987.8065399997868,988.2979100001976,987.2957600001246,987.8062999998219,985.2245499999262,987.2955999998376,988.2980049997568,988.7847049999982,988.7848299997859,991.6830600001849,2496,991.6831549997441,5,991.6835150001571,2,14,74,11,1,1,0.3,Time
,,132230,001,男,32,2025-06-03_17h16.12.785,Serial_Dependence_U,2023.2.3,Win32,60.00240009601306,,,,,,991.6839450001717,201,2,991.6841150000691,201,,,,995.6887349998578,996.1780199999921,995.1673699999228,995.6885750000365,992.6964850001968,995.1671250001527,996.1781250000931,996.6825350001454,996.6826399997808,999.9625050001778,2932,999.9630450000986,5,999.9636599998921,2,15,75,13,1,1.4,0.3,Time
,,132230,001,男,32,2025-06-03_17h16.12.785,Serial_Dependence_U,2023.2.3,Win32,60.00240009601306,,,,,,999.9643899998628,238,2,999.9646499999799,238,,,,1003.7824550000951,1004.2898949999362,1003.2612250000238,1003.7823199997656,1000.9821399999782,1003.2610700000077,1004.2900549997576,1004.7903599999845,1004.7903999998234,1008.1114500002004,2904,1008.1116900001653,5,1008.1121999998577,2,16,76,2,1,1.2,0.3,Time
,,132230,001,男,32,2025-06-03_17h16.12.785,Serial_Dependence_U,2023.2.3,Win32,60.00240009601306,,,,,,1008.1133349998854,297,2,1008.113659999799,297,,,,1012.3088650000282,1012.8007450001314,1011.7944700000808,1012.3086850000545,1009.1285850000568,1011.7943049999885,1012.8008249998093,1013.2981050000526,1013.304020000156,1016.4007899998687,2727,1016.4010000000708,5,1016.4015350001864,2,17,77,24,1,1.6,0.3,Time
,,132230,001,男,32,2025-06-03_17h16.12.785,Serial_Dependence_U,2023.2.3,Win32,60.00240009601306,,,,,,1016.4022900001146,15,2,1016.4026299999095,15,,,,1019.7603199998848,1020.265075000003,1019.2499199998565,1019.7601250000298,1017.4138150000945,1019.2497849999927,1020.2651450000703,1020.7662849999033,1020.7664100001566,1024.22882999992,2959,1024.2290050000884,5,1024.2294049998745,2,18,78,25,1,0.8,0.7,Time
,,132230,001,男,32,2025-06-03_17h16.12.785,Serial_Dependence_U,2023.2.3,Win32,60.00240009601306,,,,,,1024.229969999753,160,2,1024.230179999955,160,,,,1028.4110949998721,1028.9205049998127,1027.9013649998233,1028.4109200001694,1025.2268949998543,1027.901215000078,1028.9205550001934,1029.4153649997897,1029.4154550000094,1032.5748299998231,2707,1032.5751000000164,5,1032.5757499998435,2,19,79,14,1,1.6,0.3,Time
,,132230,001,男,32,2025-06-03_17h16.12.785,Serial_Dependence_U,2023.2.3,Win32,60.00240009601306,,,,,,1032.576524999924,40,2,1032.5767850000411,40,,,,1035.9880749997683,1036.4912250000052,1035.4631750001572,1035.9879100001417,1033.577969999984,1035.4629899999127,1036.4912999998778,1036.9902400001884,1036.9903449998237,1039.3714250000194,1978,1039.3715849998407,5,1039.3721199999563,2,20,80,20,1,0.8,0.3,Time
,,132230,001,男,32,2025-06-03_17h16.12.785,Serial_Dependence_U,2023.2.3,Win32,60.00240009601306,,,,,,1039.372649999801,73,2,1039.372849999927,73,,,,1043.3783200001344,1043.8668649997562,1042.8571049999446,1043.3781099999323,1040.3847650000826,1042.8569049998187,1043.8669449998997,1044.3662399998866,1044.3663550000638,1048.1330550001003,2957,1048.1332549997605,5,1048.1336750001647,2,21,81,3,1,1.4,0.3,Time
,,132230,001,男,32,2025-06-03_17h16.12.785,Serial_Dependence_U,2023.2.3,Win32,60.00240009601306,,,,,,1048.1342650000006,187,2,1048.134480000008,187,,,,1051.540479999967,1052.0338400001638,1051.0250149997883,1051.5403149998747,1049.1475999997929,1051.0248349998146,1052.0339250001125,1052.5376949999481,1052.5378250000067,1055.6764899999835,2767,1055.676725000143,5,1055.6771550001577,2,22,82,10,1,0.8,0.3,Time
,,132230,001,男,32,2025-06-03_17h16.12.785,Serial_Dependence_U,2023.2.3,Win32,60.00240009601306,,,,,,1055.6777650001459,173,2,1055.6780249997973,173,,,,1059.843710000161,1060.343960000202,1059.328714999836,1059.843555000145,1056.6785399997607,1059.3285599998198,1060.3440299998038,1060.8323650001548,1060.8404000001028,1064.2897250000387,2970,1064.2899549999274,5,1064.2903800001368,2,23,83,29,1,1.6,0.7,Time
,,132230,001,男,32,2025-06-03_17h16.12.785,Serial_Dependence_U,2023.2.3,Win32,60.00240009601306,,,,,,1064.2910199998878,286,2,1064.2912499997765,286,,,,1067.6742050000466,1068.1637300001457,1067.1589299999177,1067.674019999802,1065.2929199999198,1067.1587100001052,1068.1637949999422,1068.6649500001222,1068.6650600000285,1072.8300399999134,3318,1072.830219999887,5,1072.830614999868,2,24,84,0,1,0.8,0.3,Time
,,132230,001,男,32,2025-06-03_17h16.12.785,Serial_Dependence_U,2023.2.3,Win32,60.00240009601306,,,,,,1072.8311749999411,23,2,1072.8313899999484,23,,,,1076.219144999981,1076.71296000015,1075.7004300002009,1076.2189899999648,1073.8457249999046,1075.7002849997953,1076.7130450000986,1077.2110449997708,1077.2111399997957,1080.90041500004,3373,1080.9006050000899,5,1080.9010649998672,2,25,85,5,1,0.8,0.7,Time
,,132230,001,男,32,2025-06-03_17h16.12.785,Serial_Dependence_U,2023.2.3,Win32,60.00240009601306,,,,,,1080.9016950000077,170,2,1080.9019249998964,170,,,,1085.0893600001,1085.5832850001752,1084.5703549999744,1085.0892349998467,1081.91787499981,1084.5702100000344,1085.583354999777,1086.070574999787,1086.0707149999216,1089.6433799997903,3133,1089.6435949997976,5,1089.6441299999133,2,26,86,9,1,1.6,0.7,Time
,,132230,001,男,32,2025-06-03_17h16.12.785,Serial_Dependence_U,2023.2.3,Win32,60.00240009601306,,,,,,1089.6448450000025,200,2,1089.645070000086,200,,,,1093.2303149998188,1093.7316999998875,1092.717949999962,1093.2301599998027,1090.684065000154,1092.7177200000733,1093.7317550000735,1094.2196649997495,1094.2197549999692,1097.0026799999177,2219,1097.002894999925,5,1097.003289999906,2,27,87,6,1,1,0.7,Time
,,132230,001,男,32,2025-06-03_17h16.12.785,Serial_Dependence_U,2023.2.3,Win32,60.00240009601306,,,,,,1097.0038299998268,218,2,1097.0040299999528,218,,,,1100.7733450001106,1101.2676499998197,1100.2557999999262,1100.7731849998236,1098.0231849998236,1100.2556599997915,1101.2677299999632,1101.7645999998786,1101.7647150000557,1105.6478349999525,3514,1105.648060000036,5,1105.648515000008,2,28,88,7,1,1.2,0.7,Time
,,132230,001,男,32,2025-06-03_17h16.12.785,Serial_Dependence_U,2023.2.3,Win32,60.00240009601306,,,,,,1105.6492699999362,301,2,1105.6494950000197,301,,,,1109.6025100001134,1110.1110450001433,1109.0971400002018,1109.6022749999538,1106.6590749998577,1109.0969299999997,1110.1111249998212,1110.6093049999326,1110.6190800000913,1114.0863350001164,3015,1114.0865899999626,5,1114.0870900000446,2,29,89,8,1,1.4,0.7,Time
,,132230,001,男,32,2025-06-03_17h16.12.785,Serial_Dependence_U,2023.2.3,Win32,60.00240009601306,,,,,,1114.0876299999654,173,3,1120.8867099997588,173,s,6.768205000087619,,1124.8577000000514,1125.3565899999812,1124.3467700001784,1124.857530000154,1121.8991749999113,1124.3465749998577,1125.3566649998538,1125.8581550000235,1125.8582500000484,1129.3929849998094,3074,1129.3932300000452,5,1129.3936600000598,3,0,90,8,1,1.4,0.7,Time
,,132230,001,男,32,2025-06-03_17h16.12.785,Serial_Dependence_U,2023.2.3,Win32,60.00240009601306,,,,,,1129.3942599999718,351,3,1129.3974250000902,351,,,,1132.758529999759,1133.2487349999137,1132.2561550000682,1132.758334999904,1130.4244949999265,1132.256029999815,1133.2488099997863,1133.7512699998915,1133.7513649999164,1136.9715700000525,2897,1136.9717549998313,5,1136.9747750000097,3,1,91,15,1,0.8,0.7,Time
,,132230,001,男,32,2025-06-03_17h16.12.785,Serial_Dependence_U,2023.2.3,Win32,60.00240009601306,,,,,,1136.975534999743,7,3,1136.9758100002073,7,,,,1140.9639900000766,1141.453619999811,1140.4567999998108,1140.9638450001366,1137.9770550001413,1140.4567049997859,1141.4537749998271,1141.9435100001283,1141.9436099999584,1145.5905749998055,3220,1145.590749999974,5,1145.5911249998026,3,2,92,13,1,1.4,0.3,Time
,,132230,001,男,32,2025-06-03_17h16.12.785,Serial_Dependence_U,2023.2.3,Win32,60.00240009601306,,,,,,1145.5917299999855,109,3,1145.5919800000265,109,,,,1149.1825649999082,1149.6705200001597,1148.6713600000367,1149.1823350000195,1146.6210199999623,1148.6711949999444,1149.6705899997614,1150.163840000052,1150.163935000077,1153.5229799998924,2720,1153.523209999781,5,1153.5236700000241,3,3,93,26,1,1,0.7,Time
,,132230,001,男,32,2025-06-03_17h16.12.785,Serial_Dependence_U,2023.2.3,Win32,60.00240009601306,,,,,,1153.5243750000373,5,3,1153.5245750001632,5,,,,1157.1057099997997,1157.6004099999554,1156.5875450000167,1157.10551999975,1154.51268000016,1156.5873699998483,1157.6004800000228,1158.0924849999137,1158.092600000091,1161.5388949997723,2979,1161.5390699999407,5,1161.5394500000402,3,4,94,21,1,1,0.3,Time
,,132230,001,男,32,2025-06-03_17h16.12.785,Serial_Dependence_U,2023.2.3,Win32,60.00240009601306,,,,,,1161.53988499986,346,3,1161.5400100001134,346,,,,1164.971200000029,1165.4734249999747,1164.4445600002073,1164.970989999827,1162.555904999841,1164.444379999768,1165.4734999998473,1165.9645799999125,1165.9648099998012,1169.1174550000578,2489,1169.1176950000226,5,1169.1181450001895,3,5,95,20,1,0.8,0.3,Time
,,132230,001,男,32,2025-06-03_17h16.12.785,Serial_Dependence_U,2023.2.3,Win32,60.00240009601306,,,,,,1169.119059999939,131,3,1169.1192649998702,131,,,,1173.3024749998003,1173.797724999953,1172.8003699998371,1173.3023299998604,1170.1333499997854,1172.8001700001769,1173.7977899997495,1174.2857550000772,1174.2907850001939,1178.5805899999104,3740,1178.5808850000612,5,1178.5813299999572,3,6,96,24,1,1.6,0.3,Time
,,132230,001,男,32,2025-06-03_17h16.12.785,Serial_Dependence_U,2023.2.3,Win32,60.00240009601306,,,,,,1178.581970000174,143,3,1178.5821500001475,143,,,,1182.794925000053,1183.2965150000528,1182.2934499997646,1182.7944649998099,1179.6165999998339,1182.2932400000282,1183.2965950001962,1183.7867049998604,1183.7867649998516,1187.0652700001374,2921,1187.0655100001022,5,1187.065934999846,3,7,97,4,1,1.6,0.3,Time
,,132230,001,男,32,2025-06-03_17h16.12.785,Serial_Dependence_U,2023.2.3,Win32,60.00240009601306,,,,,,1187.0665750000626,348,3,1187.066850000061,348,,,,1191.2214549998753,1191.710909999907,1190.7083850000054,1191.2212749999017,1188.0537800001912,1190.7082150001079,1191.7109949998558,1192.2020600000396,1192.2021900000982,1195.7722350000404,3288,1195.7724999999627,5,1195.7730999998748,3,8,98,19,1,1.6,0.7,Time
,,132230,001,男,32,2025-06-03_17h16.12.785,Serial_Dependence_U,2023.2.3,Win32,60.00240009601306,,,,,,1195.7737349998206,232,3,1195.7739900001325,232,,,,1199.9684399999678,1200.4759550001472,1199.462249999866,1199.968289999757,1196.7886700001545,1199.4619649997912,1200.4760150001384,1200.9695350001566,1200.969639999792,1204.9904800001532,3617,1204.990770000033,5,1204.991415000055,3,9,99,14,1,1.6,0.3,Time
,,132230,001,男,32,2025-06-03_17h16.12.785,Serial_Dependence_U,2023.2.3,Win32,60.00240009601306,,,,,,1204.992054999806,200,3,1204.9922699998133,200,,,,1208.3695950000547,1208.864014999941,1207.8502299999818,1208.3693949999288,1206.008529999759,1207.8500700001605,1208.8640950000845,1209.3662849999964,1209.3663749997504,1212.509184999857,2810,1212.5093749999069,5,1212.5098149999976,3,10,100,5,1,0.8,0.7,Time
,,132230,001,男,32,2025-06-03_17h16.12.785,Serial_Dependence_U,2023.2.3,Win32,60.00240009601306,,,,,,1212.510340000037,199,3,1212.5105750001967,199,,,,1216.2802849998698,1216.770725000184,1215.763530000113,1216.2801350001246,1213.5258700000122,1215.7633750000969,1216.7708299998194,1217.2647299999371,1217.2648499999195,1220.0852350001223,2415,1220.085409999825,5,1220.0858499999158,3,11,101,7,1,1.2,0.7,Time
,,132230,001,男,32,2025-06-03_17h16.12.785,Serial_Dependence_U,2023.2.3,Win32,60.00240009601306,,,,,,1220.0864550000988,143,3,1220.0867050001398,143,,,,1224.2682050000876,1224.769530000165,1223.760474999901,1224.2679849998094,1221.1088000000454,1223.7603649999946,1224.7695849998854,1225.2661799998023,1225.2662749998271,1228.6388650001027,2938,1228.6401900001802,5,1228.6408000001684,3,12,102,29,1,1.6,0.7,Time
,,132230,001,男,32,2025-06-03_17h16.12.785,Serial_Dependence_U,2023.2.3,Win32,60.00240009601306,,,,,,1228.641464999877,284,3,1228.6417450001463,284,,,,1232.219395000022,1232.7258500000462,1231.702124999836,1232.219250000082,1229.652404999826,1231.7019250001758,1232.7260699998587,1233.2187350001186,1233.2268550000153,1235.0578250000253,1389,1235.0580699997954,5,1235.058610000182,3,13,103,6,1,1,0.7,Time
,,132230,001,男,32,2025-06-03_17h16.12.785,Serial_Dependence_U,2023.2.3,Win32,60.00240009601306,,,,,,1235.059260000009,179,3,1235.0594750000164,179,,,,1238.8394149998203,1239.342399999965,1238.3249349999242,1238.8392799999565,1236.0766599997878,1238.3247549999505,1239.3424800001085,1239.8468300001696,1239.846934999805,1243.17201999994,2924,1243.1721700001508,5,1243.172875000164,3,14,104,27,1,1.2,0.7,Time
,,132230,001,男,32,2025-06-03_17h16.12.785,Serial_Dependence_U,2023.2.3,Win32,60.00240009601306,,,,,,1243.1736400001682,238,3,1243.1738599999808,238,,,,1247.177015000023,1247.6774999997579,1246.673159999773,1247.176864999812,1244.2012700000778,1246.67303000018,1247.6775299999863,1248.1819899999537,1248.1820800001733,1251.8100399998948,3275,1251.8102400000207,5,1251.810705000069,3,15,105,23,1,1.4,0.3,Time
,,132230,001,男,32,2025-06-03_17h16.12.785,Serial_Dependence_U,2023.2.3,Win32,60.00240009601306,,,,,,1251.8113799998537,93,3,1251.8116299998946,93,,,,1255.5951849999838,1256.0994199998677,1255.0825800001621,1255.5950199998915,1252.8145149997436,1255.0823749997653,1256.099489999935,1256.6067900001071,1256.6068549999036,1259.3540599998087,2318,1259.3542499998584,5,1259.3546400000341,3,16,106,12,1,1.2,0.3,Time
,,132230,001,男,32,2025-06-03_17h16.12.785,Serial_Dependence_U,2023.2.3,Win32,60.00240009601306,,,,,,1259.3552149999887,65,3,1259.355429999996,65,,,,1262.7522849999368,1263.2460249997675,1262.2485150001012,1262.752144999802,1260.3727199998684,1262.248294999823,1263.2460750001483,1263.7488950002007,1263.7489649998024,1266.105674999766,2015,1266.106085000094,5,1266.1065150001086,3,17,107,10,1,0.8,0.3,Time
,,132230,001,男,32,2025-06-03_17h16.12.785,Serial_Dependence_U,2023.2.3,Win32,60.00240009601306,,,,,,1266.1072599999607,186,3,1266.1075349999592,186,,,,1270.2460650000721,1270.7364799999632,1269.7429399997927,1270.2459249999374,1267.1049950001761,1269.7428100001998,1270.7365449997596,1271.2298550000414,1271.2299049999565,1274.086064999923,2502,1274.0863250000402,5,1274.0868400000036,3,18,108,9,1,1.6,0.7,Time
,,132230,001,男,32,2025-06-03_17h16.12.785,Serial_Dependence_U,2023.2.3,Win32,60.00240009601306,,,,,,1274.087454999797,10,3,1274.0876899999566,10,,,,1278.0661900001578,1278.5663250000216,1277.552920000162,1278.065944999922,1275.0833450001664,1277.552825000137,1278.5663749999367,1279.0688499999233,1279.0742049999535,1281.9588850000873,2408,1281.9590900000185,5,1281.9595249998383,3,19,109,3,1,1.4,0.3,Time
,,132230,001,男,32,2025-06-03_17h16.12.785,Serial_Dependence_U,2023.2.3,Win32,60.00240009601306,,,,,,1281.9601949998178,148,3,1281.9604400000535,148,,,,1285.3262899997644,1285.8294549998827,1284.80709999986,1285.326129999943,1282.9580999999307,1284.806915000081,1285.8295450001024,1286.32957000006,1286.3296799999662,1289.004439999815,2322,1289.0046049999073,5,1289.0050400001928,3,20,110,25,1,0.8,0.7,Time
,,132230,001,男,32,2025-06-03_17h16.12.785,Serial_Dependence_U,2023.2.3,Win32,60.00240009601306,,,,,,1289.0056949998252,244,3,1289.0059250001796,244,,,,1292.9777999999933,1293.4732550000772,1292.4587499997579,1292.9776800000109,1290.0079649998806,1292.4585850001313,1293.4733750000596,1293.9653900000267,1293.9654700001702,1296.884434999898,2614,1296.884635000024,5,1296.8851000000723,3,21,111,28,1,1.4,0.7,Time
,,132230,001,男,32,2025-06-03_17h16.12.785,Serial_Dependence_U,2023.2.3,Win32,60.00240009601306,,,,,,1296.885685000103,203,3,1296.8859649999067,203,,,,1300.6776000000536,1301.1810800000094,1300.158545000013,1300.6772500001825,1297.8896349999122,1300.1583850001916,1301.1811799998395,1301.673580000177,1301.6736650001258,1304.8681250000373,2866,1304.8683199998923,5,1304.868710000068,3,22,112,22,1,1.2,0.3,Time
,,132230,001,男,32,2025-06-03_17h16.12.785,Serial_Dependence_U,2023.2.3,Win32,60.00240009601306,,,,,,1304.8693149997853,242,3,1304.869504999835,242,,,,1308.6311550000682,1309.1244399999268,1308.1131899999455,1308.6310200002044,1305.8759800000116,1308.1130349999294,1309.1245300001465,1309.6136949998327,1309.6137950001284,1312.8750999998301,2912,1312.8752850000747,5,1312.8757099998184,3,23,113,17,1,1.2,0.7,Time
,,132230,001,男,32,2025-06-03_17h16.12.785,Serial_Dependence_U,2023.2.3,Win32,60.00240009601306,,,,,,1312.8763049999252,148,3,1312.8765199999325,148,,,,1316.4410549998283,1316.9432749999687,1315.92158500012,1316.4409249997698,1313.8814650001004,1315.9214499997906,1316.943345000036,1317.4331549997441,1317.4332300000824,1320.733924999833,2954,1320.7341100000776,5,1320.7345900000073,3,24,114,16,1,1,0.7,Time
,,132230,001,男,32,2025-06-03_17h16.12.785,Serial_Dependence_U,2023.2.3,Win32,60.00240009601306,,,,,,1320.7352999998257,270,3,1320.7355599999428,270,,,,1324.3505950002,1324.8450949997641,1323.8331550001167,1324.3504249998368,1321.746710000094,1323.8330049999058,1324.8451600000262,1325.3371649999171,1325.3372550001368,1328.5329200001433,2825,1328.5331199998036,5,1328.5335599998944,3,25,115,11,1,1,0.3,Time
,,132230,001,男,32,2025-06-03_17h16.12.785,Serial_Dependence_U,2023.2.3,Win32,60.00240009601306,,,,,,1328.5341900000349,52,3,1328.5344699998386,52,,,,1331.9305900000036,1332.4334649997763,1331.409684999846,1331.9304349999875,1329.5436550001614,1331.4094850001857,1332.4335349998437,1332.9269849997945,1332.935244999826,1335.7165250000544,2487,1335.716744999867,5,1335.71720500011,3,26,116,0,1,0.8,0.3,Time
,,132230,001,男,32,2025-06-03_17h16.12.785,Serial_Dependence_U,2023.2.3,Win32,60.00240009601306,,,,,,1335.7178799998946,47,3,1335.718094999902,47,,,,1339.303770000115,1339.7989650000818,1338.7981300000101,1339.3036299999803,1336.7290199999698,1338.7979850000702,1339.799019999802,1340.299130000174,1340.2991650002077,1343.635635000188,3002,1343.635824999772,5,1343.6362549997866,3,27,117,1,1,1,0.3,Time
,,132230,001,男,32,2025-06-03_17h16.12.785,Serial_Dependence_U,2023.2.3,Win32,60.00240009601306,,,,,,1343.6367999999784,78,3,1343.6370449997485,78,,,,1347.5732499998994,1348.073929999955,1347.0673449998721,1347.5731099997647,1344.6234450000338,1347.067139999941,1348.0740000000224,1348.5757900001481,1348.5758549999446,1351.870699999854,3069,1351.8709149998613,5,1351.871394999791,3,28,118,18,1,1.4,0.7,Time
,,132230,001,男,32,2025-06-03_17h16.12.785,Serial_Dependence_U,2023.2.3,Win32,60.00240009601306,,,,,,1351.8719699997455,324,3,1351.8722299998626,324,,,,1355.6878800000995,1356.179715000093,1355.1785349999554,1355.6877549998462,1352.8939899997786,1355.1784100001678,1356.1797850001603,1356.6812299997546,1356.6813400001265,1359.7099899998866,2655,1359.7101750001311,5,1359.710659999866,3,29,119,2,1,1.2,0.3,Time
,,132230,001,男,32,2025-06-03_17h16.12.785,Serial_Dependence_U,2023.2.3,Win32,60.00240009601306,,,,,,1359.7113649998792,349,4,1389.6620350000449,349,s,29.920764999929816,,1393.219500000123,1393.718289999757,1392.70727000013,1393.2193749998696,1390.6590149998665,1392.7071400000714,1393.7183650000952,1394.206819999963,1394.206914999988,1397.0411049998365,2341,1397.0413350001909,5,1397.0418150001206,4,0,120,26,1,1,0.7,Time
,,132230,001,男,32,2025-06-03_17h16.12.785,Serial_Dependence_U,2023.2.3,Win32,60.00240009601306,,,,,,1397.04234000016,118,4,1397.0448199999519,118,,,,1400.834859999828,1401.3324400000274,1400.3098599999212,1400.834704999812,1398.0767450002022,1400.309704999905,1401.332520000171,1401.8424900001846,1401.8425750001334,1403.9082300001755,1673,1403.9084450001828,5,1403.9089549998753,4,1,121,17,1,1.2,0.7,Time
,,132230,001,男,32,2025-06-03_17h16.12.785,Serial_Dependence_U,2023.2.3,Win32,60.00240009601306,,,,,,1403.909605000168,316,4,1403.9099300000817,316,,,,1407.2728749997914,1407.7633349997923,1406.7662550001405,1407.272704999894,1404.909444999881,1406.766069999896,1407.7633899999782,1408.2605099999346,1408.2606600001454,1410.7998600001447,2205,1410.8000900000334,5,1410.8005300001241,4,2,122,15,1,0.8,0.7,Time
,,132230,001,男,32,2025-06-03_17h16.12.785,Serial_Dependence_U,2023.2.3,Win32,60.00240009601306,,,,,,1410.8011949998327,157,4,1410.8014400000684,157,,,,1414.1886049997993,1414.6789250001311,1413.675619999878,1414.1883649998344,1411.805370000191,1413.6755050001666,1414.6790000000037,1415.1891999999061,1415.1976899998263,1418.6840450000018,3114,1418.684305000119,5,1418.6848399997689,4,3,123,0,1,0.8,0.3,Time
,,132230,001,男,32,2025-06-03_17h16.12.785,Serial_Dependence_U,2023.2.3,Win32,60.00240009601306,,,,,,1418.6853800001554,159,4,1418.685560000129,159,,,,1422.8569200001657,1423.3505699997768,1422.3454849999398,1422.856730000116,1419.6994849997573,1422.3452499997802,1423.3506200001575,1423.8468300001696,1423.8469299999997,1427.0183399999514,2820,1427.0184550001286,5,1427.0187550000846,4,4,124,9,1,1.6,0.7,Time
,,132230,001,男,32,2025-06-03_17h16.12.785,Serial_Dependence_U,2023.2.3,Win32,60.00240009601306,,,,,,1427.0190949998796,139,4,1427.0192049997859,139,,,,1431.0345350001007,1431.5400649998337,1430.5141750001349,1431.0343900001608,1428.0416749999858,1430.5140599999577,1431.540134999901,1432.0308400001377,1432.0309399999678,1432.5958850001916,107,1432.5960749997757,1,1432.5966750001535,4,5,125,3,1,1.4,0.3,Time
,,132230,001,男,32,2025-06-03_17h16.12.785,Serial_Dependence_U,2023.2.3,Win32,60.00240009601306,,,,,,1432.5972299999557,162,4,1432.597444999963,162,,,,1436.1676599998027,1436.6635199999437,1435.6486849999055,1436.1674750000238,1433.6128699998371,1435.6485250000842,1436.6635799999349,1437.161745000165,1437.1618200000376,1440.244560000021,2637,1440.2447899999097,5,1440.2454800000414,4,6,126,16,1,1,0.7,Time
,,132230,001,男,32,2025-06-03_17h16.12.785,Serial_Dependence_U,2023.2.3,Win32,60.00240009601306,,,,,,1440.2461749999784,175,4,1440.2464149999432,175,,,,1444.2371000000276,1444.7307150000706,1443.7273149997927,1444.2369550000876,1441.2624949999154,1443.7271150001325,1444.7307649999857,1445.251350000035,1445.2513950001448,1447.7812700001523,2086,1447.78149499977,5,1447.7819900000468,4,7,127,23,1,1.4,0.3,Time
,,132230,001,男,32,2025-06-03_17h16.12.785,Serial_Dependence_U,2023.2.3,Win32,60.00240009601306,,,,,,1447.7826299997978,203,4,1447.782955000177,203,,,,1451.1874799998477,1451.684210000094,1450.6785450000316,1451.1873300001025,1448.8031850000843,1450.678414999973,1451.684260000009,1452.178754999768,1452.1788400001824,1453.1879349998198,577,1453.1881900001317,2,1453.188695000019,4,8,128,10,1,0.8,0.3,Time
,,132230,001,男,32,2025-06-03_17h16.12.785,Serial_Dependence_U,2023.2.3,Win32,60.00240009601306,,,,,,1453.1894350000657,179,4,1453.1896600001492,179,,,,1457.1853299997747,1457.6968999998644,1456.673524999991,1457.1852199998684,1454.1898249997757,1456.6733550000936,1457.6969550000504,1458.1928300000727,1458.2009950000793,1460.144470000174,1591,1460.1446449998766,4,1460.1450600000098,4,9,129,13,1,1.4,0.3,Time
,,132230,001,男,32,2025-06-03_17h16.12.785,Serial_Dependence_U,2023.2.3,Win32,60.00240009601306,,,,,,1460.145709999837,130,4,1460.145969999954,130,,,,1464.3566700001247,1464.8447650000453,1463.8318500001915,1464.3564949999563,1461.1530399997719,1463.8317049997859,1464.844839999918,1465.3580899997614,1465.3582299998961,1467.752150000073,1963,1467.7523750001565,4,1467.7529600001872,4,10,130,4,1,1.6,0.3,Time
,,132230,001,男,32,2025-06-03_17h16.12.785,Serial_Dependence_U,2023.2.3,Win32,60.00240009601306,,,,,,1467.753589999862,92,4,1467.7538350000978,92,,,,1471.958564999979,1472.4642349998467,1471.4385699997656,1471.9584249998443,1468.7626499999315,1471.4383999998681,1472.4643000001088,1472.960659999866,1472.9607299999334,1476.0399099998176,2255,1476.040124999825,5,1476.040595000144,4,11,131,24,1,1.6,0.3,Time
,,132230,001,男,32,2025-06-03_17h16.12.785,Serial_Dependence_U,2023.2.3,Win32,60.00240009601306,,,,,,1476.0411600000225,145,4,1476.0413649999537,145,,,,1480.2622599997558,1480.7727000000887,1479.745860000141,1480.2621149998158,1477.0768399997614,1479.7457400001585,1480.7727500000037,1481.2605499997735,1481.2606600001454,1484.1599099999294,2540,1484.1601649997756,5,1484.160645000171,4,12,132,14,1,1.6,0.3,Time
,,132230,001,男,32,2025-06-03_17h16.12.785,Serial_Dependence_U,2023.2.3,Win32,60.00240009601306,,,,,,1484.161245000083,315,4,1484.1614449997433,315,,,,1487.9667799999006,1488.4645099998452,1487.460270000156,1487.9666100000031,1485.1853200001642,1487.4599299998954,1488.4645599997602,1488.962115000002,1488.9622200001031,1491.6002650000155,2307,1491.6005299999379,5,1491.6009800001048,4,13,133,2,1,1.2,0.3,Time
,,132230,001,男,32,2025-06-03_17h16.12.785,Serial_Dependence_U,2023.2.3,Win32,60.00240009601306,,,,,,1491.6015149997547,205,4,1491.6017149998806,205,,,,1495.1904649999924,1495.6952749998309,1494.6861250000075,1495.1903200000525,1492.6148850000463,1494.6859749997966,1495.6953449998982,1496.199390000198,1496.1994849997573,1498.6283849999309,2093,1498.6285700001754,5,1498.6289800000377,4,14,134,1,1,1,0.3,Time
,,132230,001,男,32,2025-06-03_17h16.12.785,Serial_Dependence_U,2023.2.3,Win32,60.00240009601306,,,,,,1498.6295549999923,225,4,1498.6297599999234,225,,,,1502.5901099997573,1503.0785249997862,1502.085520000197,1502.5899350000545,1499.6349100000225,1502.0853399997577,1503.0785900000483,1503.577364999801,1503.5858350000344,1506.3370550000109,2420,1506.3372450000606,5,1506.337664999999,4,15,135,8,1,1.4,0.7,Time
,,132230,001,男,32,2025-06-03_17h16.12.785,Serial_Dependence_U,2023.2.3,Win32,60.00240009601306,,,,,,1506.3389599998482,34,4,1506.3391950000077,34,,,,1510.14930499997,1510.6463500000536,1509.6380849997513,1510.149170000106,1507.357185000088,1509.6379649997689,1510.64641499985,1511.1505149998702,1511.1505800001323,1513.9419900001958,2430,1513.9422650001943,5,1513.9428199999966,4,16,136,22,1,1.2,0.3,Time
,,132230,001,男,32,2025-06-03_17h16.12.785,Serial_Dependence_U,2023.2.3,Win32,60.00240009601306,,,,,,1513.943384999875,14,4,1513.943585000001,14,,,,1517.5299249999225,1518.0202899998985,1517.0220550000668,1517.5298199998215,1514.9575450001284,1517.021859999746,1518.0203499998897,1518.5279899998568,1518.5280749998055,1521.27570499992,2527,1521.2760299998336,5,1521.2766450000927,4,17,137,21,1,1,0.3,Time
,,132230,001,男,32,2025-06-03_17h16.12.785,Serial_Dependence_U,2023.2.3,Win32,60.00240009601306,,,,,,1521.2772200000472,70,4,1521.277410000097,70,,,,1524.8771799998358,1525.387019999791,1524.368904999923,1524.8769450001419,1522.2973099998198,1524.3687249999493,1525.3870799997821,1525.8781550000422,1525.8782299999148,1529.7240550001152,2468,1529.724245000165,5,1529.724789999891,4,18,138,11,1,1,0.3,Time
,,132230,001,男,32,2025-06-03_17h16.12.785,Serial_Dependence_U,2023.2.3,Win32,60.00240009601306,,,,,,1529.7255199998617,134,4,1529.7258700001985,134,,,,1533.5047999997623,1533.9967899997719,1532.9875400001183,1533.5046549998224,1530.7373699997552,1532.9873399999924,1533.9968400001526,1534.4945649998263,1534.4946449999698,1537.7651200001128,3021,1537.7653000000864,5,1537.7657349999063,4,19,139,7,1,1.2,0.7,Time
,,132230,001,男,32,2025-06-03_17h16.12.785,Serial_Dependence_U,2023.2.3,Win32,60.00240009601306,,,,,,1537.766474999953,273,4,1537.7667100001127,273,,,,1541.5429099998437,1542.0339699997567,1541.0239200000651,1541.5427649999037,1538.7734050001018,1541.0237699998543,1542.0340049997903,1542.545129999984,1542.5452399998903,1545.968299999833,3118,1545.968499999959,5,1545.9692199998535,4,20,140,27,1,1.2,0.7,Time
,,132230,001,男,32,2025-06-03_17h16.12.785,Serial_Dependence_U,2023.2.3,Win32,60.00240009601306,,,,,,1545.9698799997568,122,4,1545.9701049998403,122,,,,1550.1234450000338,1550.6119900001213,1549.6083900001831,1550.1232750001363,1546.9677749997936,1549.6081900000572,1550.6121200001799,1551.1124249999411,1551.1125249997713,1554.2526799999177,2909,1554.2529199998826,5,1554.2533849999309,4,21,141,19,1,1.6,0.7,Time
,,132230,001,男,32,2025-06-03_17h16.12.785,Serial_Dependence_U,2023.2.3,Win32,60.00240009601306,,,,,,1554.2540049999952,108,4,1554.254234999884,108,,,,1558.397009999957,1558.8960850001313,1557.8830200000666,1558.3968500001356,1555.2479849997908,1557.8829049998894,1558.8961499999277,1559.395225000102,1559.3953249999322,1562.6933949999511,2861,1562.6936300001107,5,1562.694079999812,4,22,142,29,1,1.6,0.7,Time
,,132230,001,男,32,2025-06-03_17h16.12.785,Serial_Dependence_U,2023.2.3,Win32,60.00240009601306,,,,,,1562.6946100001223,113,4,1562.6948500000872,113,,,,1566.500605000183,1566.9962200000882,1565.9857100001536,1566.5004400000907,1563.714465000201,1565.98553000018,1566.9962949999608,1567.4855900001712,1567.495765000116,1570.2634899998084,2394,1570.2636549999006,5,1570.264119999949,4,23,143,12,1,1.2,0.3,Time
,,132230,001,男,32,2025-06-03_17h16.12.785,Serial_Dependence_U,2023.2.3,Win32,60.00240009601306,,,,,,1570.2647099997848,183,4,1570.2649349998683,183,,,,1573.6664049997926,1574.1623100000434,1573.1629949999042,1573.6662650001235,1571.2968700001948,1573.162829999812,1574.1623550001532,1574.6547349998727,1574.654844999779,1577.2931550000794,2290,1577.2934499997646,5,1577.2940099998377,4,24,144,20,1,0.8,0.3,Time
,,132230,001,男,32,2025-06-03_17h16.12.785,Serial_Dependence_U,2023.2.3,Win32,60.00240009601306,,,,,,1577.2946549998596,299,4,1577.2949000000954,299,,,,1581.2623899998143,1581.7632349999622,1580.7346700001508,1581.2622750001028,1578.3019550000317,1580.7345150001347,1581.7632999997586,1582.2663400000893,1582.2666449998505,1585.1837050002068,2479,1585.183904999867,5,1585.184454999864,4,25,145,28,1,1.4,0.7,Time
,,132230,001,男,32,2025-06-03_17h16.12.785,Serial_Dependence_U,2023.2.3,Win32,60.00240009601306,,,,,,1585.1850700001232,285,4,1585.185260000173,285,,,,1589.163135000039,1589.6634749998339,1588.6619600001723,1589.1630199998617,1586.2158249998465,1588.6618200000376,1589.663550000172,1590.1653899997473,1590.165440000128,1593.1122550000437,2598,1593.1123850001022,5,1593.1127100000158,4,26,146,18,1,1.4,0.7,Time
,,132230,001,男,32,2025-06-03_17h16.12.785,Serial_Dependence_U,2023.2.3,Win32,60.00240009601306,,,,,,1593.113125000149,265,4,1593.1132550002076,265,,,,1596.494665000122,1596.9857799997553,1595.9822100000456,1596.4944799998775,1594.125089999754,1595.982069999911,1596.98582000006,1597.4899949999526,1597.4901000000536,1599.4687299998477,1603,1599.4688900001347,5,1599.469349999912,4,27,147,25,1,0.8,0.7,Time
,,132230,001,男,32,2025-06-03_17h16.12.785,Serial_Dependence_U,2023.2.3,Win32,60.00240009601306,,,,,,1599.469994999934,244,4,1599.4702149997465,244,,,,1602.842660000082,1603.3358899997547,1602.330525000114,1602.8425099998713,1600.489370000083,1602.3303450001404,1603.335965000093,1603.8271200000308,1603.827719999943,1605.8597900001332,1683,1605.8600550000556,5,1605.8606349998154,4,28,148,5,1,0.8,0.7,Time
,,132230,001,男,32,2025-06-03_17h16.12.785,Serial_Dependence_U,2023.2.3,Win32,60.00240009601306,,,,,,1605.8613749998622,153,4,1605.8615999999456,153,,,,1609.4209849997424,1609.9126650001854,1608.904649999924,1609.4208450000733,1606.8653799998574,1608.9045150000602,1609.912740000058,1610.4127799998969,1610.4219399997965,1612.9178949999623,2115,1612.9180649998598,5,1612.9185449997894,4,29,149,6,1,1,0.7,Time
,,132230,001,男,32,2025-06-03_17h16.12.785,Serial_Dependence_U,2023.2.3,Win32,60.00240009601306,,,,,,1612.9191149999388,63,5,1620.277410000097,63,s,7.325619999784976,,1624.4511649999768,1624.948785000015,1623.933910000138,1624.4509450001642,1621.27956000017,1623.9337700000033,1624.9488849998452,1625.437849999871,1625.438000000082,1628.4085849998519,2616,1628.4090049997903,5,1628.409589999821,5,0,150,9,1,1.6,0.7,Time
,,132230,001,男,32,2025-06-03_17h16.12.785,Serial_Dependence_U,2023.2.3,Win32,60.00240009601306,,,,,,1628.410234999843,314,5,1628.413329999894,314,,,,1631.9787099999376,1632.4639750001952,1631.4636900001206,1631.978579999879,1629.409895000048,1631.4635399999097,1632.4640699997544,1632.960715000052,1632.960810000077,1635.001089999918,1651,1635.0014049997553,5,1635.0019700000994,5,1,151,16,1,1,0.7,Time
,,132230,001,男,32,2025-06-03_17h16.12.785,Serial_Dependence_U,2023.2.3,Win32,60.00240009601306,,,,,,1635.0026250001974,252,5,1635.0028699999675,252,,,,1639.1957149999216,1639.6956349997781,1638.679059999995,1639.1955999997444,1636.0211000000127,1638.6789250001311,1639.6956949997693,1640.194629999809,1640.1947149997577,1642.9707649997436,2357,1642.9709250000305,5,1642.9713750001974,5,2,152,19,1,1.6,0.7,Time
,,132230,001,男,32,2025-06-03_17h16.12.785,Serial_Dependence_U,2023.2.3,Win32,60.00240009601306,,,,,,1642.9720549997874,103,5,1642.9722600001842,103,,,,1646.9827000000514,1647.4779449999332,1646.4612599997781,1646.9825399997644,1643.9817949999124,1646.461070000194,1647.4780350001529,1647.9775499999523,1647.9776849998161,1650.6467050001957,2295,1650.6469450001605,5,1650.647510000039,5,3,153,23,1,1.4,0.3,Time
,,132230,001,男,32,2025-06-03_17h16.12.785,Serial_Dependence_U,2023.2.3,Win32,60.00240009601306,,,,,,1650.6481699999422,257,5,1650.6484199999832,257,,,,1654.449680000078,1654.9552000002004,1653.9348699999973,1654.4495399999432,1651.6570199998096,1653.9347149999812,1654.9552799998783,1655.444579999894,1655.4446749999188,1658.0169850001112,2207,1658.0172600001097,5,1658.0178350000642,5,4,154,12,1,1.2,0.3,Time
,,132230,001,男,32,2025-06-03_17h16.12.785,Serial_Dependence_U,2023.2.3,Win32,60.00240009601306,,,,,,1658.018509999849,66,5,1658.018769999966,66,,,,1661.4331849999726,1661.931865000166,1660.9224200001918,1661.43296500016,1659.044135000091,1660.9222650001757,1661.931915000081,1662.421719999984,1662.431865000166,1664.9391749999486,2162,1664.9394149999134,5,1664.9399199998006,5,5,155,20,1,0.8,0.3,Time
,,132230,001,男,32,2025-06-03_17h16.12.785,Serial_Dependence_U,2023.2.3,Win32,60.00240009601306,,,,,,1664.9406599998474,60,5,1664.940895000007,60,,,,1668.7204299997538,1669.2152200001292,1668.2005150001496,1668.720344999805,1665.9641649997793,1668.2003600001335,1669.215305000078,1669.712754999753,1669.7128599998541,1672.5203849999234,2488,1672.5206650001928,5,1672.5216049998999,5,6,156,17,1,1.2,0.7,Time
,,132230,001,男,32,2025-06-03_17h16.12.785,Serial_Dependence_U,2023.2.3,Win32,60.00240009601306,,,,,,1672.5223699999042,90,5,1672.5226500001736,90,,,,1675.8761350000277,1676.3872949997894,1675.3607799997553,1675.8759349999018,1673.5207799999043,1675.3606150001287,1676.3873600000516,1676.8785149999894,1676.8786300001666,1679.3494449998252,2106,1679.3496550000273,5,1679.3501249998808,5,7,157,25,1,0.8,0.7,Time
,,132230,001,男,32,2025-06-03_17h16.12.785,Serial_Dependence_U,2023.2.3,Win32,60.00240009601306,,,,,,1679.3507249997929,4,5,1679.3509200001135,4,,,,1682.9255349999294,1683.4265350000933,1682.4078600001521,1682.925230000168,1680.3629749999382,1682.4076800001785,1683.4265899998136,1683.9160349997692,1683.916079999879,1686.4862399999984,2202,1686.4864650000818,5,1686.4873299999163,5,8,158,6,1,1,0.7,Time
,,132230,001,男,32,2025-06-03_17h16.12.785,Serial_Dependence_U,2023.2.3,Win32,60.00240009601306,,,,,,1686.488014999777,318,5,1686.488264999818,318,,,,1690.6875849999487,1691.183505000081,1690.1790249999613,1690.6874000001699,1687.5031499997713,1690.1788800000213,1691.1835500001907,1691.679765000008,1691.6799849998206,1694.8557549999095,2722,1694.8559550000355,5,1694.8567449999973,5,9,159,24,1,1.6,0.3,Time
,,132230,001,男,32,2025-06-03_17h16.12.785,Serial_Dependence_U,2023.2.3,Win32,60.00240009601306,,,,,,1694.857435000129,113,5,1694.8577049998567,113,,,,1698.8433900000528,1699.3446200001054,1698.3388549997471,1698.8431950001977,1695.8729400001466,1698.3386450000107,1699.3446849999018,1699.8300600000657,1699.830120000057,1702.5908449999988,2395,1702.5911900000647,5,1702.5917899999768,5,10,160,3,1,1.4,0.3,Time
,,132230,001,男,32,2025-06-03_17h16.12.785,Serial_Dependence_U,2023.2.3,Win32,60.00240009601306,,,,,,1702.5923250000924,83,5,1702.5924949999899,83,,,,1706.2011449998245,1706.6935999998823,1705.675915000029,1706.200925000012,1703.6235349997878,1705.6756500001065,1706.6936699999496,1707.1827400000766,1707.1828399999067,1709.920824999921,2432,1709.9209799999371,5,1709.9214599998668,5,11,161,26,1,1,0.7,Time
,,132230,001,男,32,2025-06-03_17h16.12.785,Serial_Dependence_U,2023.2.3,Win32,60.00240009601306,,,,,,1709.9220400000922,186,5,1709.9222749997862,186,,,,1713.5085999998264,1714.011034999974,1713.00467999978,1713.508429999929,1710.916029999964,1713.0045199999586,1714.0111050000414,1714.5117099997588,1714.5180000001565,1717.2541999998502,2350,1717.2544499998912,5,1717.254945000168,5,12,162,21,1,1,0.3,Time
,,132230,001,男,32,2025-06-03_17h16.12.785,Serial_Dependence_U,2023.2.3,Win32,60.00240009601306,,,,,,1717.2558149998076,151,5,1717.256134999916,151,,,,1720.6651650001295,1721.164834999945,1720.1567549998872,1720.6648800000548,1718.280900000129,1720.1565600000322,1721.164890000131,1721.6605199999176,1721.6605949997902,1724.588115000166,2527,1724.5882999999449,5,1724.588715000078,5,13,163,10,1,0.8,0.3,Time
,,132230,001,男,32,2025-06-03_17h16.12.785,Serial_Dependence_U,2023.2.3,Win32,60.00240009601306,,,,,,1724.589499999769,293,5,1724.5897400001995,293,,,,1728.5701199998148,1729.0454150000587,1728.0586199997924,1728.5699550001882,1725.60652999999,1728.058449999895,1729.0454799998552,1729.55270999996,1729.552759999875,1732.4709350001067,2559,1732.4711250001565,5,1732.4716400001198,5,14,164,28,1,1.4,0.7,Time
,,132230,001,男,32,2025-06-03_17h16.12.785,Serial_Dependence_U,2023.2.3,Win32,60.00240009601306,,,,,,1732.472194999922,299,5,1732.4724400001578,299,,,,1735.853279999923,1736.3538449998014,1735.33960499987,1735.853095000144,1733.4860700001009,1735.3393799997866,1736.3540050000884,1736.8596350001171,1736.859730000142,1739.9138150000945,2599,1739.9141150000505,5,1739.9146599997766,5,15,165,5,1,0.8,0.7,Time
,,132230,001,男,32,2025-06-03_17h16.12.785,Serial_Dependence_U,2023.2.3,Win32,60.00240009601306,,,,,,1739.9153149998747,290,5,1739.9155399999581,290,,,,1743.9009099998511,1744.4054450001568,1743.3954900000244,1743.900770000182,1740.948195000179,1743.3953350000083,1744.4055200000294,1744.8832049998455,1744.8832899997942,1747.3171700001694,2118,1747.3173699998297,5,1747.3177600000054,5,16,166,8,1,1.4,0.7,Time
,,132230,001,男,32,2025-06-03_17h16.12.785,Serial_Dependence_U,2023.2.3,Win32,60.00240009601306,,,,,,1747.3183599999174,71,5,1747.3185749999247,71,,,,1751.0846699997783,1751.5750750000589,1750.571140000131,1751.0845499997959,1748.320234999992,1750.5709449998103,1751.5751450001262,1752.0766099998727,1752.07667999994,1754.656194999814,2261,1754.6564099998213,5,1754.6568649997935,5,17,167,27,1,1.2,0.7,Time
,,132230,001,男,32,2025-06-03_17h16.12.785,Serial_Dependence_U,2023.2.3,Win32,60.00240009601306,,,,,,1754.6576999998651,202,5,1754.65808499977,202,,,,1758.263119999785,1758.7701900000684,1757.747694999911,1758.2629300002009,1755.67317500012,1757.7475250000134,1758.770264999941,1759.272164999973,1759.2809049999341,1762.0167549997568,2332,1762.0169449998066,5,1762.0173450000584,5,18,168,1,1,1,0.3,Time
,,132230,001,男,32,2025-06-03_17h16.12.785,Serial_Dependence_U,2023.2.3,Win32,60.00240009601306,,,,,,1762.0178950000554,358,5,1762.018114999868,358,,,,1766.198874999769,1766.7017100001685,1765.6817799997516,1766.1987399999052,1763.0147799998522,1765.6816300000064,1766.7017700001597,1767.2107350002043,1767.2108299997635,1770.7040399997495,3062,1770.7042399998754,5,1770.7047799997963,5,19,169,14,1,1.6,0.3,Time
,,132230,001,男,32,2025-06-03_17h16.12.785,Serial_Dependence_U,2023.2.3,Win32,60.00240009601306,,,,,,1770.7054099999368,252,5,1770.7056100000627,252,,,,1774.4799899999052,1774.991715000011,1773.9695549998432,1774.4798750001937,1771.7298099999316,1773.9693649997935,1774.991804999765,1775.501949999947,1775.5020200000145,1778.84090499999,2816,1778.8411349998787,5,1778.841605000198,5,20,170,7,1,1.2,0.7,Time
,,132230,001,男,32,2025-06-03_17h16.12.785,Serial_Dependence_U,2023.2.3,Win32,60.00240009601306,,,,,,1778.8421749998815,87,5,1778.8423649999313,87,,,,1782.2307000001892,1782.7270550001413,1781.7144249998964,1782.2305450001732,1779.842294999864,1781.7142949998379,1782.7271500001661,1783.23152999999,1783.2315899999812,1786.1744499998167,2574,1786.1746749999002,5,1786.1756449998356,5,21,171,0,1,0.8,0.3,Time
,,132230,001,男,32,2025-06-03_17h16.12.785,Serial_Dependence_U,2023.2.3,Win32,60.00240009601306,,,,,,1786.1761549999937,12,5,1786.1763800000772,12,,,,1790.1331750000827,1790.6255799997598,1789.6220800001174,1790.1330249998719,1787.183960000053,1789.6218750001863,1790.6256249998696,1791.1255950001068,1791.1257299999706,1792.191405000165,461,1792.1917099999264,1,1792.1924700001255,5,22,172,18,1,1.4,0.7,Time
,,132230,001,男,32,2025-06-03_17h16.12.785,Serial_Dependence_U,2023.2.3,Win32,60.00240009601306,,,,,,1792.1932600000873,158,5,1792.193539999891,158,,,,1796.0356999998912,1796.539634999819,1795.5117150000297,1796.0355850001797,1793.222194999922,1795.5115950000472,1796.539679999929,1797.0333199999295,1797.0333750001155,1800.4604400000535,2958,1800.46064999979,5,1800.4611550001428,5,23,173,22,1,1.2,0.3,Time
,,132230,001,男,32,2025-06-03_17h16.12.785,Serial_Dependence_U,2023.2.3,Win32,60.00240009601306,,,,,,1800.4617449999787,67,5,1800.4619849999435,67,,,,1803.8476649997756,1804.3550450000912,1803.3345449999906,1803.8475199998356,1801.4842650000937,1803.3344100001268,1804.3551050000824,1804.8435849999078,1804.851745000109,1808.5621250001714,3280,1808.562305000145,5,1808.5627299998887,5,24,174,15,1,0.8,0.7,Time
,,132230,001,男,32,2025-06-03_17h16.12.785,Serial_Dependence_U,2023.2.3,Win32,60.00240009601306,,,,,,1808.5633200001903,191,5,1808.5635549998842,191,,,,1812.7967750001699,1813.279199999757,1812.2802849998698,1812.7966049998067,1809.5965599999763,1812.2801549998112,1813.279244999867,1813.7673499998637,1813.7674300000072,1817.0360300000757,2821,1817.0362550001591,5,1817.0367250000127,5,25,175,4,1,1.6,0.3,Time
,,132230,001,男,32,2025-06-03_17h16.12.785,Serial_Dependence_U,2023.2.3,Win32,60.00240009601306,,,,,,1817.0373649997637,53,5,1817.0376200000755,53,,,,1821.2190849999897,1821.7211199998856,1820.7086849999614,1821.218855000101,1818.059009999968,1820.7084949999116,1821.7212049998343,1822.2260750001296,1822.2261600000784,1826.2477199998684,3648,1826.247889999766,5,1826.2483000000939,5,26,176,29,1,1.6,0.7,Time
,,132230,001,男,32,2025-06-03_17h16.12.785,Serial_Dependence_U,2023.2.3,Win32,60.00240009601306,,,,,,1826.2489149998873,249,5,1826.249150000047,249,,,,1830.257685000077,1830.7684550001286,1829.7464149999432,1830.25752499979,1827.2666650000028,1829.7462349999696,1830.7685650000349,1831.259029999841,1831.2591200000606,1835.2263650000095,3568,1835.2266099997796,5,1835.2271050000563,5,27,177,13,1,1.4,0.3,Time
,,132230,001,男,32,2025-06-03_17h16.12.785,Serial_Dependence_U,2023.2.3,Win32,60.00240009601306,,,,,,1835.2276449999772,222,5,1835.227874999866,222,,,,1838.8325499999337,1839.3293099999428,1838.3292549997568,1838.832409999799,1836.2507250001654,1838.3290650001727,1839.329369999934,1839.8275899998844,1839.8277249997482,1843.8945050002076,3721,1843.894714999944,5,1843.8951249998063,5,28,178,11,1,1,0.3,Time
,,132230,001,男,32,2025-06-03_17h16.12.785,Serial_Dependence_U,2023.2.3,Win32,60.00240009601306,,,,,,1843.8957799999043,330,5,1843.896009999793,330,,,,1847.6891250000335,1848.1649449998513,1847.1796349999495,1847.688955000136,1844.8960000001825,1847.1794850002043,1848.1650049998425,1848.6406899997965,1848.640780000016,1851.0153450001962,2031,1851.0155400000513,5,1851.015980000142,5,29,179,2,1,1.2,0.3,Time
,,132230,001,男,32,2025-06-03_17h16.12.785,Serial_Dependence_U,2023.2.3,Win32,60.00240009601306,,,,,,1851.0166500001214,298,6,1853.081319999881,298,s,2.037870000116527,,1857.2577049997635,1857.7596450001001,1856.7403000001796,1857.257534999866,1854.0836499999277,1856.740170000121,1857.7597550000064,1858.2594599998556,1858.269609999843,1861.0550899999216,2431,1861.0553299998865,5,1861.055865000002,6,0,180,29,1,1.6,0.7,Time
,,132230,001,男,32,2025-06-03_17h16.12.785,Serial_Dependence_U,2023.2.3,Win32,60.00240009601306,,,,,,1861.0567499999888,35,6,1861.0593650001101,35,,,,1865.0233849999495,1865.5268799997866,1864.5192100000568,1865.0232049999759,1862.0773899997585,1864.5190150002018,1865.5269849998876,1866.0304700001143,1866.030555000063,1868.562160000205,2177,1868.5624199998565,5,1868.5629249997437,6,1,181,18,1,1.4,0.7,Time
,,132230,001,男,32,2025-06-03_17h16.12.785,Serial_Dependence_U,2023.2.3,Win32,60.00240009601306,,,,,,1868.5634599998593,53,6,1868.5637199999765,53,,,,1872.5169150000438,1873.0131899998523,1872.0110499998555,1872.5167899997905,1869.5614350000396,1872.010919999797,1873.0132450000383,1873.509490000084,1873.5095600001514,1876.62953499984,2710,1876.6297349999659,5,1876.6302249999717,6,2,182,28,1,1.4,0.7,Time
,,132230,001,男,32,2025-06-03_17h16.12.785,Serial_Dependence_U,2023.2.3,Win32,60.00240009601306,,,,,,1876.6308200000785,249,6,1876.6311400001869,249,,,,1880.6200000001118,1881.118970000185,1880.1115999999456,1880.6198649997823,1877.6380449999124,1880.1114349998534,1881.1190200001001,1881.6093850000761,1881.6094849999063,1885.785244999919,2829,1885.7854349999689,5,1885.786044999957,6,3,183,3,1,1.4,0.3,Time
,,132230,001,男,32,2025-06-03_17h16.12.785,Serial_Dependence_U,2023.2.3,Win32,60.00240009601306,,,,,,1885.7866750000976,106,6,1885.7868699999526,106,,,,1889.74739999976,1890.2398799997754,1889.2367400000803,1889.747244999744,1886.7827499997802,1889.2366349999793,1890.2399050001986,1890.7446800000034,1890.7447500000708,1893.999789999798,2793,1893.9999950001948,5,1894.0004900000058,6,4,184,8,1,1.4,0.7,Time
,,132230,001,男,32,2025-06-03_17h16.12.785,Serial_Dependence_U,2023.2.3,Win32,60.00240009601306,,,,,,1894.001099999994,112,6,1894.0016199997626,112,,,,1897.3519549998455,1897.8496799999848,1896.8400300000794,1897.3518099999055,1895.007685000077,1896.83989499975,1897.8497199998237,1898.3544049998745,1898.354445000179,1901.189939999953,2440,1901.1902600000612,5,1901.1907449997962,6,5,185,25,1,0.8,0.7,Time
,,132230,001,男,32,2025-06-03_17h16.12.785,Serial_Dependence_U,2023.2.3,Win32,60.00240009601306,,,,,,1901.1913149999455,108,6,1901.1915099998005,108,,,,1904.5978549998254,1905.0984000000171,1904.0831050002016,1904.597645000089,1902.2106949998997,1904.0829549999908,1905.0984499999322,1905.5939199998975,1905.5940350000747,1908.6591900000349,2603,1908.6594099998474,5,1908.6600150000304,6,6,186,20,1,0.8,0.3,Time
,,132230,001,男,32,2025-06-03_17h16.12.785,Serial_Dependence_U,2023.2.3,Win32,60.00240009601306,,,,,,1908.660689999815,173,6,1908.6609649998136,173,,,,1912.6496799997985,1913.1461450001225,1912.1400399999693,1912.649499999825,1909.655555000063,1912.1398499999195,1913.1461999998428,1913.6291200001724,1913.6292200000025,1917.291635000147,3288,1917.2918949997984,5,1917.2923750001937,6,7,187,23,1,1.4,0.3,Time
,,132230,001,男,32,2025-06-03_17h16.12.785,Serial_Dependence_U,2023.2.3,Win32,60.00240009601306,,,,,,1917.292985000182,258,6,1917.2932449998334,258,,,,1921.4734249999747,1921.9741650000215,1920.9604750000872,1921.4732050001621,1918.3155149999075,1920.96035999991,1921.974239999894,1922.4758150000125,1922.4844399997965,1925.9556450000964,3116,1925.9557449999265,5,1925.9560799999163,6,8,188,19,1,1.6,0.7,Time
,,132230,001,男,32,2025-06-03_17h16.12.785,Serial_Dependence_U,2023.2.3,Win32,60.00240009601306,,,,,,1925.9564350000583,94,6,1925.9565499997698,94,,,,1929.7350550000556,1930.233969999943,1929.223784999922,1929.7349100001156,1926.967189999763,1929.2236750000156,1930.2340099997818,1930.7427449999377,1930.7429399997927,1933.0441000000574,1901,1933.0445099999197,5,1933.0452549997717,6,9,189,27,1,1.2,0.7,Time
,,132230,001,男,32,2025-06-03_17h16.12.785,Serial_Dependence_U,2023.2.3,Win32,60.00240009601306,,,,,,1933.0460600000806,45,6,1933.0463000000454,45,,,,1936.8311899998225,1937.3259600000456,1936.3291050000116,1936.8311000000685,1934.0508799999952,1936.328925000038,1937.326030000113,1937.826330000069,1937.82643500017,1940.6217950000428,2426,1940.621999999974,5,1940.6227150000632,6,10,190,22,1,1.2,0.3,Time
,,132230,001,男,32,2025-06-03_17h16.12.785,Serial_Dependence_U,2023.2.3,Win32,60.00240009601306,,,,,,1940.6235650000162,356,6,1940.6238400000148,356,,,,1944.826919999905,1945.3353349999525,1944.3081450001337,1944.8267899998464,1941.6318649998866,1944.3079900001176,1945.3353800000623,1945.839854999911,1945.8399450001307,1948.7948599997908,2619,1948.7950699999928,5,1948.795564999804,6,11,191,24,1,1.6,0.3,Time
,,132230,001,男,32,2025-06-03_17h16.12.785,Serial_Dependence_U,2023.2.3,Win32,60.00240009601306,,,,,,1948.7960799997672,287,6,1948.7962449998595,287,,,,1952.9866949999705,1953.477535000071,1952.4701450001448,1952.986519999802,1949.804070000071,1952.4699249998666,1953.477624999825,1953.9854950001463,1953.985580000095,1956.7375150001608,2398,1956.7377349999733,5,1956.7382299997844,6,12,192,14,1,1.6,0.3,Time
,,132230,001,男,32,2025-06-03_17h16.12.785,Serial_Dependence_U,2023.2.3,Win32,60.00240009601306,,,,,,1956.7391050001606,292,6,1956.7393450001255,292,,,,1960.897270000074,1961.3868999998085,1960.3868149998598,1960.8970949999057,1957.7516250000335,1960.386630000081,1961.3869449999183,1961.8760950001888,1961.876195000019,1964.268364999909,2012,1964.2686899998225,4,1964.2694749999791,6,13,193,9,1,1.6,0.7,Time
,,132230,001,男,32,2025-06-03_17h16.12.785,Serial_Dependence_U,2023.2.3,Win32,60.00240009601306,,,,,,1964.2700600000098,111,6,1964.2702449997887,111,,,,1967.8404299998656,1968.3434899998829,1967.3328350000083,1967.840249999892,1965.2662749998271,1967.3326650001109,1968.343539999798,1968.8341500000097,1968.8436150001362,1971.2537099998444,1995,1971.2539249998517,5,1971.2544049997814,6,14,194,11,1,1,0.3,Time
,,132230,001,男,32,2025-06-03_17h16.12.785,Serial_Dependence_U,2023.2.3,Win32,60.00240009601306,,,,,,1971.2550099999644,355,6,1971.2553650001064,355,,,,1974.8108649998903,1975.3011549999937,1974.2916000001132,1974.810699999798,1972.2507400000468,1974.2913750000298,1975.301314999815,1975.7915750001557,1975.7917149998248,1978.2513850000687,2109,1978.2515650000423,5,1978.2519800001755,6,15,195,16,1,1,0.7,Time
,,132230,001,男,32,2025-06-03_17h16.12.785,Serial_Dependence_U,2023.2.3,Win32,60.00240009601306,,,,,,1978.2525999997742,97,6,1978.2528099999763,97,,,,1982.0305249998346,1982.5262199998833,1981.5243999999948,1982.0303750000894,1979.2566949999891,1981.5242449999787,1982.5262899999507,1983.0239800000563,1983.0240899999626,1985.7846749997698,2350,1985.784889999777,5,1985.7853199997917,6,16,196,12,1,1.2,0.3,Time
,,132230,001,男,32,2025-06-03_17h16.12.785,Serial_Dependence_U,2023.2.3,Win32,60.00240009601306,,,,,,1985.785939999856,91,6,1985.786179999821,91,,,,1989.3986800001003,1989.893670000136,1988.877539999783,1989.3984199999832,1986.7969999997877,1988.8773900000378,1989.8937949999236,1990.3900899998844,1990.390174999833,1994.0210600001737,3272,1994.0212550000288,5,1994.0216450002044,6,17,197,21,1,1,0.3,Time
,,132230,001,男,32,2025-06-03_17h16.12.785,Serial_Dependence_U,2023.2.3,Win32,60.00240009601306,,,,,,1994.0227250000462,9,6,1994.0229899999686,9,,,,1997.795024999883,1998.29388500005,1997.2848800001666,1997.7948599997908,1995.0495500001125,1997.284684999846,1998.2939349999651,1998.7921400000341,1998.792229999788,2002.3215549997985,3183,2002.3217650000006,5,2002.3222599998116,6,18,198,7,1,1.2,0.7,Time
,,132230,001,男,32,2025-06-03_17h16.12.785,Serial_Dependence_U,2023.2.3,Win32,60.00240009601306,,,,,,2002.3229100001045,209,6,2002.3231000001542,209,,,,2006.1084599997848,2006.6038099997677,2005.5905249998905,2006.1082999999635,2003.3372149998322,2005.5903199999593,2006.603879999835,2007.0929200001992,2007.0929950000718,2009.940400000196,2389,2009.94058999978,5,2009.9410649999045,6,19,199,17,1,1.2,0.7,Time
,,132230,001,男,32,2025-06-03_17h16.12.785,Serial_Dependence_U,2023.2.3,Win32,60.00240009601306,,,,,,2009.9417699999176,67,6,2009.9420300000347,67,,,,2013.9316400000826,2014.425220000092,2013.4133000001311,2013.931549999863,2010.9442099998705,2013.413079999853,2014.4252650002018,2014.9294799999334,2014.9358850000426,2017.7465200000443,2501,2017.7467299997807,5,2017.7471900000237,6,20,200,13,1,1.4,0.3,Time
,,132230,001,男,32,2025-06-03_17h16.12.785,Serial_Dependence_U,2023.2.3,Win32,60.00240009601306,,,,,,2017.7478149998933,179,6,2017.7480099997483,179,,,,2021.3375300001353,2021.8267700001597,2020.829725000076,2021.3373250002041,2018.792535000015,2020.8295599999838,2021.8269099998288,2022.331125000026,2022.3311899998225,2025.3138950001448,2649,2025.3140750001185,5,2025.3144999998622,6,21,201,6,1,1,0.7,Time
,,132230,001,男,32,2025-06-03_17h16.12.785,Serial_Dependence_U,2023.2.3,Win32,60.00240009601306,,,,,,2025.315094999969,210,6,2025.3152999999002,210,,,,2028.6890899999999,2029.1768600000069,2028.1738999998197,2028.6889300001785,2026.3204049998894,2028.1737449998036,2029.1769050001167,2029.6741349999793,2029.6742099998519,2033.3888849997893,3478,2033.3891549999826,5,2033.3895950000733,6,22,202,15,1,0.8,0.7,Time
,,132230,001,男,32,2025-06-03_17h16.12.785,Serial_Dependence_U,2023.2.3,Win32,60.00240009601306,,,,,,2033.3901999997906,36,6,2033.390374999959,36,,,,2036.9514600001276,2037.442350000143,2036.4443700001575,2036.9513199999928,2034.4004099997692,2036.4441300001927,2037.4424149999395,2037.9310949998908,2037.931154999882,2041.3348050001077,3022,2041.3349999999627,5,2041.3354299999774,6,23,203,26,1,1,0.7,Time
,,132230,001,男,32,2025-06-03_17h16.12.785,Serial_Dependence_U,2023.2.3,Win32,60.00240009601306,,,,,,2041.336015000008,48,6,2041.3362249997444,48,,,,2044.7336099999957,2045.2231100001372,2044.221750000026,2044.7334849997424,2042.3443149998784,2044.2213599998504,2045.2231649998575,2045.7252850001678,2045.7253350000829,2048.6455000001006,2503,2048.6456900001504,5,2048.646110000089,6,24,204,10,1,0.8,0.3,Time
,,132230,001,男,32,2025-06-03_17h16.12.785,Serial_Dependence_U,2023.2.3,Win32,60.00240009601306,,,,,,2048.6467900001444,204,6,2048.6470900001004,204,,,,2052.444835000206,2052.9406750001945,2051.9436599998735,2052.4445949997753,2049.6740000001155,2051.9434850001708,2052.940739999991,2053.433044999838,2053.4331299997866,2054.751554999966,828,2054.7518850001507,1,2054.753244999796,6,25,205,2,1,1.2,0.3,Time
,,132230,001,男,32,2025-06-03_17h16.12.785,Serial_Dependence_U,2023.2.3,Win32,60.00240009601306,,,,,,2054.7543199998327,190,6,2054.7546449997462,190,,,,2058.1618499998003,2058.67303000018,2057.6433000001125,2058.1617149999365,2055.7641500001773,2057.643174999859,2058.673109999858,2059.1744349999353,2059.1744900001213,2063.2760350001045,2762,2063.2762199998833,5,2063.276604999788,6,26,206,0,1,0.8,0.3,Time
,,132230,001,男,32,2025-06-03_17h16.12.785,Serial_Dependence_U,2023.2.3,Win32,60.00240009601306,,,,,,2063.277154999785,53,6,2063.2773799998686,53,,,,2067.4969250001013,2067.9800100000575,2066.975655000191,2067.496789999772,2064.293114999775,2066.9755099997856,2067.980080000125,2068.47299499996,2068.4817599998787,2071.467765000183,2550,2071.4680349999107,5,2071.4684700001962,6,27,207,4,1,1.6,0.3,Time
,,132230,001,男,32,2025-06-03_17h16.12.785,Serial_Dependence_U,2023.2.3,Win32,60.00240009601306,,,,,,2071.46903999988,173,6,2071.4692099997774,173,,,,2075.085905000102,2075.574980000034,2074.5673199999146,2075.0857699997723,2072.4780049999245,2074.5671749999747,2075.5750949997455,2076.0759200002067,2076.076109999791,2079.8863050001673,3424,2079.8865549997427,5,2079.8869650000706,6,28,208,1,1,1,0.3,Time
,,132230,001,男,32,2025-06-03_17h16.12.785,Serial_Dependence_U,2023.2.3,Win32,60.00240009601306,,,,,,2079.8875150000677,292,6,2079.887724999804,292,,,,2083.2757000001147,2083.766574999783,2082.762740000151,2083.275570000056,2080.915484999772,2082.7626100000925,2083.7666400000453,2084.2564199999906,2084.2565150000155,2086.9276000000536,2262,2086.9278299999423,5,2086.9284799997695,6,29,209,5,1,0.8,0.7,Time
,,132230,001,男,32,2025-06-03_17h16.12.785,Serial_Dependence_U,2023.2.3,Win32,60.00240009601306,,,,,,2086.9292350001633,141,7,2090.7575050001033,141,s,3.8047850001603365,,2094.523955000099,2095.0249250000343,2094.0111650000326,2094.523804999888,2091.774009999819,2094.0110100000165,2095.0250450000167,2095.508979999926,2095.509089999832,2098.0223349998705,2058,2098.0226249997504,5,2098.023169999942,7,0,210,7,1,1.2,0.7,Time
,,132230,001,男,32,2025-06-03_17h16.12.785,Serial_Dependence_U,2023.2.3,Win32,60.00240009601306,,,,,,2098.0237349998206,70,7,2098.0266900002025,70,,,,2101.8324799998663,2102.3358399998397,2101.3155700000934,2101.8323400001973,2099.050220000092,2101.3153650001623,2102.335919999983,2102.825679999776,2102.825784999877,2106.8476999998093,2754,2106.847905000206,5,2106.8489049999043,7,1,211,2,1,1.2,0.3,Time
,,132230,001,男,32,2025-06-03_17h16.12.785,Serial_Dependence_U,2023.2.3,Win32,60.00240009601306,,,,,,2106.84953999985,355,7,2106.8497600001283,355,,,,2110.2335950001143,2110.7275549997576,2109.729280000087,2110.233475000132,2107.8663050001487,2109.7291149999946,2110.7276099999435,2111.223834999837,2111.2239049999043,2113.994589999784,2420,2113.994799999986,5,2113.995389999822,7,2,212,0,1,0.8,0.3,Time
,,132230,001,男,32,2025-06-03_17h16.12.785,Serial_Dependence_U,2023.2.3,Win32,60.00240009601306,,,,,,2113.996054999996,249,7,2113.996294999961,249,,,,2117.9758600001223,2118.472399999853,2117.4623349998146,2117.9757650000975,2115.0200350000523,2117.462160000112,2118.472444999963,2118.9827450001612,2118.9930400000885,2119.3884899998084,26,2119.3886649999768,1,2119.389035,7,3,213,8,1,1.4,0.7,Time
,,132230,001,男,32,2025-06-03_17h16.12.785,Serial_Dependence_U,2023.2.3,Win32,60.00240009601306,,,,,,2119.3897600001656,188,7,2119.3900150000118,188,,,,2122.9617800000124,2123.452430000063,2122.4506600000896,2122.9615850001574,2120.408890000079,2122.4505099998787,2123.4525049999356,2123.9411300001666,2123.941240000073,2127.283944999799,2835,2127.284190000035,5,2127.285294999834,7,4,214,6,1,1,0.7,Time
,,132230,001,男,32,2025-06-03_17h16.12.785,Serial_Dependence_U,2023.2.3,Win32,60.00240009601306,,,,,,2127.2858949997462,140,7,2127.2860650001094,140,,,,2130.8513650000095,2131.355585000012,2130.3326799999923,2130.8511100001633,2128.292535000015,2130.3324600001797,2131.3556599998847,2131.8565549999475,2131.8568150000647,2134.91791999992,2730,2134.9180999998935,5,2134.9184499997646,7,5,215,16,1,1,0.7,Time
,,132230,001,男,32,2025-06-03_17h16.12.785,Serial_Dependence_U,2023.2.3,Win32,60.00240009601306,,,,,,2134.9190050000325,325,7,2134.919224999845,325,,,,2139.086654999759,2139.5758050000295,2138.5729649998248,2139.0865400000475,2135.929719999898,2138.572800000198,2139.57585999975,2140.072329999879,2140.0724100000225,2143.8123800000176,3294,2143.812555000186,5,2143.813004999887,7,6,216,9,1,1.6,0.7,Time
,,132230,001,男,32,2025-06-03_17h16.12.785,Serial_Dependence_U,2023.2.3,Win32,60.00240009601306,,,,,,2143.8136049997993,4,7,2143.813794999849,4,,,,2147.8159150001593,2148.316800000146,2147.3092350000516,2147.815799999982,2144.843255000189,2147.3090900001116,2148.3168699997477,2148.817834999878,2148.8178599998355,2152.2977399998344,3148,2152.297970000189,5,2152.2984349997714,7,7,217,23,1,1.4,0.3,Time
,,132230,001,男,32,2025-06-03_17h16.12.785,Serial_Dependence_U,2023.2.3,Win32,60.00240009601306,,,,,,2152.2991450000554,215,7,2152.299424999859,215,,,,2156.4960199999623,2156.9889500001445,2155.970449999906,2156.4958750000224,2153.291335000191,2155.9703199998476,2156.9890000000596,2157.4912299998105,2157.4913449999876,2161.273699999787,3342,2161.2738950001076,5,2161.2743199998513,7,8,218,24,1,1.6,0.3,Time
,,132230,001,男,32,2025-06-03_17h16.12.785,Serial_Dependence_U,2023.2.3,Win32,60.00240009601306,,,,,,2161.274894999806,326,7,2161.2750849998556,326,,,,2164.649809999857,2165.1250849999487,2164.1270750002004,2164.649654999841,2162.2823350001127,2164.1269350000657,2165.125149999745,2165.60826499993,2165.617310000118,2169.1556099997833,3206,2169.1558900000528,5,2169.1563749997877,7,9,219,15,1,0.8,0.7,Time
,,132230,001,男,32,2025-06-03_17h16.12.785,Serial_Dependence_U,2023.2.3,Win32,60.00240009601306,,,,,,2169.157044999767,265,7,2169.1573149999604,265,,,,2173.160949999932,2173.656990000047,2172.6438049999997,2173.1607200000435,2170.1738350000232,2172.6436600000598,2173.657044999767,2174.1571749998257,2174.1572199999355,2177.6526850000955,3155,2177.6528799999505,5,2177.65335999988,7,10,220,13,1,1.4,0.3,Time
,,132230,001,男,32,2025-06-03_17h16.12.785,Serial_Dependence_U,2023.2.3,Win32,60.00240009601306,,,,,,2177.654205000028,272,7,2177.654639999848,272,,,,2181.2615899997763,2181.7646050001495,2180.7602949999273,2181.261429999955,2178.681915000081,2180.7601149999537,2181.7646849998273,2182.2699600001797,2182.2700499999337,2185.9092049999163,3255,2185.9094549999572,5,2185.9100049999543,7,11,221,1,1,1,0.3,Time
,,132230,001,男,32,2025-06-03_17h16.12.785,Serial_Dependence_U,2023.2.3,Win32,60.00240009601306,,,,,,2185.910689999815,121,7,2185.910935000051,121,,,,2189.49773499975,2190.001389999874,2188.9960900000297,2189.497554999776,2186.9080599998124,2188.995844999794,2190.001449999865,2190.4992849999107,2190.4993900000118,2193.896730000153,3076,2193.896980000194,5,2193.897444999777,7,12,222,11,1,1,0.3,Time
,,132230,001,男,32,2025-06-03_17h16.12.785,Serial_Dependence_U,2023.2.3,Win32,60.00240009601306,,,,,,2193.898070000112,350,7,2193.8982950001955,350,,,,2198.053654999938,2198.541495000012,2197.5520600001328,2198.0534850000404,2194.9097699997947,2197.5519249998033,2198.541550000198,2199.038734999951,2199.0388099998236,2202.2097550001927,2912,2202.2100249999203,5,2202.210564999841,7,13,223,19,1,1.6,0.7,Time
,,132230,001,男,32,2025-06-03_17h16.12.785,Serial_Dependence_U,2023.2.3,Win32,60.00240009601306,,,,,,2202.2112249997444,113,7,2202.2114849998616,113,,,,2205.6398950000294,2206.15229499992,2205.1228800001554,2205.6397600001656,2203.24971000012,2205.1227400000207,2206.152364999987,2206.6614449997433,2206.6615100000054,2209.2068349998444,2212,2209.207020000089,5,2209.2075550002046,7,14,224,10,1,0.8,0.3,Time
,,132230,001,男,32,2025-06-03_17h16.12.785,Serial_Dependence_U,2023.2.3,Win32,60.00240009601306,,,,,,2209.2080899998546,181,7,2209.2082949997857,181,,,,2213.4040450002067,2213.8928499999456,2212.899505000096,2213.4037750000134,2210.2250999999233,2212.8992849998176,2213.8928999998607,2214.390120000113,2214.3953499998897,2217.8303450001404,3045,2217.8305999999866,5,2217.831104999874,7,15,225,14,1,1.6,0.3,Time
,,132230,001,男,32,2025-06-03_17h16.12.785,Serial_Dependence_U,2023.2.3,Win32,60.00240009601306,,,,,,2217.831764999777,131,7,2217.832020000089,131,,,,2221.6386500000954,2222.1323150000535,2221.122820000164,2221.6385050001554,2218.8549049999565,2221.122599999886,2222.132385000121,2222.624154999852,2222.6243199999444,2225.758229999803,2754,2225.758440000005,5,2225.758890000172,7,16,226,12,1,1.2,0.3,Time
,,132230,001,男,32,2025-06-03_17h16.12.785,Serial_Dependence_U,2023.2.3,Win32,60.00240009601306,,,,,,2225.7595649999566,327,7,2225.7597750001587,327,,,,2229.9667699998245,2230.4713249998167,2229.4445050000213,2229.9666200000793,2226.7854149998166,2229.4443649998866,2230.4715499999,2230.974140000064,2230.9742649998516,2233.729724999983,2297,2233.7299549998716,5,2233.7304599997588,7,17,227,29,1,1.6,0.7,Time
,,132230,001,男,32,2025-06-03_17h16.12.785,Serial_Dependence_U,2023.2.3,Win32,60.00240009601306,,,,,,2233.7316600000486,183,7,2233.7319000000134,183,,,,2237.5037250001915,2237.9974199999124,2236.9940149998292,2237.503544999752,2234.7465699999593,2236.9938849997707,2237.9974750000983,2238.491014999803,2238.4910550001077,2241.84104999993,2620,2241.8412250000983,5,2241.8416249998845,7,18,228,17,1,1.2,0.7,Time
,,132230,001,男,32,2025-06-03_17h16.12.785,Serial_Dependence_U,2023.2.3,Win32,60.00240009601306,,,,,,2241.8420649999753,104,7,2241.84220500011,104,,,,2246.0627749999985,2246.556164999958,2245.5449700001627,2246.06264499994,2242.8592550000176,2245.544840000104,2246.5562299997546,2247.0483550000936,2247.0484600001946,2250.0942099997774,2711,2250.0944599998184,5,2250.094939999748,7,19,229,4,1,1.6,0.3,Time
,,132230,001,男,32,2025-06-03_17h16.12.785,Serial_Dependence_U,2023.2.3,Win32,60.00240009601306,,,,,,2250.0956199998036,328,7,2250.095840000082,328,,,,2254.08815999981,2254.576319999993,2253.5674800002016,2254.087999999989,2251.122965000104,2253.5673250001855,2254.5764500000514,2255.0878149997443,2255.088254999835,2257.9731199997477,2404,2257.9733099997975,5,2257.973774999846,7,20,230,18,1,1.4,0.7,Time
,,132230,001,男,32,2025-06-03_17h16.12.785,Serial_Dependence_U,2023.2.3,Win32,60.00240009601306,,,,,,2257.974500000011,183,7,2257.9747449997813,183,,,,2261.593510000035,2262.0832799999043,2261.077670000028,2261.5933799999766,2258.9942950000986,2261.077535000164,2262.0833299998194,2262.589265000075,2262.589420000091,2265.3381349998526,2403,2265.338454999961,5,2265.339009999763,7,21,231,21,1,1,0.3,Time
,,132230,001,男,32,2025-06-03_17h16.12.785,Serial_Dependence_U,2023.2.3,Win32,60.00240009601306,,,,,,2265.3396199997514,20,7,2265.3398299999535,20,,,,2269.3466249997728,2269.839265000075,2268.8280449998565,2269.34649500018,2266.360764999874,2268.827874999959,2269.8393250000663,2270.3395850001834,2270.3497649999335,2273.734730000142,2921,2273.735014999751,5,2273.7355550001375,7,22,232,3,1,1.4,0.3,Time
,,132230,001,男,32,2025-06-03_17h16.12.785,Serial_Dependence_U,2023.2.3,Win32,60.00240009601306,,,,,,2273.7362500000745,11,7,2273.736765000038,11,,,,2277.2977899997495,2277.789634999819,2276.7805200000294,2277.297635000199,2274.745354999788,2276.7803699998185,2277.7896949998103,2278.2830199999735,2278.283104999922,2281.6401450000703,2900,2281.6403999999166,5,2281.640864999965,7,23,233,26,1,1,0.7,Time
,,132230,001,男,32,2025-06-03_17h16.12.785,Serial_Dependence_U,2023.2.3,Win32,60.00240009601306,,,,,,2281.641574999783,99,7,2281.641824999824,99,,,,2285.620860000141,2286.12201000005,2285.0990650001913,2285.620554999914,2282.659029999748,2285.098879999947,2286.122094999999,2286.6160949999467,2286.6161500001326,2289.851745000109,2770,2289.851919999812,5,2289.8523499998264,7,24,234,28,1,1.4,0.7,Time
,,132230,001,男,32,2025-06-03_17h16.12.785,Serial_Dependence_U,2023.2.3,Win32,60.00240009601306,,,,,,2289.8530049999245,320,7,2289.8532449998893,320,,,,2293.219694999978,2293.7199599999003,2292.701979999896,2293.2195350001566,2290.8652900001034,2292.7017899998464,2293.7201649998315,2294.223879999947,2294.2240999997593,2297.23008499993,2654,2297.2302600000985,5,2297.2306550000794,7,25,235,5,1,0.8,0.7,Time
,,132230,001,男,32,2025-06-03_17h16.12.785,Serial_Dependence_U,2023.2.3,Win32,60.00240009601306,,,,,,2297.231269999873,254,7,2297.231519999914,254,,,,2300.580519999843,2301.0731049999595,2300.0776100000367,2300.580354999751,2298.239564999938,2300.0773950000294,2301.0731600001454,2301.567644999828,2301.5677649998106,2305.0062199998647,2713,2305.006434999872,5,2305.0069200000726,7,26,236,25,1,0.8,0.7,Time
,,132230,001,男,32,2025-06-03_17h16.12.785,Serial_Dependence_U,2023.2.3,Win32,60.00240009601306,,,,,,2305.0076150000095,36,7,2305.0078699998558,36,,,,2308.4123800001107,2308.9004399999976,2307.908489999827,2308.4121699999087,2306.0382050001062,2307.908350000158,2308.900549999904,2309.3930899999104,2309.393430000171,2312.5481500001624,2742,2312.548380000051,5,2312.5489050000906,7,27,237,20,1,0.8,0.3,Time
,,132230,001,男,32,2025-06-03_17h16.12.785,Serial_Dependence_U,2023.2.3,Win32,60.00240009601306,,,,,,2312.5495899999514,242,7,2312.549825000111,242,,,,2316.3339749998413,2316.837199999951,2315.81534500001,2316.3338500000536,2313.548554999754,2315.8152199997567,2316.8372849998996,2317.3375050001778,2317.348205000162,2320.914584999904,3178,2320.9147999999113,5,2320.915269999765,7,28,238,22,1,1.2,0.3,Time
,,132230,001,男,32,2025-06-03_17h16.12.785,Serial_Dependence_U,2023.2.3,Win32,60.00240009601306,,,,,,2320.9158700001426,344,7,2320.916069999803,344,,,,2324.6797299999744,2325.1711650001816,2324.1682000001892,2324.6795850000344,2321.9235299997963,2324.16806499986,2325.1712150000967,2325.67496499978,2325.6750900000334,2329.166745000053,3058,2329.1669649998657,5,2329.167425000109,7,29,239,27,1,1.2,0.7,Time
,,132230,001,男,32,2025-06-03_17h16.12.785,Serial_Dependence_U,2023.2.3,Win32,60.00240009601306,,,,,,2329.168035000097,311,8,2333.878200000152,311,s,4.687909999862313,,2337.702920000069,2338.204324999824,2337.1857300000265,2337.702664999757,2334.905944999773,2337.185554999858,2338.204415000044,2338.7092900001444,2338.7093799998984,2342.20621499978,3093,2342.206424999982,5,2342.2069000001065,8,0,240,2,1,1.2,0.3,Time
,,132230,001,男,32,2025-06-03_17h16.12.785,Serial_Dependence_U,2023.2.3,Win32,60.00240009601306,,,,,,2342.2074949997477,336,8,2342.2108000000007,336,,,,2345.7722950000316,2346.2702799998224,2345.2504650000483,2345.772109999787,2343.2065050001256,2345.2502700001933,2346.270370000042,2346.7731249998324,2346.773204999976,2350.2166300001554,3064,2350.216810000129,5,2350.217209999915,8,1,241,6,1,1,0.7,Time
,,132230,001,男,32,2025-06-03_17h16.12.785,Serial_Dependence_U,2023.2.3,Win32,60.00240009601306,,,,,,2350.2177599999122,307,8,2350.217939999886,307,,,,2353.9958699997514,2354.484970000107,2353.484269999899,2353.9957249998115,2351.2268499997444,2353.4841100000776,2354.485040000174,2354.9852499999106,2354.9853550000116,2359.059704999905,3723,2359.059849999845,5,2359.0605250000954,8,2,242,17,1,1.2,0.7,Time
,,132230,001,男,32,2025-06-03_17h16.12.785,Serial_Dependence_U,2023.2.3,Win32,60.00240009601306,,,,,,2359.061005000025,254,8,2359.0611649998464,254,,,,2362.8778200000525,2363.3723249998875,2362.3689799997956,2362.8777250000276,2360.0877649998292,2362.368809999898,2363.3723749998026,2363.8537599998526,2363.8538449998014,2366.5631800000556,2339,2366.5634800000116,5,2366.5639599999413,8,3,243,22,1,1.2,0.3,Time
,,132230,001,男,32,2025-06-03_17h16.12.785,Serial_Dependence_U,2023.2.3,Win32,60.00240009601306,,,,,,2366.564584999811,172,8,2366.564784999937,172,,,,2370.579125000164,2371.0834900001064,2370.069405000191,2370.578914999962,2367.58950500004,2370.069174999837,2371.0835299999453,2371.5838399999775,2371.59263999993,2375.2031899997965,3276,2375.2033999999985,5,2375.203809999861,8,4,244,13,1,1.4,0.3,Time
