Scale_setup.started,Scale_setup.stopped,participant,session,sex,age,date,expName,psychopyVersion,OS,frameRate,Intro.started,Intro.stopped,key_resp_2.keys,key_resp_2.rt,key_resp_2.duration,block.started,direction,Block_id,block.stopped,trial_direction,Block_resp_2.keys,Block_resp_2.rt,Block_resp_2.duration,ITI.started,ITI.stopped,Mask_2.started,Mask_2.stopped,encoding.started,encoding.stopped,Cue.started,Cue.stopped,Response.started,Response.stopped,keyDuration,Feedback_Time.started,FeedbackID_T,Feedback_Time.stopped,trials.thisRepN,trials.thisTrialN,trials.thisN,trials.thisIndex,trials.ran,TimeDur,Coherence1,TrialType
0.0006000001430521706,0.0009000000953562903,158214,001,女,21,2025-06-02_16h29.31.696,Serial_Dependence_U,2023.2.3,Win32,59.880239520968516,,,,,,,,,,,,,,,,,,,,,,,,,,,,,,,,,,,
,,158214,001,女,21,2025-06-02_16h29.31.696,Serial_Dependence_U,2023.2.3,Win32,59.880239520968516,190.28710000014303,587.9599000000953,space,397.64570000004767,,,,,,,,,,,,,,,,,,,,,,,,,,,,,,,
,,158214,001,女,21,2025-06-02_16h29.31.696,Serial_Dependence_U,2023.2.3,Win32,59.880239520968516,,,,,,587.9784000000953,139,0,592.8577000000477,139,s,4.854400000095325,,596.4245,596.9239000000954,595.908100000143,596.4243000001908,593.875100000143,595.908,596.9241000001431,597.4239000000954,597.4241000001431,624.7409000000954,432,624.7411000001431,1,625.7402000000477,0,0,0,26,1,1,0.7,Time
,,158214,001,女,21,2025-06-02_16h29.31.696,Serial_Dependence_U,2023.2.3,Win32,59.880239520968516,,,,,,625.7408000001907,253,0,625.7438000001907,253,,,,629.324600000143,629.8231000001431,628.8074000000954,629.3244000000954,626.7409000000954,628.8073000001907,629.8231000001431,630.3234000000954,630.3234000000954,632.924,1132,632.9242000000477,4,633.923100000143,0,1,1,11,1,1,0.3,Time
,,158214,001,女,21,2025-06-02_16h29.31.696,Serial_Dependence_U,2023.2.3,Win32,59.880239520968516,,,,,,633.9235,233,0,633.9237000000477,233,,,,637.273600000143,637.7732000000477,636.7569000000954,637.2735,634.9241000001431,636.7569000000954,637.7732000000477,638.2733000001907,638.2734000000953,642.4398000001908,2581,642.4399000000953,5,643.4395,0,2,2,5,1,0.8,0.7,Time
,,158214,001,女,21,2025-06-02_16h29.31.696,Serial_Dependence_U,2023.2.3,Win32,59.880239520968516,,,,,,643.4398000001908,270,0,643.4399000000953,270,,,,647.023100000143,647.523,646.5067000000477,647.023100000143,644.4402000000476,646.5067000000477,647.523,648.0227000000477,648.0228000001907,651.4063000001908,2866,651.4065,5,652.406100000143,0,3,3,1,1,1,0.3,Time
,,158214,001,女,21,2025-06-02_16h29.31.696,Serial_Dependence_U,2023.2.3,Win32,59.880239520968516,,,,,,652.4065,218,0,652.4065,218,,,,656.3897000000477,656.8892000000477,655.8733000001907,656.3897000000477,653.4065,655.8733000001907,656.8892000000477,657.3892000000477,657.3893000001907,657.839600000143,33,657.8397000000476,1,658.839100000143,0,4,4,3,1,1.4,0.3,Time
,,158214,001,女,21,2025-06-02_16h29.31.696,Serial_Dependence_U,2023.2.3,Win32,59.880239520968516,,,,,,658.8394000000953,10,0,658.8395,10,,,,662.7733000001907,663.2725,662.2729000000953,662.7733000001907,659.8399000000953,662.2729000000953,663.272600000143,663.7727000000477,663.7728000001907,667.6898000001908,3251,667.6899000000953,5,668.6894000000954,0,5,5,18,1,1.4,0.7,Time
,,158214,001,女,21,2025-06-02_16h29.31.696,Serial_Dependence_U,2023.2.3,Win32,59.880239520968516,,,,,,668.6896000001431,93,0,668.6898000001908,93,,,,672.6729000000954,673.1725,672.1562000000476,672.6729000000954,669.6895,672.1562000000476,673.172600000143,673.6727000000477,673.6727000000477,678.389600000143,4093,678.3897000000477,5,679.3889000000954,0,6,6,13,1,1.4,0.3,Time
,,158214,001,女,21,2025-06-02_16h29.31.696,Serial_Dependence_U,2023.2.3,Win32,59.880239520968516,,,,,,679.3892000000477,184,0,679.3894000000954,184,,,,682.7727000000477,683.2724000000953,682.2562000000477,682.7727000000477,680.389600000143,682.2562000000477,683.2725,683.7724000000953,683.7725,689.4557000000477,4151,689.4558000001907,5,690.455600000143,0,7,7,10,1,0.8,0.3,Time
,,158214,001,女,21,2025-06-02_16h29.31.696,Serial_Dependence_U,2023.2.3,Win32,59.880239520968516,,,,,,690.4559000000953,42,0,690.4559000000953,42,,,,694.239100000143,694.7387000000476,693.7226000001431,694.239100000143,691.456100000143,693.7226000001431,694.7387000000476,695.2388000001907,695.2388000001907,698.9388000001908,3582,698.939,5,699.9388000001908,0,8,8,22,1,1.2,0.3,Time
,,158214,001,女,21,2025-06-02_16h29.31.696,Serial_Dependence_U,2023.2.3,Win32,59.880239520968516,,,,,,699.9391000001431,66,0,699.9391000001431,66,,,,703.3226000001431,703.822,702.8058000001907,703.3226000001431,700.9393000001908,702.8058000001907,703.822100000143,704.322100000143,704.322100000143,708.2057000000477,3530,708.2058000001907,5,709.2053000001907,0,9,9,20,1,0.8,0.3,Time
,,158214,001,女,21,2025-06-02_16h29.31.696,Serial_Dependence_U,2023.2.3,Win32,59.880239520968516,,,,,,709.2055,328,0,709.205600000143,328,,,,712.5559000000953,713.0549000000954,712.0389000000954,712.5558000001907,710.2057000000477,712.0389000000954,713.055,713.5552000000476,713.5553000001908,715.9222000000477,2001,715.9223000001907,5,716.9217000000477,0,10,10,25,1,0.8,0.7,Time
,,158214,001,女,21,2025-06-02_16h29.31.696,Serial_Dependence_U,2023.2.3,Win32,59.880239520968516,,,,,,716.9219000000953,133,0,716.922100000143,133,,,,720.6722000000477,721.171600000143,720.1557000000477,720.672100000143,717.9224000000953,720.1557000000477,721.1717000000477,721.6715,721.671600000143,722.7718000001908,661,722.7718000001908,1,723.7717000000476,0,11,11,27,1,1.2,0.7,Time
,,158214,001,女,21,2025-06-02_16h29.31.696,Serial_Dependence_U,2023.2.3,Win32,59.880239520968516,,,,,,723.7719000000953,243,0,723.772,243,,,,727.1388000001907,727.6382000000477,726.6222000000477,727.1388000001907,724.7888000001907,726.6222000000477,727.6382000000477,728.1384000000953,728.1384000000953,729.9384000000954,1096,729.9385,5,730.9384000000954,0,12,12,15,1,0.8,0.7,Time
,,158214,001,女,21,2025-06-02_16h29.31.696,Serial_Dependence_U,2023.2.3,Win32,59.880239520968516,,,,,,730.9386000001431,19,0,730.9388000001908,19,,,,735.0886000001431,735.588,734.5719000000954,735.0885,731.9384000000954,734.5718000001907,735.588,736.0881000001431,736.0882000000477,741.355100000143,2899,741.355100000143,5,742.3543000001907,0,13,13,9,1,1.6,0.7,Time
,,158214,001,女,21,2025-06-02_16h29.31.696,Serial_Dependence_U,2023.2.3,Win32,59.880239520968516,,,,,,742.354600000143,48,0,742.3547000000477,48,,,,746.122,746.6211000001431,745.6218000001908,746.1219000000954,743.3548000001907,745.6217000000477,746.6211000001431,747.1215,747.1215,753.955,2933,753.955,5,754.9544000000953,0,14,14,2,1,1.2,0.3,Time
,,158214,001,女,21,2025-06-02_16h29.31.696,Serial_Dependence_U,2023.2.3,Win32,59.880239520968516,,,,,,754.954600000143,177,0,754.9548000001907,177,,,,758.3548000001907,758.854100000143,757.8381000001431,758.3548000001907,755.9714000000954,757.838,758.854100000143,759.3545,759.3545,759.7212000000477,149,759.7214000000954,1,760.721100000143,0,15,15,0,1,0.8,0.3,Time
,,158214,001,女,21,2025-06-02_16h29.31.696,Serial_Dependence_U,2023.2.3,Win32,59.880239520968516,,,,,,760.7213000001907,91,0,760.7214000000954,91,,,,764.9047000000477,765.4043000001907,764.3885,764.9047000000477,761.7216000001431,764.3884000000953,765.4043000001907,765.9044000000954,765.9044000000954,769.8713000001908,3313,769.8714000000954,5,770.8708000001907,0,16,16,4,1,1.6,0.3,Time
,,158214,001,女,21,2025-06-02_16h29.31.696,Serial_Dependence_U,2023.2.3,Win32,59.880239520968516,,,,,,770.871,42,0,770.8711000001431,42,,,,774.8544000000953,775.3542000000476,774.3383000001908,774.8544000000953,771.8711000001431,774.3382000000477,775.3542000000476,775.8542000000476,775.8543000001907,776.5212000000477,34,776.5213000001908,1,777.5208000001908,0,17,17,23,1,1.4,0.3,Time
,,158214,001,女,21,2025-06-02_16h29.31.696,Serial_Dependence_U,2023.2.3,Win32,59.880239520968516,,,,,,777.5212000000477,302,0,777.5213000001908,302,,,,781.0546000001431,781.554,780.5543000001908,781.0545,778.5213000001908,780.5543000001908,781.554,782.0539000000954,782.0539000000954,784.9709000000954,2331,784.9709000000954,5,785.9707000000477,0,18,18,6,1,1,0.7,Time
,,158214,001,女,21,2025-06-02_16h29.31.696,Serial_Dependence_U,2023.2.3,Win32,59.880239520968516,,,,,,785.971,299,0,785.971100000143,299,,,,789.921100000143,790.4205,789.4043000001907,789.921,786.9713000001907,789.4043000001907,790.4205,790.9207000000476,790.9207000000476,793.2544000000954,1213,793.2545,2,794.253600000143,0,19,19,8,1,1.4,0.7,Time
,,158214,001,女,21,2025-06-02_16h29.31.696,Serial_Dependence_U,2023.2.3,Win32,59.880239520968516,,,,,,794.2539000000953,232,0,794.254,232,,,,797.9877000000477,798.4875,797.4874000000954,797.9876000001431,795.2542000000477,797.4874000000954,798.4876000001431,798.9871000001431,798.9871000001431,800.4373000001907,767,800.4374000000954,1,801.437100000143,0,20,20,17,1,1.2,0.7,Time
,,158214,001,女,21,2025-06-02_16h29.31.696,Serial_Dependence_U,2023.2.3,Win32,59.880239520968516,,,,,,801.4374000000954,52,0,801.4375,52,,,,805.6209000000954,806.1202000000477,805.1043000001907,805.6209000000954,802.437600000143,805.1043000001907,806.1202000000477,806.6203000001907,806.6204000000954,808.987,1788,808.987,4,809.987,0,21,21,24,1,1.6,0.3,Time
,,158214,001,女,21,2025-06-02_16h29.31.696,Serial_Dependence_U,2023.2.3,Win32,59.880239520968516,,,,,,809.9872000000477,74,0,809.9873000001908,74,,,,814.1374000000953,814.6366000001431,813.6206000001431,814.1373000001907,810.9873000001908,813.6205,814.6366000001431,815.1369000000954,815.1369000000954,816.5372000000477,645,816.5373000001907,1,817.5367000000476,0,22,22,19,1,1.6,0.7,Time
,,158214,001,女,21,2025-06-02_16h29.31.696,Serial_Dependence_U,2023.2.3,Win32,59.880239520968516,,,,,,817.537,176,0,817.537,176,,,,821.4871000001431,821.9867000000477,820.9707000000477,821.4871000001431,818.5372000000477,820.970600000143,821.9867000000477,822.4867000000477,822.4868000001908,824.920600000143,1717,824.920600000143,4,825.9201000001431,0,23,23,28,1,1.4,0.7,Time
,,158214,001,女,21,2025-06-02_16h29.31.696,Serial_Dependence_U,2023.2.3,Win32,59.880239520968516,,,,,,825.9204000000954,44,0,825.9205,44,,,,829.6705,830.1701000001431,829.153600000143,829.6704000000954,826.9202000000477,829.1535,830.1701000001431,830.67,830.6701000001431,832.5868000001907,809,832.5869000000954,1,833.5862000000477,0,24,24,7,1,1.2,0.7,Time
,,158214,001,女,21,2025-06-02_16h29.31.696,Serial_Dependence_U,2023.2.3,Win32,59.880239520968516,,,,,,833.5863000001907,211,0,833.5864000000954,211,,,,837.1366000001431,837.6363000001908,836.6206000001431,837.1365,834.587,836.6205,837.6364000000954,838.1363000001908,838.1363000001908,840.9201000001431,1411,840.9202000000477,5,841.9193000001907,0,25,25,16,1,1,0.7,Time
,,158214,001,女,21,2025-06-02_16h29.31.696,Serial_Dependence_U,2023.2.3,Win32,59.880239520968516,,,,,,841.9195,123,0,841.9197000000477,123,,,,845.5033000001907,846.002600000143,844.9867000000477,845.5032000000476,842.9204000000954,844.9867000000477,846.0027000000476,846.503100000143,846.503100000143,847.4035,216,847.403600000143,1,848.402600000143,0,26,26,21,1,1,0.3,Time
,,158214,001,女,21,2025-06-02_16h29.31.696,Serial_Dependence_U,2023.2.3,Win32,59.880239520968516,,,,,,848.4029000000953,218,0,848.4029000000953,218,,,,852.5533000001907,853.0525,852.036600000143,852.5533000001907,849.4034000000954,852.036600000143,853.0525,853.553,853.553100000143,855.87,1766,855.870100000143,4,856.8695,0,27,27,29,1,1.6,0.7,Time
,,158214,001,女,21,2025-06-02_16h29.31.696,Serial_Dependence_U,2023.2.3,Win32,59.880239520968516,,,,,,856.8698000001907,135,0,856.8698000001907,135,,,,861.0529000000954,861.552600000143,860.5365,861.0529000000954,857.87,860.5365,861.552600000143,862.0529000000954,862.0529000000954,864.1695,920,864.1696000001431,1,865.1693000001907,0,28,28,14,1,1.6,0.3,Time
,,158214,001,女,21,2025-06-02_16h29.31.696,Serial_Dependence_U,2023.2.3,Win32,59.880239520968516,,,,,,865.1696000001431,292,0,865.1696000001431,292,,,,868.9529000000954,869.4527000000477,868.4365,868.9529000000954,866.1696000001431,868.4364000000953,869.4527000000477,869.9527000000477,869.9528000001907,870.936,585,870.9362000000477,1,871.9359000000953,0,29,29,12,1,1.2,0.3,Time
,,158214,001,女,21,2025-06-02_16h29.31.696,Serial_Dependence_U,2023.2.3,Win32,59.880239520968516,,,,,,871.936100000143,65,1,910.057600000143,65,s,38.09470000004774,,914.0523000001907,914.5518000001907,913.5357000000477,914.0523000001907,911.0688000001908,913.5357000000477,914.5519000000953,915.0519000000953,915.0519000000953,916.985600000143,1385,916.9857000000477,3,916.9915,1,0,30,3,1,1.4,0.3,Time
,,158214,001,女,21,2025-06-02_16h29.31.696,Serial_Dependence_U,2023.2.3,Win32,59.880239520968516,,,,,,916.9917000000477,148,1,916.9924000000954,148,,,,920.335600000143,920.834600000143,919.8188000001908,920.3355,917.9855,919.8188000001908,920.8347000000476,921.335,921.335100000143,923.218600000143,1096,923.218600000143,5,923.2244000000953,1,1,31,25,1,0.8,0.7,Time
,,158214,001,女,21,2025-06-02_16h29.31.696,Serial_Dependence_U,2023.2.3,Win32,59.880239520968516,,,,,,923.2245,257,1,923.224600000143,257,,,,926.5688000001908,927.0683000001907,926.052100000143,926.5687000000477,924.2187000000476,926.052,927.0684000000954,927.5681000001431,927.5681000001431,928.9687000000476,917,928.9688000001908,4,928.9748000001907,1,2,32,5,1,0.8,0.7,Time
,,158214,001,女,21,2025-06-02_16h29.31.696,Serial_Dependence_U,2023.2.3,Win32,59.880239520968516,,,,,,928.975100000143,122,1,928.975100000143,122,,,,932.7188000001908,933.218,932.2019000000954,932.7188000001908,929.9684000000954,932.2018000001907,933.218,933.718100000143,933.7182000000477,935.2018000001907,896,935.2019000000954,2,935.2077000000476,1,3,33,27,1,1.2,0.7,Time
,,158214,001,女,21,2025-06-02_16h29.31.696,Serial_Dependence_U,2023.2.3,Win32,59.880239520968516,,,,,,935.2079000000953,134,1,935.2079000000953,134,,,,938.5851000001431,939.0847000000477,938.068600000143,938.5851000001431,936.2019999999999,938.068600000143,939.0847000000477,939.5848000001907,939.5848000001907,941.168100000143,1168,941.1682000000477,5,941.1745,1,4,34,0,1,0.8,0.3,Time
,,158214,001,女,21,2025-06-02_16h29.31.696,Serial_Dependence_U,2023.2.3,Win32,59.880239520968516,,,,,,941.1747000000477,148,1,941.1747000000477,148,,,,944.7519000000954,945.2515,944.2352000000477,944.7519000000954,942.1683000001907,944.235100000143,945.2515,945.7511000001431,945.7511000001431,947.2017000000477,951,947.2017000000477,3,947.2076000001431,1,5,35,11,1,1,0.3,Time
,,158214,001,女,21,2025-06-02_16h29.31.696,Serial_Dependence_U,2023.2.3,Win32,59.880239520968516,,,,,,947.2078000001908,52,1,947.2078000001908,52,,,,951.1519999999999,951.651100000143,950.6352000000476,951.1519000000955,948.2018000001907,950.6351000001431,951.651100000143,952.151100000143,952.151100000143,953.8181000001431,1299,953.8182000000476,2,953.8242000000477,1,6,36,8,1,1.4,0.7,Time
,,158214,001,女,21,2025-06-02_16h29.31.696,Serial_Dependence_U,2023.2.3,Win32,59.880239520968516,,,,,,953.8244000000954,347,1,953.8245000000001,347,,,,957.6013000001907,958.1012000000477,957.0849000000954,957.6012000000477,954.8184000000953,957.0849000000954,958.1012000000477,958.6012000000477,958.6013000001907,960.3177000000477,1253,960.3177000000477,3,960.3243000001906,1,7,37,12,1,1.2,0.3,Time
,,158214,001,女,21,2025-06-02_16h29.31.696,Serial_Dependence_U,2023.2.3,Win32,59.880239520968516,,,,,,960.324600000143,229,1,960.324600000143,229,,,,963.701600000143,964.2008000001907,963.1847000000477,963.7015,961.3183000001908,963.1847000000477,964.2008000001907,964.7009999999999,964.7009999999999,965.9345,837,965.9347000000477,3,965.9404000000953,1,8,38,10,1,0.8,0.3,Time
,,158214,001,女,21,2025-06-02_16h29.31.696,Serial_Dependence_U,2023.2.3,Win32,59.880239520968516,,,,,,965.940600000143,115,1,965.9407000000477,115,,,,969.6845,970.1841000001431,969.1682000000477,969.6845,966.9349000000954,969.1682000000477,970.1841000001431,970.6842000000478,970.6843000001908,972.8177000000477,1549,972.8177000000477,4,972.8243000001906,1,9,39,17,1,1.2,0.7,Time
,,158214,001,女,21,2025-06-02_16h29.31.696,Serial_Dependence_U,2023.2.3,Win32,59.880239520968516,,,,,,972.8245000000001,278,1,972.824600000143,278,,,,976.8013000001907,977.3008000001906,976.2847000000478,976.8013000001907,973.8180000000001,976.2846000001431,977.3009000000953,977.8009000000953,977.8009000000953,980.0512000000477,1732,980.0512000000477,4,980.0572000000476,1,10,40,13,1,1.4,0.3,Time
,,158214,001,女,21,2025-06-02_16h29.31.696,Serial_Dependence_U,2023.2.3,Win32,59.880239520968516,,,,,,980.0574000000953,92,1,980.0575,92,,,,983.801,984.3007000000476,983.2845000000001,983.8009000000953,981.0514000000954,983.2845000000001,984.3007000000476,984.8009000000953,984.8009000000953,986.5177000000477,1266,986.5178000001907,4,986.5243000001907,1,11,41,7,1,1.2,0.7,Time
,,158214,001,女,21,2025-06-02_16h29.31.696,Serial_Dependence_U,2023.2.3,Win32,59.880239520968516,,,,,,986.5245000000001,171,1,986.5245000000001,171,,,,990.7175000000001,991.217,990.2009999999999,990.7175000000001,987.534100000143,990.2009000000954,991.217,991.717,991.717,993.967100000143,1803,993.9672000000477,4,993.9729000000954,1,12,42,24,1,1.6,0.3,Time
,,158214,001,女,21,2025-06-02_16h29.31.696,Serial_Dependence_U,2023.2.3,Win32,59.880239520968516,,,,,,993.9731000001431,47,1,993.9732000000478,47,,,,998.1506000001431,998.6504000000954,997.6342000000476,998.1506000001431,994.9677000000478,997.6342000000476,998.6504000000954,999.1503000001907,999.1503000001907,1001.5669999999999,2089,1001.5671000001431,5,1001.5733000001907,1,13,43,4,1,1.6,0.3,Time
,,158214,001,女,21,2025-06-02_16h29.31.696,Serial_Dependence_U,2023.2.3,Win32,59.880239520968516,,,,,,1001.5734000000954,110,1,1001.5735000000001,110,,,,1005.3671000001431,1005.8668000001907,1004.8508000001908,1005.3671000001431,1002.5839000000955,1004.8508000001908,1005.8668000001907,1006.3669000000954,1006.3670000000001,1006.4339000000954,51,1006.4340000000001,1,1006.4409999999999,1,14,44,2,1,1.2,0.3,Time
,,158214,001,女,21,2025-06-02_16h29.31.696,Serial_Dependence_U,2023.2.3,Win32,59.880239520968516,,,,,,1006.4412000000476,183,1,1006.4413000001908,183,,,,1009.8173000001908,1010.316600000143,1009.3008000001906,1009.8173000001908,1007.4341000001431,1009.3007000000476,1010.316600000143,1010.8169999999999,1010.8169999999999,1013.0173000001906,1777,1013.0174000000953,5,1013.0237000000476,1,15,45,20,1,0.8,0.3,Time
,,158214,001,女,21,2025-06-02_16h29.31.696,Serial_Dependence_U,2023.2.3,Win32,59.880239520968516,,,,,,1013.024,333,1,1013.024,333,,,,1016.3674000000955,1016.8667000000477,1015.8504999999999,1016.3673000001908,1014.0173000001906,1015.8504999999999,1016.8667000000477,1017.366600000143,1017.366600000143,1019.2002000000476,1504,1019.2004000000953,5,1019.2064000000954,1,16,46,15,1,0.8,0.7,Time
,,158214,001,女,21,2025-06-02_16h29.31.696,Serial_Dependence_U,2023.2.3,Win32,59.880239520968516,,,,,,1019.2067000000476,355,1,1019.2067000000476,355,,,,1022.7505,1023.2499999999999,1022.234,1022.7505,1020.2007000000477,1022.2339000000953,1023.2499999999999,1023.7501000001431,1023.7501000001431,1026.0004999999999,1899,1026.0006000001429,5,1026.0064000000953,1,17,47,16,1,1,0.7,Time
,,158214,001,女,21,2025-06-02_16h29.31.696,Serial_Dependence_U,2023.2.3,Win32,59.880239520968516,,,,,,1026.0067000000477,248,1,1026.0068000001907,248,,,,1030.1837000000476,1030.6834000000952,1029.6669000000952,1030.1837000000476,1027.0004999999999,1029.6669000000952,1030.6834000000952,1031.1832000000475,1031.1832000000475,1033.9001000001429,2361,1033.9002000000476,5,1033.9064000000953,1,18,48,14,1,1.6,0.3,Time
,,158214,001,女,21,2025-06-02_16h29.31.696,Serial_Dependence_U,2023.2.3,Win32,59.880239520968516,,,,,,1033.906600000143,356,1,1033.906600000143,356,,,,1037.4838000001905,1037.983100000143,1036.9669999999999,1037.4837000000475,1034.9003000001906,1036.9669999999999,1037.983100000143,1038.4832000000476,1038.4832000000476,1040.816600000143,1872,1040.8167000000476,5,1040.8233000001906,1,19,49,1,1,1,0.3,Time
,,158214,001,女,21,2025-06-02_16h29.31.696,Serial_Dependence_U,2023.2.3,Win32,59.880239520968516,,,,,,1040.8234000000953,292,1,1040.8235,292,,,,1044.7669000000953,1045.2663000001905,1044.2503000001907,1044.7669000000953,1041.8168000001906,1044.2503000001907,1045.2663000001905,1045.7659000000951,1045.7659000000951,1048.483100000143,2185,1048.483100000143,5,1048.4893000001907,1,20,50,18,1,1.4,0.7,Time
,,158214,001,女,21,2025-06-02_16h29.31.696,Serial_Dependence_U,2023.2.3,Win32,59.880239520968516,,,,,,1048.4894000000952,63,1,1048.4895,63,,,,1052.6333000001907,1053.1327000000476,1052.1168000001906,1052.6332000000475,1049.4834000000953,1052.1167000000476,1053.1328000001906,1053.632600000143,1053.6327000000476,1056.3664999999999,2414,1056.3666000001429,5,1056.372600000143,1,21,51,29,1,1.6,0.7,Time
,,158214,001,女,21,2025-06-02_16h29.31.696,Serial_Dependence_U,2023.2.3,Win32,59.880239520968516,,,,,,1056.3729000000953,46,1,1056.3729000000953,46,,,,1059.9664999999998,1060.466100000143,1059.449600000143,1059.9664999999998,1057.3834000000952,1059.449600000143,1060.466100000143,1060.966100000143,1060.9662000000476,1063.2164000000953,1829,1063.216600000143,5,1063.2224999999999,1,22,52,21,1,1,0.3,Time
,,158214,001,女,21,2025-06-02_16h29.31.696,Serial_Dependence_U,2023.2.3,Win32,59.880239520968516,,,,,,1063.2226000001428,121,1,1063.2227000000476,121,,,,1066.9999999999998,1067.4989000000953,1066.4832000000476,1066.9999999999998,1064.2164999999998,1066.483100000143,1067.4989000000953,1067.9992000000475,1067.9992000000475,1070.5829999999999,2199,1070.5831000001428,5,1070.590100000143,1,23,53,22,1,1.2,0.3,Time
,,158214,001,女,21,2025-06-02_16h29.31.696,Serial_Dependence_U,2023.2.3,Win32,59.880239520968516,,,,,,1070.5903000001906,39,1,1070.5904000000953,39,,,,1074.733100000143,1075.2323000001907,1074.2163000001906,1074.733100000143,1071.5831000001428,1074.2163000001906,1075.2323000001907,1075.7326000001428,1075.7326000001428,1078.4162000000476,2113,1078.4163000001906,5,1078.422600000143,1,24,54,9,1,1.6,0.7,Time
,,158214,001,女,21,2025-06-02_16h29.31.696,Serial_Dependence_U,2023.2.3,Win32,59.880239520968516,,,,,,1078.4228000001906,5,1,1078.4229000000953,5,,,,1082.5664000000952,1083.065600000143,1082.0494000000951,1082.5663000001907,1079.4162000000476,1082.0493000001907,1083.065600000143,1083.5654000000952,1083.5654000000952,1085.7992000000477,1598,1085.7993000001907,3,1085.8062000000475,1,25,55,19,1,1.6,0.7,Time
,,158214,001,女,21,2025-06-02_16h29.31.696,Serial_Dependence_U,2023.2.3,Win32,59.880239520968516,,,,,,1085.8063000001905,243,1,1085.8064000000952,243,,,,1089.7827000000475,1090.2824999999998,1089.2658000001907,1089.7827000000475,1086.799100000143,1089.2657000000477,1090.2824999999998,1090.7822000000476,1090.7823000001906,1092.9993000001907,1817,1092.9994000000952,4,1093.0061000001429,1,26,56,23,1,1.4,0.3,Time
,,158214,001,女,21,2025-06-02_16h29.31.696,Serial_Dependence_U,2023.2.3,Win32,59.880239520968516,,,,,,1093.0062000000476,3,1,1093.0063000001905,3,,,,1096.5658000001906,1097.0653000001905,1096.0494000000951,1096.5658000001906,1094.0159999999998,1096.0493000001907,1097.0653000001905,1097.5654000000952,1097.5654000000952,1099.6156000001429,1635,1099.6156000001429,5,1099.6221000001428,1,27,57,26,1,1,0.7,Time
,,158214,001,女,21,2025-06-02_16h29.31.696,Serial_Dependence_U,2023.2.3,Win32,59.880239520968516,,,,,,1099.6223000001905,330,1,1099.6224000000952,330,,,,1103.5659000000953,1104.0649999999998,1103.049,1103.5658000001906,1100.6158000001906,1103.049,1104.0649999999998,1104.5654000000952,1104.5654000000952,1106.6989000000951,1793,1106.6989999999998,4,1106.705100000143,1,28,58,28,1,1.4,0.7,Time
,,158214,001,女,21,2025-06-02_16h29.31.696,Serial_Dependence_U,2023.2.3,Win32,59.880239520968516,,,,,,1106.7052000000476,185,1,1106.7054000000953,185,,,,1110.2657000000477,1110.7651000001429,1109.7489999999998,1110.2657000000477,1107.7154999999998,1109.7489000000953,1110.7651000001429,1111.2652000000476,1111.2652000000476,1113.7984999999999,2134,1113.7986000001429,5,1113.8044000000953,1,29,59,6,1,1,0.7,Time
,,158214,001,女,21,2025-06-02_16h29.31.696,Serial_Dependence_U,2023.2.3,Win32,59.880239520968516,,,,,,1113.8045,302,2,1119.8039000000952,302,s,5.982999999999947,,1123.9323000001907,1124.431600000143,1123.4319000000953,1123.9322000000475,1120.799100000143,1123.4319000000953,1124.4317000000476,1124.9313000001905,1124.9313000001905,1127.5988000001905,2350,1127.5988000001905,5,1127.6049000000953,2,0,60,29,1,1.6,0.7,Time
,,158214,001,女,21,2025-06-02_16h29.31.696,Serial_Dependence_U,2023.2.3,Win32,59.880239520968516,,,,,,1127.605100000143,208,2,1127.6058000001906,208,,,,1131.1822000000475,1131.6817000000476,1130.6654999999998,1131.182100000143,1128.5988000001905,1130.6654999999998,1131.6817000000476,1132.181600000143,1132.1817000000476,1134.2153000001906,1550,1134.2154000000953,5,1134.2212000000475,2,1,61,21,1,1,0.3,Time
,,158214,001,女,21,2025-06-02_16h29.31.696,Serial_Dependence_U,2023.2.3,Win32,59.880239520968516,,,,,,1134.2213000001907,294,2,1134.2214000000952,294,,,,1138.3649999999998,1138.8647000000476,1137.8487000000475,1138.3649999999998,1135.2153000001906,1137.8486000001428,1138.8647000000476,1139.3645,1139.3645,1141.7984000000952,2115,1141.7984999999999,5,1141.8049999999998,2,2,62,19,1,1.6,0.7,Time
,,158214,001,女,21,2025-06-02_16h29.31.696,Serial_Dependence_U,2023.2.3,Win32,59.880239520968516,,,,,,1141.8052000000475,258,2,1141.8052000000475,258,,,,1145.5651000001428,1146.064600000143,1145.048100000143,1145.5649999999998,1142.8151000001428,1145.048100000143,1146.064600000143,1146.5645,1146.564600000143,1148.9149000000953,2000,1148.915,5,1148.921600000143,2,3,63,27,1,1.2,0.7,Time
,,158214,001,女,21,2025-06-02_16h29.31.696,Serial_Dependence_U,2023.2.3,Win32,59.880239520968516,,,,,,1148.9218000001906,141,2,1148.9219000000953,141,,,,1152.8984999999998,1153.3979000000952,1152.3817000000477,1152.8984000000953,1149.915,1152.381600000143,1153.3979000000952,1153.8977000000475,1153.8978000001907,1156.3645,2083,1156.364600000143,5,1156.3729999999998,2,4,64,3,1,1.4,0.3,Time
,,158214,001,女,21,2025-06-02_16h29.31.696,Serial_Dependence_U,2023.2.3,Win32,59.880239520968516,,,,,,1156.3733000001905,229,2,1156.3734000000952,229,,,,1159.9147000000476,1160.4144000000952,1159.3982000000476,1159.9146000001429,1157.3649000000953,1159.398100000143,1160.4144000000952,1160.9144000000952,1160.9144000000952,1163.4478000001907,2111,1163.4479000000952,5,1163.4536000001428,2,5,65,26,1,1,0.7,Time
,,158214,001,女,21,2025-06-02_16h29.31.696,Serial_Dependence_U,2023.2.3,Win32,59.880239520968516,,,,,,1163.4538000001905,174,2,1163.4539000000952,174,,,,1166.9984000000952,1167.4974000000952,1166.4812000000475,1166.9983000001905,1164.4479000000952,1166.4812000000475,1167.4975,1167.997600000143,1167.9977000000476,1170.464600000143,2109,1170.4647000000475,5,1170.470600000143,2,6,66,6,1,1,0.7,Time
,,158214,001,女,21,2025-06-02_16h29.31.696,Serial_Dependence_U,2023.2.3,Win32,59.880239520968516,,,,,,1170.4708000001906,133,2,1170.4708000001906,133,,,,1174.4146000001429,1174.9143000001907,1173.898100000143,1174.4146000001429,1171.464600000143,1173.898100000143,1174.9143000001907,1175.414,1175.414,1178.397600000143,2572,1178.3977000000475,5,1178.4037000000476,2,7,67,28,1,1.4,0.7,Time
,,158214,001,女,21,2025-06-02_16h29.31.696,Serial_Dependence_U,2023.2.3,Win32,59.880239520968516,,,,,,1178.4039000000953,9,2,1178.4039999999998,9,,,,1182.1813000001905,1182.6807000000476,1181.6644000000952,1182.1813000001905,1179.3978000001907,1181.6643000001907,1182.6808000001906,1183.1808000001906,1183.1808000001906,1186.1643000001907,2228,1186.1644999999999,5,1186.1702000000475,2,8,68,22,1,1.2,0.3,Time
,,158214,001,女,21,2025-06-02_16h29.31.696,Serial_Dependence_U,2023.2.3,Win32,59.880239520968516,,,,,,1186.1704000000952,176,2,1186.1705,176,,,,1190.1311000001429,1190.630600000143,1189.6149000000953,1190.1309999999999,1187.1807000000476,1189.6149000000953,1190.630600000143,1191.1307000000475,1191.1307000000475,1191.5307000000475,171,1191.5307000000475,1,1191.537100000143,2,9,69,18,1,1.4,0.7,Time
,,158214,001,女,21,2025-06-02_16h29.31.696,Serial_Dependence_U,2023.2.3,Win32,59.880239520968516,,,,,,1191.5373000001907,24,2,1191.5375,24,,,,1194.914100000143,1195.4136000001429,1194.3977000000475,1194.914100000143,1192.531,1194.397600000143,1195.4136000001429,1195.9138000001906,1195.9138000001906,1198.4974000000952,1983,1198.4975,5,1198.5037000000475,2,10,70,10,1,0.8,0.3,Time
,,158214,001,女,21,2025-06-02_16h29.31.696,Serial_Dependence_U,2023.2.3,Win32,59.880239520968516,,,,,,1198.5039000000952,42,2,1198.5039000000952,42,,,,1202.2473000001905,1202.7468000001907,1201.7309000000953,1202.2473000001905,1199.4974000000952,1201.7308000001906,1202.7468000001907,1203.2471000001428,1203.2471000001428,1205.8974000000953,2249,1205.8974000000953,5,1205.9034000000952,2,11,71,7,1,1.2,0.7,Time
,,158214,001,女,21,2025-06-02_16h29.31.696,Serial_Dependence_U,2023.2.3,Win32,59.880239520968516,,,,,,1205.903600000143,136,2,1205.9037000000476,136,,,,1210.0644000000952,1210.5637000000477,1209.5637000000477,1210.0643000001905,1206.8974000000953,1209.5637000000477,1210.5637000000477,1211.0635,1211.0635,1214.7807000000475,3384,1214.7807000000475,5,1214.7868000001906,2,12,72,14,1,1.6,0.3,Time
,,158214,001,女,21,2025-06-02_16h29.31.696,Serial_Dependence_U,2023.2.3,Win32,59.880239520968516,,,,,,1214.7869000000953,321,2,1214.7869000000953,321,,,,1218.763600000143,1219.2633000001906,1218.2472000000475,1218.7634999999998,1215.7807000000475,1218.2471000001428,1219.2634000000953,1219.763600000143,1219.763600000143,1222.296600000143,2240,1222.2968000001906,5,1222.3027000000475,2,13,73,13,1,1.4,0.3,Time
,,158214,001,女,21,2025-06-02_16h29.31.696,Serial_Dependence_U,2023.2.3,Win32,59.880239520968516,,,,,,1222.3029000000952,53,2,1222.3029999999999,53,,,,1226.4805,1226.9799999999998,1225.9638000001905,1226.4805,1223.2969999999998,1225.9638000001905,1226.9799999999998,1227.4799999999998,1227.480100000143,1230.1634000000952,2450,1230.1634000000952,5,1230.1697000000477,2,14,74,24,1,1.6,0.3,Time
,,158214,001,女,21,2025-06-02_16h29.31.696,Serial_Dependence_U,2023.2.3,Win32,59.880239520968516,,,,,,1230.1699999999998,165,2,1230.1701000001428,165,,,,1233.4969999999998,1233.9964000000953,1232.9967000000477,1233.4969999999998,1231.1637000000476,1232.996600000143,1233.9964000000953,1234.496600000143,1234.496600000143,1236.7465,1873,1236.746600000143,5,1236.7529000000952,2,15,75,15,1,0.8,0.7,Time
,,158214,001,女,21,2025-06-02_16h29.31.696,Serial_Dependence_U,2023.2.3,Win32,59.880239520968516,,,,,,1236.753100000143,306,2,1236.753100000143,306,,,,1240.53,1241.0297000000476,1240.013600000143,1240.5299000000953,1237.7469999999998,1240.013600000143,1241.0298000001906,1241.5297000000476,1241.5297000000476,1244.1464999999998,2240,1244.1466000001428,5,1244.1525,2,16,76,2,1,1.2,0.3,Time
,,158214,001,女,21,2025-06-02_16h29.31.696,Serial_Dependence_U,2023.2.3,Win32,59.880239520968516,,,,,,1244.1527000000476,157,2,1244.1528000001906,157,,,,1248.1467000000475,1248.646100000143,1247.6299000000952,1248.1466000001428,1245.1632000000475,1247.6299000000952,1248.646100000143,1249.146100000143,1249.146100000143,1251.8464000000952,2452,1251.8464000000952,5,1251.8521000001429,2,17,77,23,1,1.4,0.3,Time
,,158214,001,女,21,2025-06-02_16h29.31.696,Serial_Dependence_U,2023.2.3,Win32,59.880239520968516,,,,,,1251.8523000001906,245,2,1251.8524000000953,245,,,,1255.1967000000475,1255.6962000000476,1254.6799000000954,1255.1967000000475,1252.8467000000476,1254.6798000001907,1255.6962000000476,1256.1963000001906,1256.1963000001906,1258.7794000000952,2238,1258.7794999999999,5,1258.785600000143,2,18,78,5,1,0.8,0.7,Time
,,158214,001,女,21,2025-06-02_16h29.31.696,Serial_Dependence_U,2023.2.3,Win32,59.880239520968516,,,,,,1258.7858000001906,328,2,1258.7859000000954,328,,,,1262.1629000000953,1262.6628000001906,1261.6466000001428,1262.1628000001906,1259.78,1261.6466000001428,1262.6628000001906,1263.1628000001906,1263.1629000000953,1265.0959000000953,1602,1265.0959999999998,5,1265.1019000000952,2,19,79,20,1,0.8,0.3,Time
,,158214,001,女,21,2025-06-02_16h29.31.696,Serial_Dependence_U,2023.2.3,Win32,59.880239520968516,,,,,,1265.1021000001429,286,2,1265.1021000001429,286,,,,1268.6464999999998,1269.1459000000953,1268.1298000001907,1268.6464000000954,1266.096100000143,1268.1298000001907,1269.1459000000953,1269.646,1269.646,1272.2794000000952,2317,1272.2794000000952,5,1272.2867000000476,2,20,80,16,1,1,0.7,Time
,,158214,001,女,21,2025-06-02_16h29.31.696,Serial_Dependence_U,2023.2.3,Win32,59.880239520968516,,,,,,1272.2869000000953,122,2,1272.2869999999998,122,,,,1275.629600000143,1276.129,1275.1131000001428,1275.629600000143,1273.2797000000476,1275.1129999999998,1276.129,1276.6292000000476,1276.6292000000476,1278.2629000000952,1317,1278.263,5,1278.2687000000476,2,21,81,25,1,0.8,0.7,Time
,,158214,001,女,21,2025-06-02_16h29.31.696,Serial_Dependence_U,2023.2.3,Win32,59.880239520968516,,,,,,1278.2689999999998,331,2,1278.2689999999998,331,,,,1282.0128000001905,1282.512,1281.4962000000476,1282.0128000001905,1279.263100000143,1281.4962000000476,1282.512,1283.0124999999998,1283.0124999999998,1285.3792000000476,2012,1285.3793000001906,5,1285.3853000001907,2,22,82,17,1,1.2,0.7,Time
,,158214,001,女,21,2025-06-02_16h29.31.696,Serial_Dependence_U,2023.2.3,Win32,59.880239520968516,,,,,,1285.3854999999999,123,2,1285.3856000001429,123,,,,1289.1628000001906,1289.6624000000952,1288.646,1289.1628000001906,1286.379600000143,1288.646,1289.6624000000952,1290.162100000143,1290.162100000143,1292.9627000000476,2416,1292.9628000001906,5,1292.9688000001906,2,23,83,12,1,1.2,0.3,Time
,,158214,001,女,21,2025-06-02_16h29.31.696,Serial_Dependence_U,2023.2.3,Win32,59.880239520968516,,,,,,1292.9689999999998,358,2,1292.9689999999998,358,,,,1296.9293000001906,1297.4287000000475,1296.4127000000476,1296.9292000000476,1293.9789000000953,1296.412600000143,1297.4287000000475,1297.9289000000952,1297.9289999999999,1300.5124000000953,2281,1300.5124999999998,5,1300.5192000000475,2,24,84,8,1,1.4,0.7,Time
,,158214,001,女,21,2025-06-02_16h29.31.696,Serial_Dependence_U,2023.2.3,Win32,59.880239520968516,,,,,,1300.5194000000952,209,2,1300.5194999999999,209,,,,1303.8954999999999,1304.3954000000952,1303.3789000000952,1303.8954999999999,1301.512600000143,1303.3789000000952,1304.3954000000952,1304.8952000000475,1304.8952000000475,1307.228600000143,2037,1307.2287000000476,5,1307.235100000143,2,25,85,0,1,0.8,0.3,Time
,,158214,001,女,21,2025-06-02_16h29.31.696,Serial_Dependence_U,2023.2.3,Win32,59.880239520968516,,,,,,1307.2353000001906,234,2,1307.2354000000953,234,,,,1310.812600000143,1311.3118000001907,1310.2958000001906,1310.8124999999998,1308.2292000000475,1310.2957000000476,1311.3118000001907,1311.811600000143,1311.8117000000475,1314.662100000143,2400,1314.662100000143,5,1314.668600000143,2,26,86,1,1,1,0.3,Time
,,158214,001,女,21,2025-06-02_16h29.31.696,Serial_Dependence_U,2023.2.3,Win32,59.880239520968516,,,,,,1314.6687000000475,184,2,1314.6688000001907,184,,,,1318.245600000143,1318.7451000001429,1317.729100000143,1318.245600000143,1315.662100000143,1317.729100000143,1318.7452000000476,1319.2451000001429,1319.2451000001429,1321.6122000000476,1949,1321.6123000001905,5,1321.618,2,27,87,11,1,1,0.3,Time
,,158214,001,女,21,2025-06-02_16h29.31.696,Serial_Dependence_U,2023.2.3,Win32,59.880239520968516,,,,,,1321.6182000000476,97,2,1321.6183000001906,97,,,,1325.762100000143,1326.2617000000475,1325.2455,1325.762,1322.6119999999999,1325.2454000000953,1326.2617000000475,1326.7617000000475,1326.7617000000475,1329.1287000000475,2049,1329.1288000001907,4,1329.135,2,28,88,9,1,1.6,0.7,Time
,,158214,001,女,21,2025-06-02_16h29.31.696,Serial_Dependence_U,2023.2.3,Win32,59.880239520968516,,,,,,1329.135100000143,3,2,1329.1352000000475,3,,,,1333.3286000001428,1333.8283000001907,1332.812,1333.3286000001428,1330.145,1332.812,1333.8283000001907,1334.3283000001907,1334.3284000000951,1336.9785,2334,1336.978600000143,5,1336.9848000001907,2,29,89,4,1,1.6,0.3,Time
,,158214,001,女,21,2025-06-02_16h29.31.696,Serial_Dependence_U,2023.2.3,Win32,59.880239520968516,,,,,,1336.985,338,3,1399.1166000001429,338,s,62.11459999990461,,1403.0772000000475,1403.5769000000953,1402.5604999999998,1403.0772000000475,1400.1274999999998,1402.5604999999998,1403.5769000000953,1404.0768000001906,1404.0768000001906,1406.244,2084,1406.244100000143,5,1406.2516000001428,3,0,90,28,1,1.4,0.7,Time
,,158214,001,女,21,2025-06-02_16h29.31.696,Serial_Dependence_U,2023.2.3,Win32,59.880239520968516,,,,,,1406.2519000000952,295,3,1406.2527000000475,295,,,,1410.4274999999998,1410.926600000143,1409.910600000143,1410.4274000000953,1407.244,1409.910600000143,1410.926600000143,1411.4269000000952,1411.4269000000952,1415.6273000001906,1817,1415.6274999999998,4,1415.6334000000952,3,1,91,24,1,1.6,0.3,Time
,,158214,001,女,21,2025-06-02_16h29.31.696,Serial_Dependence_U,2023.2.3,Win32,59.880239520968516,,,,,,1415.633600000143,126,3,1415.633600000143,126,,,,1419.4104000000953,1419.9101000001428,1418.8939000000953,1419.4104000000953,1416.6272000000477,1418.8938000001906,1419.9101000001428,1420.4101000001428,1420.4101000001428,1422.893600000143,2167,1422.8937000000476,5,1422.9004000000953,3,2,92,12,1,1.2,0.3,Time
,,158214,001,女,21,2025-06-02_16h29.31.696,Serial_Dependence_U,2023.2.3,Win32,59.880239520968516,,,,,,1422.9005,268,3,1422.900600000143,268,,,,1426.4436000001429,1426.9432000000475,1425.927,1426.4434999999999,1423.8937000000476,1425.9269000000952,1426.9432000000475,1427.4433000001907,1427.4434000000952,1429.7602000000475,1890,1429.7603000001907,5,1429.7665,3,3,93,16,1,1,0.7,Time
,,158214,001,女,21,2025-06-02_16h29.31.696,Serial_Dependence_U,2023.2.3,Win32,59.880239520968516,,,,,,1429.7667000000476,355,3,1429.7668000001906,355,,,,1433.7604000000952,1434.2598000001906,1433.2434000000953,1433.7603000001907,1430.777100000143,1433.2433000001906,1434.2598000001906,1434.7599000000953,1434.7599000000953,1437.293600000143,2188,1437.2937000000475,5,1437.2998000001905,3,4,94,3,1,1.4,0.3,Time
,,158214,001,女,21,2025-06-02_16h29.31.696,Serial_Dependence_U,2023.2.3,Win32,59.880239520968516,,,,,,1437.300100000143,58,3,1437.300100000143,58,,,,1440.6768000001907,1441.176,1440.1603000001905,1440.6768000001907,1438.2935,1440.1602000000476,1441.176,1441.6763000001906,1441.6763000001906,1444.0929999999998,2035,1444.0931000001428,5,1444.0989000000952,3,5,95,20,1,0.8,0.3,Time
,,158214,001,女,21,2025-06-02_16h29.31.696,Serial_Dependence_U,2023.2.3,Win32,59.880239520968516,,,,,,1444.099100000143,17,3,1444.0992000000476,17,,,,1447.8433000001905,1448.3428000001907,1447.3268000001906,1447.8433000001905,1445.0937000000476,1447.3268000001906,1448.3429000000951,1448.8429000000951,1448.8429000000951,1451.0932000000475,1917,1451.0932000000475,5,1451.099,3,6,96,27,1,1.2,0.7,Time
,,158214,001,女,21,2025-06-02_16h29.31.696,Serial_Dependence_U,2023.2.3,Win32,59.880239520968516,,,,,,1451.099100000143,159,3,1451.0992000000476,159,,,,1455.260100000143,1455.7594000000952,1454.7433000001906,1455.260100000143,1452.110100000143,1454.7432000000476,1455.7594000000952,1456.2596000001429,1456.2596000001429,1459.1094000000953,2468,1459.1094999999998,5,1459.116,3,7,97,19,1,1.6,0.7,Time
,,158214,001,女,21,2025-06-02_16h29.31.696,Serial_Dependence_U,2023.2.3,Win32,59.880239520968516,,,,,,1459.1162000000475,100,3,1459.1163000001907,100,,,,1462.8929999999998,1463.3928000001906,1462.3762000000477,1462.8929999999998,1460.1098000001907,1462.3762000000477,1463.3928000001906,1463.8928000001906,1463.8928000001906,1466.743100000143,2533,1466.7432000000476,5,1466.7492000000475,3,8,98,22,1,1.2,0.3,Time
,,158214,001,女,21,2025-06-02_16h29.31.696,Serial_Dependence_U,2023.2.3,Win32,59.880239520968516,,,,,,1466.7494000000952,123,3,1466.7495,123,,,,1470.9263000001906,1471.4259000000952,1470.4097000000477,1470.9262000000476,1467.743100000143,1470.409600000143,1471.4259000000952,1471.9259000000952,1471.926,1481.1927000000476,2149,1481.1928000001906,5,1481.1992000000475,3,9,99,14,1,1.6,0.3,Time
,,158214,001,女,21,2025-06-02_16h29.31.696,Serial_Dependence_U,2023.2.3,Win32,59.880239520968516,,,,,,1481.1994000000952,107,3,1481.1995,107,,,,1484.5594999999998,1485.059100000143,1484.0429000000952,1484.5594000000951,1482.2093000001905,1484.0427000000475,1485.0592000000477,1485.559,1485.559,1487.9422000000475,2082,1487.9424000000952,5,1487.948600000143,3,10,100,25,1,0.8,0.7,Time
,,158214,001,女,21,2025-06-02_16h29.31.696,Serial_Dependence_U,2023.2.3,Win32,59.880239520968516,,,,,,1487.9488000001907,165,3,1487.9489000000951,165,,,,1492.0928000001907,1492.5922000000476,1491.5763000001907,1492.0927000000477,1488.9428000001906,1491.5763000001907,1492.5923000001906,1493.0924000000953,1493.0924000000953,1495.7592000000475,2413,1495.7592000000475,5,1495.7655,3,11,101,9,1,1.6,0.7,Time
,,158214,001,女,21,2025-06-02_16h29.31.696,Serial_Dependence_U,2023.2.3,Win32,59.880239520968516,,,,,,1495.7657000000477,125,3,1495.7657000000477,125,,,,1499.1092000000476,1499.6083000001906,1498.5923000001906,1499.1092000000476,1496.7593000001907,1498.5923000001906,1499.6083000001906,1500.1088000001905,1500.1088000001905,1501.8423000001906,1400,1501.8424000000953,5,1501.8486000001428,3,12,102,15,1,0.8,0.7,Time
,,158214,001,女,21,2025-06-02_16h29.31.696,Serial_Dependence_U,2023.2.3,Win32,59.880239520968516,,,,,,1501.8488000001905,188,3,1501.849,188,,,,1506.025600000143,1506.5253000001906,1505.5092000000475,1506.025600000143,1502.842600000143,1505.509100000143,1506.5253000001906,1507.0251000001429,1507.0251000001429,1509.4087000000475,2069,1509.4088000001907,4,1509.415,3,13,103,4,1,1.6,0.3,Time
,,158214,001,女,21,2025-06-02_16h29.31.696,Serial_Dependence_U,2023.2.3,Win32,59.880239520968516,,,,,,1509.4152000000477,135,3,1509.4152000000477,135,,,,1513.1589999999999,1513.6584999999998,1512.6427000000476,1513.1589000000952,1510.4092000000476,1512.6427000000476,1513.6584999999998,1514.1584999999998,1514.1584999999998,1516.5089999999998,1994,1516.509100000143,5,1516.5149999999999,3,14,104,17,1,1.2,0.7,Time
,,158214,001,女,21,2025-06-02_16h29.31.696,Serial_Dependence_U,2023.2.3,Win32,59.880239520968516,,,,,,1516.5153000001906,140,3,1516.5153000001906,140,,,,1520.0922000000476,1520.5917000000475,1519.5754000000952,1520.0922000000476,1517.5089999999998,1519.5754000000952,1520.5917000000475,1521.091600000143,1521.091600000143,1523.5584000000952,2100,1523.5584999999999,5,1523.5653000001905,3,15,105,11,1,1,0.3,Time
,,158214,001,女,21,2025-06-02_16h29.31.696,Serial_Dependence_U,2023.2.3,Win32,59.880239520968516,,,,,,1523.5655,46,3,1523.5655,46,,,,1527.3253000001905,1527.8247000000476,1526.8084999999999,1527.3253000001905,1524.5752000000475,1526.8084999999999,1527.8247000000476,1528.3247000000476,1528.3247000000476,1530.3417000000475,1734,1530.3417000000475,5,1530.348100000143,3,16,106,7,1,1.2,0.7,Time
,,158214,001,女,21,2025-06-02_16h29.31.696,Serial_Dependence_U,2023.2.3,Win32,59.880239520968516,,,,,,1530.3483000001906,356,3,1530.3484000000954,356,,,,1534.292,1534.7914000000953,1533.7753000001906,1534.2919000000952,1531.3418000001907,1533.7752000000476,1534.7914999999998,1535.2914999999998,1535.2914999999998,1537.6083000001906,1838,1537.6084000000953,5,1537.6142000000475,3,17,107,18,1,1.4,0.7,Time
,,158214,001,女,21,2025-06-02_16h29.31.696,Serial_Dependence_U,2023.2.3,Win32,59.880239520968516,,,,,,1537.6144000000952,258,3,1537.6144000000952,258,,,,1541.3918000001906,1541.8914000000952,1540.875100000143,1541.3918000001906,1538.6082000000476,1540.8749999999998,1541.8914000000952,1542.391600000143,1542.391600000143,1544.841600000143,2134,1544.841600000143,5,1544.849100000143,3,18,108,2,1,1.2,0.3,Time
,,158214,001,女,21,2025-06-02_16h29.31.696,Serial_Dependence_U,2023.2.3,Win32,59.880239520968516,,,,,,1544.8494000000953,357,3,1544.8494000000953,357,,,,1548.7914999999998,1549.2912000000476,1548.2749000000952,1548.7914000000953,1545.8417000000475,1548.2748000001907,1549.2912000000476,1549.7912000000476,1549.7912000000476,1552.2414999999999,2136,1552.2414999999999,5,1552.2475,3,19,109,8,1,1.4,0.7,Time
,,158214,001,女,21,2025-06-02_16h29.31.696,Serial_Dependence_U,2023.2.3,Win32,59.880239520968516,,,,,,1552.247600000143,31,3,1552.2477000000476,31,,,,1556.2249000000952,1556.724100000143,1555.7084000000953,1556.2248000001907,1553.2419000000953,1555.7084000000953,1556.724100000143,1557.2244999999998,1557.2244999999998,1559.6413000001905,2057,1559.6413000001905,5,1559.6472000000476,3,20,110,13,1,1.4,0.3,Time
,,158214,001,女,21,2025-06-02_16h29.31.696,Serial_Dependence_U,2023.2.3,Win32,59.880239520968516,,,,,,1559.6474999999998,251,3,1559.6474999999998,251,,,,1563.1914000000952,1563.691100000143,1562.6749000000952,1563.1913000001907,1560.641600000143,1562.6749000000952,1563.691100000143,1564.191100000143,1564.191100000143,1566.1247000000476,1650,1566.1247000000476,5,1566.1304000000953,3,21,111,6,1,1,0.7,Time
,,158214,001,女,21,2025-06-02_16h29.31.696,Serial_Dependence_U,2023.2.3,Win32,59.880239520968516,,,,,,1566.1307000000475,265,3,1566.1307000000475,265,,,,1569.4579999999999,1569.957600000143,1568.9578000001907,1569.4579999999999,1567.1249999999998,1568.9577000000475,1569.957600000143,1570.4577000000475,1570.4577000000475,1571.6913000001907,852,1571.6914000000952,4,1571.6971000001429,3,22,112,5,1,0.8,0.7,Time
,,158214,001,女,21,2025-06-02_16h29.31.696,Serial_Dependence_U,2023.2.3,Win32,59.880239520968516,,,,,,1571.6973000001906,220,3,1571.6974000000953,220,,,,1575.2247000000475,1575.724100000143,1574.7243000001906,1575.2247000000475,1572.691100000143,1574.7242000000476,1575.724100000143,1576.224100000143,1576.224100000143,1578.1742000000477,1604,1578.1742000000477,5,1578.1804000000952,3,23,113,26,1,1,0.7,Time
,,158214,001,女,21,2025-06-02_16h29.31.696,Serial_Dependence_U,2023.2.3,Win32,59.880239520968516,,,,,,1578.180600000143,200,3,1578.180600000143,200,,,,1581.5575,1582.0569999999998,1581.041,1581.5575,1579.1744999999999,1581.041,1582.0569999999998,1582.5569999999998,1582.5569999999998,1587.9907000000476,1486,1587.9907000000476,5,1587.9973000001905,3,24,114,10,1,0.8,0.3,Time
,,158214,001,女,21,2025-06-02_16h29.31.696,Serial_Dependence_U,2023.2.3,Win32,59.880239520968516,,,,,,1587.9975,245,3,1587.9975,245,,,,1591.5742000000475,1592.0739000000951,1591.0577000000476,1591.5741000001428,1588.991100000143,1591.0577000000476,1592.0739000000951,1592.5739999999998,1592.5739999999998,1595.2238000001905,2190,1595.2239000000952,5,1595.2297000000476,3,25,115,1,1,1,0.3,Time
,,158214,001,女,21,2025-06-02_16h29.31.696,Serial_Dependence_U,2023.2.3,Win32,59.880239520968516,,,,,,1595.2299999999998,117,3,1595.230100000143,117,,,,1598.6076000001428,1599.107,1598.091,1598.6076000001428,1596.224,1598.0909000000952,1599.107100000143,1599.6069000000953,1599.6069000000953,1601.8239999999998,1987,1601.8241000001428,5,1601.830600000143,3,26,116,0,1,0.8,0.3,Time
,,158214,001,女,21,2025-06-02_16h29.31.696,Serial_Dependence_U,2023.2.3,Win32,59.880239520968516,,,,,,1601.8308000001907,233,3,1601.831,233,,,,1605.807100000143,1606.3069000000953,1605.2907000000475,1605.8069999999998,1602.8242000000475,1605.2906000001428,1606.3069000000953,1606.8069000000953,1606.8069000000953,1609.857,2439,1609.857100000143,5,1609.8633000001905,3,27,117,23,1,1.4,0.3,Time
,,158214,001,女,21,2025-06-02_16h29.31.696,Serial_Dependence_U,2023.2.3,Win32,59.880239520968516,,,,,,1609.8635,186,3,1609.863600000143,186,,,,1613.9907000000476,1614.4906000001429,1613.4904999999999,1613.9906000001429,1610.8573000001907,1613.4904000000952,1614.4908000001906,1614.9903000001907,1614.9903000001907,1617.7908000001905,2393,1617.7908000001905,5,1617.7972000000475,3,28,118,29,1,1.6,0.7,Time
,,158214,001,女,21,2025-06-02_16h29.31.696,Serial_Dependence_U,2023.2.3,Win32,59.880239520968516,,,,,,1617.7974000000952,269,3,1617.7974000000952,269,,,,1621.3738000001906,1621.873100000143,1620.8572000000477,1621.3737000000476,1618.7907000000475,1620.8572000000477,1621.873100000143,1622.3732000000475,1622.3732000000475,1624.5238000001907,1849,1624.5239000000952,5,1624.53,3,29,119,21,1,1,0.3,Time
,,158214,001,女,21,2025-06-02_16h29.31.696,Serial_Dependence_U,2023.2.3,Win32,59.880239520968516,,,,,,1624.530100000143,147,4,1630.8809000000952,147,s,6.3292999999523545,,1634.8621000001428,1635.3567000000476,1634.3462000000475,1634.8621000001428,1631.8794000000953,1634.346100000143,1635.3568000001906,1635.8564000000952,1635.8564999999999,1638.6304000000953,2401,1638.6305,5,1638.6358000001906,4,0,120,23,1,1.4,0.3,Time
,,158214,001,女,21,2025-06-02_16h29.31.696,Serial_Dependence_U,2023.2.3,Win32,59.880239520968516,,,,,,1638.636100000143,21,4,1638.6367000000475,21,,,,1642.3799000000952,1642.8732000000475,1641.8794999999998,1642.3799000000952,1639.6462000000477,1641.8794999999998,1642.8733000001905,1643.373100000143,1643.373100000143,1646.0802000000476,2384,1646.0803000001906,5,1646.0858000001906,4,1,121,27,1,1.2,0.7,Time
,,158214,001,女,21,2025-06-02_16h29.31.696,Serial_Dependence_U,2023.2.3,Win32,59.880239520968516,,,,,,1646.086100000143,320,4,1646.0862000000475,320,,,,1650.0628000001907,1650.556100000143,1649.5624000000953,1650.0628000001907,1647.095600000143,1649.5624000000953,1650.5562000000475,1651.0559999999998,1651.056100000143,1653.713100000143,2183,1653.7132000000477,5,1653.7187000000476,4,2,122,3,1,1.4,0.3,Time
,,158214,001,女,21,2025-06-02_16h29.31.696,Serial_Dependence_U,2023.2.3,Win32,59.880239520968516,,,,,,1653.7188000001906,82,4,1653.7189000000953,82,,,,1657.4959999999999,1657.9897000000476,1656.995600000143,1657.4959999999999,1654.7294000000952,1656.995600000143,1657.9898000001906,1658.494100000143,1658.4942000000476,1661.046100000143,2166,1661.046100000143,5,1661.0512000000476,4,3,123,12,1,1.2,0.3,Time
,,158214,001,女,21,2025-06-02_16h29.31.696,Serial_Dependence_U,2023.2.3,Win32,59.880239520968516,,,,,,1661.0514000000953,188,4,1661.0514999999998,188,,,,1665.1793000001906,1665.6728000001906,1664.6788000001907,1665.1792000000476,1662.0459000000953,1664.6788000001907,1665.6728000001906,1666.1723000001907,1666.1723000001907,1669.6301000001429,2884,1669.6302000000476,5,1669.6357000000476,4,4,124,29,1,1.6,0.7,Time
,,158214,001,女,21,2025-06-02_16h29.31.696,Serial_Dependence_U,2023.2.3,Win32,59.880239520968516,,,,,,1669.636,172,4,1669.636,172,,,,1673.2137000000475,1673.7054999999998,1672.7123000001907,1673.2136000001428,1670.6454000000952,1672.7123000001907,1673.7054999999998,1674.2058000001907,1674.2059000000952,1676.9965,2450,1676.9965,5,1677.002,4,5,125,11,1,1,0.3,Time
,,158214,001,女,21,2025-06-02_16h29.31.696,Serial_Dependence_U,2023.2.3,Win32,59.880239520968516,,,,,,1677.0022000000477,323,4,1677.0023000001906,323,,,,1680.3789000000952,1680.8728000001906,1679.8733000001905,1680.3789000000952,1678.0069999999998,1679.8732000000475,1680.8729000000953,1681.3723000001905,1681.3723000001905,1683.6798000001907,1818,1683.6799000000954,5,1683.685100000143,4,6,126,20,1,0.8,0.3,Time
,,158214,001,女,21,2025-06-02_16h29.31.696,Serial_Dependence_U,2023.2.3,Win32,59.880239520968516,,,,,,1683.6853000001906,158,4,1683.6854999999998,158,,,,1687.2453000001906,1687.7389999999998,1686.7285,1687.2452000000476,1684.6903000001905,1686.7284000000952,1687.739100000143,1688.227600000143,1688.2277000000477,1690.9292000000476,2350,1690.9293000001906,5,1690.9347000000475,4,7,127,26,1,1,0.7,Time
,,158214,001,女,21,2025-06-02_16h29.31.696,Serial_Dependence_U,2023.2.3,Win32,59.880239520968516,,,,,,1690.9349000000952,135,4,1690.935,135,,,,1694.7122000000475,1695.205600000143,1694.2119000000953,1694.7122000000475,1691.9434999999999,1694.2118000001906,1695.205600000143,1695.7059000000952,1695.7059000000952,1698.0957000000476,1983,1698.0958000001906,5,1698.1015,4,8,128,22,1,1.2,0.3,Time
,,158214,001,女,21,2025-06-02_16h29.31.696,Serial_Dependence_U,2023.2.3,Win32,59.880239520968516,,,,,,1698.1017000000475,317,4,1698.1018000001907,317,,,,1701.8452000000475,1702.3386000001428,1701.3439999999998,1701.845100000143,1699.1115,1701.3439000000953,1702.3387000000475,1702.8384999999998,1702.8384999999998,1705.3127000000475,2101,1705.3128000001907,5,1705.3184000000952,4,9,129,17,1,1.2,0.7,Time
,,158214,001,女,21,2025-06-02_16h29.31.696,Serial_Dependence_U,2023.2.3,Win32,59.880239520968516,,,,,,1705.3186000001429,33,4,1705.3187000000476,33,,,,1709.2755,1709.772100000143,1708.7613000001907,1709.2755,1706.3283000001907,1708.7612000000477,1709.7723000001906,1710.272,1710.272100000143,1713.4287000000475,2600,1713.4288000001907,5,1713.4354999999998,4,10,130,28,1,1.4,0.7,Time
,,158214,001,女,21,2025-06-02_16h29.31.696,Serial_Dependence_U,2023.2.3,Win32,59.880239520968516,,,,,,1713.4357000000475,103,4,1713.4358000001905,103,,,,1717.212,1717.705,1716.7115,1717.2119000000953,1714.4447000000475,1716.7115,1717.705100000143,1718.205,1718.205100000143,1720.9789999999998,2334,1720.9789999999998,5,1720.9843000001906,4,11,131,2,1,1.2,0.3,Time
,,158214,001,女,21,2025-06-02_16h29.31.696,Serial_Dependence_U,2023.2.3,Win32,59.880239520968516,,,,,,1720.9844000000953,221,4,1720.9844999999998,221,,,,1724.361600000143,1724.8549000000953,1723.8613000001906,1724.361600000143,1721.9948000001907,1723.8613000001906,1724.8549999999998,1725.3554000000952,1725.3555,1727.6292000000476,1818,1727.6292000000476,5,1727.6346000001429,4,12,132,10,1,0.8,0.3,Time
,,158214,001,女,21,2025-06-02_16h29.31.696,Serial_Dependence_U,2023.2.3,Win32,59.880239520968516,,,,,,1727.6347000000476,126,4,1727.6347000000476,126,,,,1731.828,1732.322,1731.3113000001906,1731.828,1728.6448000001906,1731.3112000000476,1732.3221000001429,1732.8219000000952,1732.8222000000476,1733.3283000001907,167,1733.3283000001907,1,1733.3335,4,13,133,24,1,1.6,0.3,Time
,,158214,001,女,21,2025-06-02_16h29.31.696,Serial_Dependence_U,2023.2.3,Win32,59.880239520968516,,,,,,1733.3337000000477,313,4,1733.3337000000477,313,,,,1736.6614000000952,1737.1549000000953,1736.1609999999998,1736.6614000000952,1734.3276000001429,1736.1609000000954,1737.155100000143,1737.6547000000476,1737.6549000000953,1739.8284000000951,1750,1739.8284999999998,5,1739.8344000000952,4,14,134,5,1,0.8,0.7,Time
,,158214,001,女,21,2025-06-02_16h29.31.696,Serial_Dependence_U,2023.2.3,Win32,59.880239520968516,,,,,,1739.834600000143,349,4,1739.8347000000476,349,,,,1743.4283000001906,1743.9215,1742.9059000000952,1743.4282000000476,1740.8414999999998,1742.9058000001905,1743.921600000143,1744.4209999999998,1744.4209999999998,1746.6946000001428,1950,1746.6947000000475,5,1746.7008000001906,4,15,135,21,1,1,0.3,Time
,,158214,001,女,21,2025-06-02_16h29.31.696,Serial_Dependence_U,2023.2.3,Win32,59.880239520968516,,,,,,1746.7009999999998,190,4,1746.701100000143,190,,,,1750.1112000000476,1750.604600000143,1749.5942000000475,1750.1111000001429,1747.7112000000475,1749.5942000000475,1750.604600000143,1751.1044000000952,1751.1044000000952,1753.428600000143,2017,1753.428600000143,5,1753.4348000001905,4,16,136,0,1,0.8,0.3,Time
,,158214,001,女,21,2025-06-02_16h29.31.696,Serial_Dependence_U,2023.2.3,Win32,59.880239520968516,,,,,,1753.435,10,4,1753.435,10,,,,1757.394100000143,1757.8873000001906,1756.8764999999999,1757.394100000143,1754.444,1756.8764999999999,1757.8874000000953,1758.3902000000476,1758.3902000000476,1761.0441000001429,2350,1761.0442000000476,5,1761.0496000001428,4,17,137,8,1,1.4,0.7,Time
,,158214,001,女,21,2025-06-02_16h29.31.696,Serial_Dependence_U,2023.2.3,Win32,59.880239520968516,,,,,,1761.0498000001905,108,4,1761.0498000001905,108,,,,1765.227600000143,1765.7212000000475,1764.7109000000953,1765.2274000000953,1762.0443000001906,1764.7109000000953,1765.7213000001907,1766.2212000000475,1766.2213000001907,1769.2108000001906,2617,1769.2109000000953,5,1769.216100000143,4,18,138,4,1,1.6,0.3,Time
,,158214,001,女,21,2025-06-02_16h29.31.696,Serial_Dependence_U,2023.2.3,Win32,59.880239520968516,,,,,,1769.2163000001906,105,4,1769.2164000000953,105,,,,1772.5612000000476,1773.0539999999999,1772.0437000000475,1772.5612000000476,1770.2105,1772.0437000000475,1773.0539999999999,1773.5545,1773.5545,1776.8272000000475,2667,1776.8274000000952,5,1776.832600000143,4,19,139,15,1,0.8,0.7,Time
,,158214,001,女,21,2025-06-02_16h29.31.696,Serial_Dependence_U,2023.2.3,Win32,59.880239520968516,,,,,,1776.8328000001907,114,4,1776.8329000000952,114,,,,1780.177100000143,1780.6709000000953,1779.6604000000953,1780.177,1777.8269000000953,1779.6604000000953,1780.6709999999998,1781.1703000001905,1781.1703000001905,1783.694100000143,2167,1783.694100000143,5,1783.6995,4,20,140,25,1,0.8,0.7,Time
,,158214,001,女,21,2025-06-02_16h29.31.696,Serial_Dependence_U,2023.2.3,Win32,59.880239520968516,,,,,,1783.6997000000476,208,4,1783.6997000000476,208,,,,1787.6939000000953,1788.1873000001906,1787.1772000000476,1787.6938000001905,1784.710100000143,1787.177100000143,1788.1873000001906,1788.6873000001906,1788.6873000001906,1791.6778000001907,2650,1791.6778000001907,5,1791.683,4,21,141,13,1,1.4,0.3,Time
,,158214,001,女,21,2025-06-02_16h29.31.696,Serial_Dependence_U,2023.2.3,Win32,59.880239520968516,,,,,,1791.6832000000475,77,4,1791.6832000000475,77,,,,1795.8434000000952,1796.3374000000952,1795.3269000000953,1795.8434000000952,1792.6939000000953,1795.3268000001906,1796.3374000000952,1796.8372000000475,1796.8374000000952,1799.8609000000952,2734,1799.8609999999999,5,1799.8663000001907,4,22,142,9,1,1.6,0.7,Time
,,158214,001,女,21,2025-06-02_16h29.31.696,Serial_Dependence_U,2023.2.3,Win32,59.880239520968516,,,,,,1799.8664000000952,334,4,1799.8664999999999,334,,,,1803.8267000000476,1804.321,1803.3103000001906,1803.826600000143,1800.8769000000952,1803.3102000000476,1804.321100000143,1804.8207000000475,1804.8208000001907,1807.8602000000476,2667,1807.8603000001906,5,1807.8656000001429,4,23,143,18,1,1.4,0.7,Time
,,158214,001,女,21,2025-06-02_16h29.31.696,Serial_Dependence_U,2023.2.3,Win32,59.880239520968516,,,,,,1807.8657000000476,11,4,1807.8658000001906,11,,,,1812.0269000000953,1812.5204000000952,1811.5265,1812.0269000000953,1808.8597000000475,1811.5264000000952,1812.5204000000952,1813.0202000000475,1813.0204000000952,1816.0108000001906,2684,1816.0108000001906,5,1816.0161000001428,4,24,144,14,1,1.6,0.3,Time
,,158214,001,女,21,2025-06-02_16h29.31.696,Serial_Dependence_U,2023.2.3,Win32,59.880239520968516,,,,,,1816.0164000000952,232,4,1816.0164000000952,232,,,,1820.1569000000952,1820.6532000000475,1819.6427000000476,1820.1568000001905,1817.010100000143,1819.642600000143,1820.6532000000475,1821.1534000000952,1821.1534000000952,1824.4279999999999,2967,1824.4281000001429,5,1824.4332000000475,4,25,145,19,1,1.6,0.7,Time
,,158214,001,女,21,2025-06-02_16h29.31.696,Serial_Dependence_U,2023.2.3,Win32,59.880239520968516,,,,,,1824.4334000000952,85,4,1824.4334999999999,85,,,,1828.1928000001906,1828.693100000143,1827.676100000143,1828.1927000000476,1825.4429000000953,1827.676100000143,1828.6932000000475,1829.1864000000953,1829.1864999999998,1831.6435,2100,1831.643600000143,5,1831.6488000001907,4,26,146,7,1,1.2,0.7,Time
,,158214,001,女,21,2025-06-02_16h29.31.696,Serial_Dependence_U,2023.2.3,Win32,59.880239520968516,,,,,,1831.649,144,4,1831.6491000001429,144,,,,1835.2093000001905,1835.7029000000953,1834.693,1835.2093000001905,1832.6544999999999,1834.693,1835.703,1836.2032000000477,1836.2032000000477,1838.4437000000476,1684,1838.4438000001905,5,1838.4488000001907,4,27,147,16,1,1,0.7,Time
,,158214,001,女,21,2025-06-02_16h29.31.696,Serial_Dependence_U,2023.2.3,Win32,59.880239520968516,,,,,,1838.4489999999998,84,4,1838.4492000000475,84,,,,1842.0258000001907,1842.5193000001907,1841.5249999999999,1842.0258000001907,1839.4593000001905,1841.5249999999999,1842.5194000000952,1843.02,1843.020100000143,1845.7767000000476,2434,1845.7767000000476,5,1845.7823000001906,4,28,148,1,1,1,0.3,Time
,,158214,001,女,21,2025-06-02_16h29.31.696,Serial_Dependence_U,2023.2.3,Win32,59.880239520968516,,,,,,1845.782600000143,188,4,1845.782600000143,188,,,,1849.326600000143,1849.82,1848.8258000001906,1849.3265,1846.7924000000953,1848.8258000001906,1849.82,1850.32,1850.320100000143,1852.4765,1817,1852.4765,5,1852.4818000001906,4,29,149,6,1,1,0.7,Time
,,158214,001,女,21,2025-06-02_16h29.31.696,Serial_Dependence_U,2023.2.3,Win32,59.880239520968516,,,,,,1852.482,4,5,1855.2532000000476,4,s,2.7569999999998345,,1859.204,1859.7028000001906,1858.693,1859.204,1856.2595,1858.693,1859.7028000001906,1860.2029000000953,1860.203,1862.6919999999998,2133,1862.6922000000475,5,1862.6979000000952,5,0,150,18,1,1.4,0.7,Time
,,158214,001,女,21,2025-06-02_16h29.31.696,Serial_Dependence_U,2023.2.3,Win32,59.880239520968516,,,,,,1862.6979999999999,233,5,1862.698600000143,233,,,,1866.0423000001906,1866.5361000001428,1865.542100000143,1866.0423000001906,1863.7094000000952,1865.542,1866.5361000001428,1867.0359999999998,1867.0359999999998,1869.6598000001907,2150,1869.6598000001907,5,1869.6654000000954,5,1,151,25,1,0.8,0.7,Time
,,158214,001,女,21,2025-06-02_16h29.31.696,Serial_Dependence_U,2023.2.3,Win32,59.880239520968516,,,,,,1869.6654999999998,98,5,1869.6656000001428,98,,,,1873.6589000000952,1874.1527000000476,1873.142100000143,1873.6589000000952,1870.6752000000477,1873.142100000143,1874.1528000001906,1874.6529000000953,1874.6529999999998,1877.6266000001428,2584,1877.6267000000475,5,1877.6318000001907,5,2,152,13,1,1.4,0.3,Time
,,158214,001,女,21,2025-06-02_16h29.31.696,Serial_Dependence_U,2023.2.3,Win32,59.880239520968516,,,,,,1877.6319999999998,253,5,1877.6319999999998,253,,,,1881.809100000143,1882.302600000143,1881.3088000001906,1881.809100000143,1878.6423000001905,1881.3086000001429,1882.3027000000475,1882.8024000000953,1882.8024000000953,1885.8589000000952,2733,1885.859,5,1885.8643000001907,5,3,153,14,1,1.6,0.3,Time
,,158214,001,女,21,2025-06-02_16h29.31.696,Serial_Dependence_U,2023.2.3,Win32,59.880239520968516,,,,,,1885.8645,322,5,1885.8645,322,,,,1889.8089000000953,1890.3023000001906,1889.2923000001906,1889.8089000000953,1886.858600000143,1889.2923000001906,1890.3024000000953,1890.8023000001906,1890.8024000000953,1893.3249000000953,2233,1893.3249999999998,5,1893.3302000000476,5,4,154,28,1,1.4,0.7,Time
,,158214,001,女,21,2025-06-02_16h29.31.696,Serial_Dependence_U,2023.2.3,Win32,59.880239520968516,,,,,,1893.3304000000953,213,5,1893.3304000000953,213,,,,1896.9083000001906,1897.4022000000475,1896.3922000000475,1896.9082000000476,1894.3262000000475,1896.3922000000475,1897.4022000000475,1897.9022000000475,1897.9022000000475,1900.309,1916,1900.309,5,1900.3142000000475,5,5,155,11,1,1,0.3,Time
,,158214,001,女,21,2025-06-02_16h29.31.696,Serial_Dependence_U,2023.2.3,Win32,59.880239520968516,,,,,,1900.3143000001905,295,5,1900.3144000000952,295,,,,1904.4583000001905,1904.9527000000476,1903.9419000000953,1904.4582000000476,1901.3084999999999,1903.9418000001906,1904.9528000001906,1905.451600000143,1905.451600000143,1908.0418000001905,2249,1908.0419000000952,5,1908.0475,5,6,156,29,1,1.6,0.7,Time
,,158214,001,女,21,2025-06-02_16h29.31.696,Serial_Dependence_U,2023.2.3,Win32,59.880239520968516,,,,,,1908.047600000143,130,5,1908.0477000000476,130,,,,1911.5912000000476,1912.0853000001907,1911.074600000143,1911.591100000143,1909.0414000000953,1911.074600000143,1912.0854000000952,1912.5849000000953,1912.5849999999998,1914.8265,1934,1914.8265,5,1914.8318000001907,5,7,157,16,1,1,0.7,Time
,,158214,001,女,21,2025-06-02_16h29.31.696,Serial_Dependence_U,2023.2.3,Win32,59.880239520968516,,,,,,1914.8319000000952,223,5,1914.8319999999999,223,,,,1918.1915,1918.685600000143,1917.6749000000952,1918.1915,1915.8407000000475,1917.6749000000952,1918.685600000143,1919.1852000000476,1919.1852000000476,1921.458600000143,1901,1921.4587000000477,5,1921.4642000000476,5,8,158,5,1,0.8,0.7,Time
,,158214,001,女,21,2025-06-02_16h29.31.696,Serial_Dependence_U,2023.2.3,Win32,59.880239520968516,,,,,,1921.4644000000953,213,5,1921.4644999999998,213,,,,1925.0527000000475,1925.5518000001907,1924.5413000001906,1925.052600000143,1922.475100000143,1924.5413000001906,1925.5518000001907,1926.0519000000952,1926.052,1928.5749000000953,2216,1928.5749999999998,5,1928.5802000000476,5,9,159,21,1,1,0.3,Time
,,158214,001,女,21,2025-06-02_16h29.31.696,Serial_Dependence_U,2023.2.3,Win32,59.880239520968516,,,,,,1928.5804000000953,229,5,1928.5804999999998,229,,,,1932.3525,1932.8517000000475,1931.8419999999999,1932.3525,1929.574600000143,1931.8419000000952,1932.8518000001907,1933.3512000000476,1933.3513000001906,1936.4253000001906,2666,1936.4254000000954,5,1936.4308000001906,5,10,160,2,1,1.2,0.3,Time
,,158214,001,女,21,2025-06-02_16h29.31.696,Serial_Dependence_U,2023.2.3,Win32,59.880239520968516,,,,,,1936.4309999999998,311,5,1936.4309999999998,311,,,,1940.191600000143,1940.6847000000475,1939.691100000143,1940.1915,1937.4244000000951,1939.6909000000953,1940.6848000001905,1941.1852000000476,1941.1852000000476,1943.658600000143,2283,1943.6587000000475,5,1943.6643000001907,5,11,161,12,1,1.2,0.3,Time
,,158214,001,女,21,2025-06-02_16h29.31.696,Serial_Dependence_U,2023.2.3,Win32,59.880239520968516,,,,,,1943.6644999999999,352,5,1943.6646000001429,352,,,,1947.0576000001429,1947.551,1946.541,1947.0576000001429,1944.674100000143,1946.541,1947.551,1948.051,1948.051,1950.9581000001428,2534,1950.9581000001428,5,1950.9632000000477,5,12,162,10,1,0.8,0.3,Time
,,158214,001,女,21,2025-06-02_16h29.31.696,Serial_Dependence_U,2023.2.3,Win32,59.880239520968516,,,,,,1950.9634000000954,325,5,1950.9634000000954,325,,,,1954.7073000001906,1955.2014000000952,1954.1907000000476,1954.7072000000476,1951.9575,1954.1907000000476,1955.2015,1955.7013000001907,1955.7014000000952,1958.7248000001907,2700,1958.7249000000954,5,1958.7301000001428,5,13,163,27,1,1.2,0.7,Time
,,158214,001,女,21,2025-06-02_16h29.31.696,Serial_Dependence_U,2023.2.3,Win32,59.880239520968516,,,,,,1958.7303000001905,160,5,1958.7303000001905,160,,,,1962.4738000001905,1962.968,1961.9579000000952,1962.4738000001905,1959.7242000000476,1961.9578000001904,1962.968100000143,1963.4679000000954,1963.468,1966.0409000000952,2267,1966.0409000000952,5,1966.046100000143,5,14,164,7,1,1.2,0.7,Time
,,158214,001,女,21,2025-06-02_16h29.31.696,Serial_Dependence_U,2023.2.3,Win32,59.880239520968516,,,,,,1966.0462000000477,221,5,1966.0464000000954,221,,,,1970.2236000001428,1970.718,1969.7074999999998,1970.2236000001428,1967.0406000001428,1969.7073000001908,1970.718100000143,1971.218,1971.218100000143,1974.325100000143,2785,1974.3252000000477,5,1974.3304999999998,5,15,165,24,1,1.6,0.3,Time
,,158214,001,女,21,2025-06-02_16h29.31.696,Serial_Dependence_U,2023.2.3,Win32,59.880239520968516,,,,,,1974.3306000001428,284,5,1974.3306000001428,284,,,,1977.9235,1978.417400000095,1977.4073000001906,1977.9235,1975.3377000000476,1977.4072000000476,1978.4174999999998,1978.9174999999998,1978.9176000001428,1981.7408000001908,2483,1981.740900000095,5,1981.7464000000953,5,16,166,1,1,1,0.3,Time
,,158214,001,女,21,2025-06-02_16h29.31.696,Serial_Dependence_U,2023.2.3,Win32,59.880239520968516,,,,,,1981.746600000143,292,5,1981.746600000143,292,,,,1985.1404999999997,1985.6338000001908,1984.624,1985.140400000095,1982.7571000001428,1984.6239000000953,1985.6338000001908,1986.1343000001905,1986.1343000001905,1988.8578000001905,2367,1988.8578000001905,5,1988.8636000001432,5,17,167,0,1,0.8,0.3,Time
,,158214,001,女,21,2025-06-02_16h29.31.696,Serial_Dependence_U,2023.2.3,Win32,59.880239520968516,,,,,,1988.8637000000474,266,5,1988.8638000001904,266,,,,1992.2568000001904,1992.7502000000475,1991.740600000143,1992.2568000001904,1989.8734000000952,1991.740600000143,1992.7502000000475,1993.2504999999999,1993.2504999999999,1995.4246000001428,1799,1995.4246000001428,5,1995.4297000000477,5,18,168,20,1,0.8,0.3,Time
,,158214,001,女,21,2025-06-02_16h29.31.696,Serial_Dependence_U,2023.2.3,Win32,59.880239520968516,,,,,,1995.4299000000954,14,5,1995.4299000000954,14,,,,1999.590100000143,2000.0843000001908,1999.073400000095,1999.59,1996.4404000000952,1999.0732000000478,2000.0844000000955,2000.5838000001906,2000.5838000001906,2003.0578000001908,2134,2003.0578000001908,5,2003.0629000000952,5,19,169,19,1,1.6,0.7,Time
,,158214,001,女,21,2025-06-02_16h29.31.696,Serial_Dependence_U,2023.2.3,Win32,59.880239520968516,,,,,,2003.0631000001429,25,5,2003.0632000000476,25,,,,2006.423100000143,2006.9173000001908,2005.907100000143,2006.423100000143,2004.0734999999997,2005.907,2006.9174999999998,2007.4173000001908,2007.417400000095,2009.7737000000477,1860,2009.7738000001907,5,2009.778900000095,5,20,170,15,1,0.8,0.7,Time
,,158214,001,女,21,2025-06-02_16h29.31.696,Serial_Dependence_U,2023.2.3,Win32,59.880239520968516,,,,,,2009.7791000001428,100,5,2009.7791000001428,100,,,,2013.7228000001908,2014.2169000000952,2013.2059000000952,2013.7227000000478,2010.7735,2013.2058000001905,2014.2169999999999,2014.7167000000475,2014.7168000001905,2015.1577000000477,1,2015.1578000001907,1,2015.162900000095,5,21,171,8,1,1.4,0.7,Time
,,158214,001,女,21,2025-06-02_16h29.31.696,Serial_Dependence_U,2023.2.3,Win32,59.880239520968516,,,,,,2015.1631000001428,3,5,2015.1631000001428,3,,,,2019.1557000000478,2019.6499999999999,2018.6402000000473,2019.1557000000478,2016.1732000000477,2018.6402000000473,2019.6499999999999,2020.1505,2020.1505,2022.6174000000954,1973,2022.617600000143,5,2022.623600000143,5,22,172,23,1,1.4,0.3,Time
,,158214,001,女,21,2025-06-02_16h29.31.696,Serial_Dependence_U,2023.2.3,Win32,59.880239520968516,,,,,,2022.6238000001906,175,5,2022.6239000000953,175,,,,2026.5896000001428,2027.0835,2026.0889999999997,2026.5894999999998,2023.6227000000474,2026.0889999999997,2027.083600000143,2027.5832000000476,2027.5832000000476,2030.5737000000474,2684,2030.5738000001904,5,2030.579100000143,5,23,173,3,1,1.4,0.3,Time
,,158214,001,女,21,2025-06-02_16h29.31.696,Serial_Dependence_U,2023.2.3,Win32,59.880239520968516,,,,,,2030.5792000000476,277,5,2030.5793000001906,277,,,,2034.3722000000478,2034.8663000001904,2033.8564000000954,2034.372100000143,2031.5894999999998,2033.8564000000954,2034.8663000001904,2035.3672000000477,2035.3673000001907,2036.1068000001908,434,2036.1068000001908,1,2036.1119999999999,5,24,174,22,1,1.2,0.3,Time
,,158214,001,女,21,2025-06-02_16h29.31.696,Serial_Dependence_U,2023.2.3,Win32,59.880239520968516,,,,,,2036.1122000000476,83,5,2036.1123000001905,83,,,,2040.289900000095,2040.7831000001431,2039.7894000000954,2040.2898000001908,2037.1227000000474,2039.7894000000954,2040.7832000000474,2041.2832000000474,2041.2832000000474,2044.6074000000951,2817,2044.6074999999998,5,2044.6128000001906,5,25,175,4,1,1.6,0.3,Time
,,158214,001,女,21,2025-06-02_16h29.31.696,Serial_Dependence_U,2023.2.3,Win32,59.880239520968516,,,,,,2044.613,248,5,2044.613,248,,,,2048.172600000143,2048.6665000000003,2047.6561000001427,2048.172600000143,2045.6224000000955,2047.6559999999997,2048.6666000001433,2049.1665000000003,2049.1665000000003,2052.123800000191,2451,2052.1239000000955,5,2052.1292000000476,5,26,176,26,1,1,0.7,Time
,,158214,001,女,21,2025-06-02_16h29.31.696,Serial_Dependence_U,2023.2.3,Win32,59.880239520968516,,,,,,2052.129300000191,286,5,2052.129300000191,286,,,,2055.8837000000476,2056.3825,2055.3729000000953,2055.8836000001434,2053.139200000048,2055.3728000001906,2056.382600000143,2056.8830000000003,2056.8830000000003,2059.6234000000954,2434,2059.623600000143,5,2059.629300000191,5,27,177,17,1,1.2,0.7,Time
,,158214,001,女,21,2025-06-02_16h29.31.696,Serial_Dependence_U,2023.2.3,Win32,59.880239520968516,,,,,,2059.6294000000953,336,5,2059.6295,336,,,,2063.789,2064.282800000191,2063.2728000001907,2063.789,2060.639300000191,2063.2727000000477,2064.2829000000957,2064.7829000000957,2064.7829000000957,2067.773,2600,2067.773,5,2067.778200000048,5,28,178,9,1,1.6,0.7,Time
,,158214,001,女,21,2025-06-02_16h29.31.696,Serial_Dependence_U,2023.2.3,Win32,59.880239520968516,,,,,,2067.7784000000956,306,5,2067.7784000000956,306,,,,2071.322200000048,2071.8154000000955,2070.8055,2071.322100000143,2068.7722000000476,2070.8055,2071.8154000000955,2072.316200000048,2072.316300000191,2075.539800000191,2967,2075.539800000191,5,2075.545100000143,5,29,179,6,1,1,0.7,Time
,,158214,001,女,21,2025-06-02_16h29.31.696,Serial_Dependence_U,2023.2.3,Win32,59.880239520968516,,,,,,2075.5452000000478,314,6,2142.5048000001907,314,s,66.94009999990476,,2146.2714000000956,2146.764200000048,2145.770700000048,2146.2714000000956,2143.504300000191,2145.770600000143,2146.764300000191,2147.264800000191,2147.2649000000956,2150.405200000048,2784,2150.405300000191,5,2150.410600000143,6,0,180,2,1,1.2,0.3,Time
,,158214,001,女,21,2025-06-02_16h29.31.696,Serial_Dependence_U,2023.2.3,Win32,59.880239520968516,,,,,,2150.4108000001906,151,6,2150.411700000048,151,,,,2154.0044000000953,2154.497600000143,2153.4880000000003,2154.004300000191,2151.420800000191,2153.4880000000003,2154.4977000000476,2154.9974000000957,2154.9974000000957,2156.838200000048,1534,2156.838300000191,5,2156.8437000000476,6,1,181,11,1,1,0.3,Time
,,158214,001,女,21,2025-06-02_16h29.31.696,Serial_Dependence_U,2023.2.3,Win32,59.880239520968516,,,,,,2156.8438000001906,278,6,2156.844,278,,,,2161.034600000143,2161.5315,2160.5205,2161.0345,2157.854200000048,2160.5205,2161.5315,2162.030800000191,2162.0309000000957,2164.638,2267,2164.638,5,2164.6432000000477,6,2,182,14,1,1.6,0.3,Time
,,158214,001,女,21,2025-06-02_16h29.31.696,Serial_Dependence_U,2023.2.3,Win32,59.880239520968516,,,,,,2164.6434000000954,225,6,2164.6434000000954,225,,,,2168.784700000048,2169.281,2168.270100000143,2168.784600000143,2165.637200000048,2168.27,2169.281,2169.7809000000957,2169.781,2172.571300000191,2450,2172.571300000191,5,2172.577,6,3,183,9,1,1.6,0.7,Time
,,158214,001,女,21,2025-06-02_16h29.31.696,Serial_Dependence_U,2023.2.3,Win32,59.880239520968516,,,,,,2172.577200000048,217,6,2172.577200000048,217,,,,2176.7209000000953,2177.214100000143,2176.2204000000957,2176.720800000191,2173.587700000048,2176.220300000191,2177.214100000143,2177.714100000143,2177.714100000143,2180.3209000000957,2067,2180.321,4,2180.3264000000954,6,4,184,29,1,1.6,0.7,Time
,,158214,001,女,21,2025-06-02_16h29.31.696,Serial_Dependence_U,2023.2.3,Win32,59.880239520968516,,,,,,2180.3265,62,6,2180.3265,62,,,,2184.0706000001433,2184.5697000000478,2183.554100000143,2184.0705000000003,2181.3206000001433,2183.554,2184.5697000000478,2185.0640000000003,2185.0640000000003,2187.188100000143,1817,2187.188100000143,5,2187.193700000048,6,5,185,7,1,1.2,0.7,Time
,,158214,001,女,21,2025-06-02_16h29.31.696,Serial_Dependence_U,2023.2.3,Win32,59.880239520968516,,,,,,2187.1939000000953,340,6,2187.194,340,,,,2191.187,2191.6809000000953,2190.670600000143,2191.187,2188.2038000001908,2190.6705,2191.6809000000953,2192.1857000000477,2192.1857000000477,2194.9868000001907,2416,2194.9869000000954,5,2194.992,6,6,186,23,1,1.4,0.3,Time
,,158214,001,女,21,2025-06-02_16h29.31.696,Serial_Dependence_U,2023.2.3,Win32,59.880239520968516,,,,,,2194.992200000048,312,6,2194.992300000191,312,,,,2198.336800000191,2198.8305,2197.8204000000956,2198.3367000000476,2195.9868000001907,2197.820300000191,2198.830600000143,2199.330600000143,2199.330600000143,2201.6376000001433,1951,2201.637700000048,5,2201.643,6,7,187,25,1,0.8,0.7,Time
,,158214,001,女,21,2025-06-02_16h29.31.696,Serial_Dependence_U,2023.2.3,Win32,59.880239520968516,,,,,,2201.6432000000477,112,6,2201.6433000001907,112,,,,2205.8037000000477,2206.2966000001434,2205.286700000048,2205.8037000000477,2202.6536000001433,2205.286700000048,2206.2966000001434,2206.797100000143,2206.7972000000477,2209.204,2367,2209.204,5,2209.2095,6,8,188,19,1,1.6,0.7,Time
,,158214,001,女,21,2025-06-02_16h29.31.696,Serial_Dependence_U,2023.2.3,Win32,59.880239520968516,,,,,,2209.2097000000476,275,6,2209.2097000000476,275,,,,2213.4036000001433,2213.896800000191,2212.8864000000954,2213.4035,2210.2200000000003,2212.8863000001907,2213.8969000000957,2214.3969000000957,2214.397,2217.7205,2683,2217.7206000001433,5,2217.7258000001907,6,9,189,24,1,1.6,0.3,Time
,,158214,001,女,21,2025-06-02_16h29.31.696,Serial_Dependence_U,2023.2.3,Win32,59.880239520968516,,,,,,2217.7259000000954,246,6,2217.726,246,,,,2221.9029000000955,2222.396700000048,2221.3875000000003,2221.902800000191,2218.719800000191,2221.3874000000956,2222.396700000048,2222.8965000000003,2222.8966000001433,2225.646800000191,2403,2225.6469000000957,5,2225.653200000048,6,10,190,4,1,1.6,0.3,Time
,,158214,001,女,21,2025-06-02_16h29.31.696,Serial_Dependence_U,2023.2.3,Win32,59.880239520968516,,,,,,2225.6534000000956,246,6,2225.6534000000956,246,,,,2229.63,2230.1298000001907,2229.1138000001906,2229.63,2226.647,2229.1138000001906,2230.1298000001907,2230.6297000000477,2230.6297000000477,2233.213200000048,2220,2233.213300000191,5,2233.2194000000954,6,11,191,13,1,1.4,0.3,Time
,,158214,001,女,21,2025-06-02_16h29.31.696,Serial_Dependence_U,2023.2.3,Win32,59.880239520968516,,,,,,2233.219700000048,248,6,2233.219700000048,248,,,,2237.1635,2237.663,2236.646700000048,2237.1635,2234.2136000001433,2236.6466000001433,2237.663100000143,2238.1627000000476,2238.1627000000476,2241.4965,2469,2241.496600000143,5,2241.5027000000478,6,12,192,8,1,1.4,0.7,Time
,,158214,001,女,21,2025-06-02_16h29.31.696,Serial_Dependence_U,2023.2.3,Win32,59.880239520968516,,,,,,2241.5029000000955,80,6,2241.5029000000955,80,,,,2245.280100000143,2245.7795,2244.763600000143,2245.280100000143,2242.496700000048,2244.763600000143,2245.779600000143,2246.2795,2246.279600000143,2248.780100000143,2081,2248.780100000143,5,2248.786100000143,6,13,193,12,1,1.2,0.3,Time
,,158214,001,女,21,2025-06-02_16h29.31.696,Serial_Dependence_U,2023.2.3,Win32,59.880239520968516,,,,,,2248.7863000001907,198,6,2248.7863000001907,198,,,,2252.3631000001433,2252.862600000143,2251.846800000191,2252.3631000001433,2249.780100000143,2251.846700000048,2252.862700000048,2253.362800000191,2253.362800000191,2256.1295,2416,2256.129600000143,5,2256.1363000001907,6,14,194,21,1,1,0.3,Time
,,158214,001,女,21,2025-06-02_16h29.31.696,Serial_Dependence_U,2023.2.3,Win32,59.880239520968516,,,,,,2256.1364000000954,289,6,2256.1365,289,,,,2259.512800000191,2260.012700000048,2258.9964000000955,2259.512800000191,2257.1297000000477,2258.9964000000955,2260.012700000048,2260.5124000000956,2260.5125000000003,2262.9797000000476,2146,2262.979800000191,5,2262.9869000000954,6,15,195,10,1,0.8,0.3,Time
,,158214,001,女,21,2025-06-02_16h29.31.696,Serial_Dependence_U,2023.2.3,Win32,59.880239520968516,,,,,,2262.987100000143,289,6,2262.987200000048,289,,,,2266.979800000191,2267.479300000191,2266.463200000048,2266.979800000191,2263.9965,2266.463200000048,2267.4794000000957,2267.9791000001433,2267.9791000001433,2270.279700000048,1950,2270.2799000000955,5,2270.2859000000954,6,16,196,3,1,1.4,0.3,Time
,,158214,001,女,21,2025-06-02_16h29.31.696,Serial_Dependence_U,2023.2.3,Win32,59.880239520968516,,,,,,2270.286100000143,76,6,2270.2862000000478,76,,,,2274.0295,2274.529,2273.513,2274.0295,2271.279700000048,2273.513,2274.529100000143,2275.0289000000953,2275.0289000000953,2277.3457000000476,2004,2277.3457000000476,5,2277.3520000000003,6,17,197,17,1,1.2,0.7,Time
,,158214,001,女,21,2025-06-02_16h29.31.696,Serial_Dependence_U,2023.2.3,Win32,59.880239520968516,,,,,,2277.352200000048,114,6,2277.352200000048,114,,,,2280.946,2281.4454000000956,2280.429600000143,2280.9459000000957,2278.362700000048,2280.4295,2281.4454000000956,2281.9456000001433,2281.9456000001433,2284.445700000048,2188,2284.445700000048,5,2284.4514000000954,6,18,198,1,1,1,0.3,Time
,,158214,001,女,21,2025-06-02_16h29.31.696,Serial_Dependence_U,2023.2.3,Win32,59.880239520968516,,,,,,2284.451600000143,184,6,2284.451600000143,184,,,,2288.396,2288.8955,2287.8792000000476,2288.396,2285.446,2287.8791000001434,2288.8955,2289.395600000143,2289.395600000143,2291.895800000191,2212,2291.8959000000955,5,2291.9019000000953,6,19,199,28,1,1.4,0.7,Time
,,158214,001,女,21,2025-06-02_16h29.31.696,Serial_Dependence_U,2023.2.3,Win32,59.880239520968516,,,,,,2291.902100000143,38,6,2291.902100000143,38,,,,2295.6459000000955,2296.145,2295.1292000000476,2295.6459000000955,2292.8959000000955,2295.1291000001434,2296.145,2296.6454000000954,2296.6454000000954,2297.5287000000476,589,2297.528800000191,1,2297.534700000048,6,20,200,27,1,1.2,0.7,Time
,,158214,001,女,21,2025-06-02_16h29.31.696,Serial_Dependence_U,2023.2.3,Win32,59.880239520968516,,,,,,2297.5349000000956,99,6,2297.5350000000003,99,,,,2301.0795000000003,2301.5785,2300.5625,2301.0795000000003,2298.5293000001907,2300.5625,2301.5785,2302.078600000143,2302.078600000143,2303.9789000000956,1549,2303.9791000001433,5,2303.988200000048,6,21,201,16,1,1,0.7,Time
,,158214,001,女,21,2025-06-02_16h29.31.696,Serial_Dependence_U,2023.2.3,Win32,59.880239520968516,,,,,,2303.9884000000957,258,6,2303.9885,258,,,,2307.328700000048,2307.8282000000477,2306.8122000000476,2307.328700000048,2304.9789000000956,2306.8121000001433,2307.8282000000477,2308.3283000001907,2308.3283000001907,2310.745300000191,1986,2310.7454000000953,5,2310.7519000000957,6,22,202,5,1,0.8,0.7,Time
,,158214,001,女,21,2025-06-02_16h29.31.696,Serial_Dependence_U,2023.2.3,Win32,59.880239520968516,,,,,,2310.752,326,6,2310.752,326,,,,2314.695300000191,2315.195100000143,2314.1788000001907,2314.695200000048,2311.7455,2314.1788000001907,2315.195100000143,2315.695,2315.695,2318.762100000143,2597,2318.762200000048,5,2318.7684000000954,6,23,203,18,1,1.4,0.7,Time
,,158214,001,女,21,2025-06-02_16h29.31.696,Serial_Dependence_U,2023.2.3,Win32,59.880239520968516,,,,,,2318.7685,340,6,2318.7685,340,,,,2322.5453000001908,2323.0448000001907,2322.0287000000476,2322.5453000001908,2319.762,2322.0287000000476,2323.0448000001907,2323.5448000001907,2323.5448000001907,2325.862,1947,2325.862,5,2325.8683000001906,6,24,204,22,1,1.2,0.3,Time
,,158214,001,女,21,2025-06-02_16h29.31.696,Serial_Dependence_U,2023.2.3,Win32,59.880239520968516,,,,,,2325.8685,233,6,2325.868600000143,233,,,,2329.2451000001433,2329.744800000191,2328.7285,2329.2451000001433,2326.8619000000954,2328.7285,2329.744800000191,2330.2445000000002,2330.2445000000002,2332.6119000000954,2083,2332.612,5,2332.617700000048,6,25,205,20,1,0.8,0.3,Time
,,158214,001,女,21,2025-06-02_16h29.31.696,Serial_Dependence_U,2023.2.3,Win32,59.880239520968516,,,,,,2332.6179000000957,173,6,2332.618,173,,,,2336.012200000048,2336.5115,2335.495300000191,2336.012100000143,2333.628700000048,2335.495300000191,2336.5115,2337.0115,2337.0115,2339.244800000191,1918,2339.2449000000956,5,2339.250800000191,6,26,206,0,1,0.8,0.3,Time
,,158214,001,女,21,2025-06-02_16h29.31.696,Serial_Dependence_U,2023.2.3,Win32,59.880239520968516,,,,,,2339.2509000000955,24,6,2339.2509000000955,24,,,,2342.795100000143,2343.2947000000477,2342.278200000048,2342.795,2340.2452000000476,2342.278200000048,2343.2947000000477,2343.7947000000477,2343.7948000001907,2346.678,2340,2346.678,5,2346.684100000143,6,27,207,6,1,1,0.7,Time
,,158214,001,女,21,2025-06-02_16h29.31.696,Serial_Dependence_U,2023.2.3,Win32,59.880239520968516,,,,,,2346.684300000191,109,6,2346.6844000000956,109,,,,2350.0281000001432,2350.527700000048,2349.5118000001908,2350.0279000000955,2347.6785,2349.5118000001908,2350.527800000191,2351.0279000000955,2351.0280000000002,2353.594800000191,2116,2353.5949000000955,5,2353.6008000001907,6,28,208,15,1,0.8,0.7,Time
,,158214,001,女,21,2025-06-02_16h29.31.696,Serial_Dependence_U,2023.2.3,Win32,59.880239520968516,,,,,,2353.601,40,6,2353.601100000143,40,,,,2357.1284000000956,2357.627600000143,2356.628100000143,2357.128300000191,2354.5945,2356.628,2357.627600000143,2358.1278000001907,2358.1278000001907,2360.4448000001908,2063,2360.4449000000955,5,2360.4506000001434,6,29,209,26,1,1,0.7,Time
,,158214,001,女,21,2025-06-02_16h29.31.696,Serial_Dependence_U,2023.2.3,Win32,59.880239520968516,,,,,,2360.450800000191,316,7,2363.3998000001907,316,s,2.925899999856938,,2366.978100000143,2367.4775,2366.462,2366.978,2364.3946000001433,2366.462,2367.4775,2367.977600000143,2367.977600000143,2370.661100000143,2350,2370.6612000000478,5,2370.6674000000953,7,0,210,1,1,1,0.3,Time
,,158214,001,女,21,2025-06-02_16h29.31.696,Serial_Dependence_U,2023.2.3,Win32,59.880239520968516,,,,,,2370.6677000000477,257,7,2370.668300000191,257,,,,2374.027700000048,2374.5273000001907,2373.511100000143,2374.027600000143,2371.6775000000002,2373.511,2374.5273000001907,2375.0274000000954,2375.0275,2377.4107000000477,1993,2377.4108000001906,5,2377.416800000191,7,1,211,25,1,0.8,0.7,Time
,,158214,001,女,21,2025-06-02_16h29.31.696,Serial_Dependence_U,2023.2.3,Win32,59.880239520968516,,,,,,2377.417,212,7,2377.4171000001434,212,,,,2380.760800000191,2381.2605000000003,2380.244700000048,2380.760800000191,2378.4113000001907,2380.2446000001432,2381.2605000000003,2381.760700000048,2381.760700000048,2383.928,1727,2383.9281000001433,5,2383.934100000143,7,2,212,5,1,0.8,0.7,Time
,,158214,001,女,21,2025-06-02_16h29.31.696,Serial_Dependence_U,2023.2.3,Win32,59.880239520968516,,,,,,2383.934300000191,281,7,2383.934300000191,281,,,,2387.877600000143,2388.377100000143,2387.3612000000476,2387.8775,2384.9275000000002,2387.3612000000476,2388.377100000143,2388.8773000001906,2388.8773000001906,2391.7942000000476,2543,2391.7942000000476,5,2391.8,7,3,213,28,1,1.4,0.7,Time
,,158214,001,女,21,2025-06-02_16h29.31.696,Serial_Dependence_U,2023.2.3,Win32,59.880239520968516,,,,,,2391.800100000143,35,7,2391.800200000048,35,,,,2395.3442000000477,2395.8437000000476,2394.8277000000476,2395.3442000000477,2392.794300000191,2394.8277000000476,2395.8437000000476,2396.3438000001906,2396.3438000001906,2398.494100000143,1766,2398.494200000048,5,2398.5004000000954,7,4,214,6,1,1,0.7,Time
,,158214,001,女,21,2025-06-02_16h29.31.696,Serial_Dependence_U,2023.2.3,Win32,59.880239520968516,,,,,,2398.5005,139,7,2398.500600000143,139,,,,2402.244,2402.743600000143,2401.7274000000953,2402.244,2399.494300000191,2401.7274000000953,2402.743600000143,2403.2437000000477,2403.2437000000477,2405.8772000000477,2350,2405.8772000000477,5,2405.884,7,5,215,7,1,1.2,0.7,Time
,,158214,001,女,21,2025-06-02_16h29.31.696,Serial_Dependence_U,2023.2.3,Win32,59.880239520968516,,,,,,2405.8842000000477,98,7,2405.8843000001907,98,,,,2409.6273000001906,2410.126700000048,2409.110600000143,2409.6273000001906,2406.8774000000953,2409.110600000143,2410.126700000048,2410.627100000143,2410.627100000143,2413.2935,2338,2413.293600000143,5,2413.2994000000954,7,6,216,27,1,1.2,0.7,Time
,,158214,001,女,21,2025-06-02_16h29.31.696,Serial_Dependence_U,2023.2.3,Win32,59.880239520968516,,,,,,2413.299600000143,62,7,2413.299600000143,62,,,,2416.677300000191,2417.176600000143,2416.1604000000953,2416.677200000048,2414.2940000000003,2416.160300000191,2417.176600000143,2417.6768000001907,2417.6768000001907,2419.7439000000954,1716,2419.744,5,2419.7497000000476,7,7,217,0,1,0.8,0.3,Time
,,158214,001,女,21,2025-06-02_16h29.31.696,Serial_Dependence_U,2023.2.3,Win32,59.880239520968516,,,,,,2419.7499000000953,52,7,2419.75,52,,,,2423.7104000000954,2424.21,2423.1939000000953,2423.7103000001907,2420.76,2423.1939000000953,2424.21,2424.71,2424.710100000143,2426.777,2031,2426.777,5,2426.782800000191,7,8,218,8,1,1.4,0.7,Time
,,158214,001,女,21,2025-06-02_16h29.31.696,Serial_Dependence_U,2023.2.3,Win32,59.880239520968516,,,,,,2426.7829000000957,183,7,2426.783,183,,,,2430.3437000000476,2430.843200000048,2429.8434000000957,2430.343600000143,2427.7769000000953,2429.8434000000957,2430.843200000048,2431.343300000191,2431.3434000000957,2434.1601000001433,2415,2434.160300000191,5,2434.1664000000956,7,9,219,21,1,1,0.3,Time
,,158214,001,女,21,2025-06-02_16h29.31.696,Serial_Dependence_U,2023.2.3,Win32,59.880239520968516,,,,,,2434.1665000000003,141,7,2434.1666000001433,141,,,,2438.144100000143,2438.643,2437.6269000000957,2438.1440000000002,2435.1601000001433,2437.626800000191,2438.643,2439.1432000000477,2439.1432000000477,2442.193,2535,2442.193100000143,5,2442.199,7,10,220,13,1,1.4,0.3,Time
,,158214,001,女,21,2025-06-02_16h29.31.696,Serial_Dependence_U,2023.2.3,Win32,59.880239520968516,,,,,,2442.199100000143,325,7,2442.1992000000478,325,,,,2445.7767000000476,2446.2764000000957,2445.259800000191,2445.776600000143,2443.1934000000956,2445.259800000191,2446.2764000000957,2446.776300000191,2446.776300000191,2448.4933000001906,1301,2448.4934000000953,5,2448.4991000001432,7,11,221,11,1,1,0.3,Time
,,158214,001,女,21,2025-06-02_16h29.31.696,Serial_Dependence_U,2023.2.3,Win32,59.880239520968516,,,,,,2448.499300000191,38,7,2448.499300000191,38,,,,2452.276600000143,2452.7761000001433,2451.760100000143,2452.2765,2449.4935,2451.760100000143,2452.7761000001433,2453.2761000001433,2453.2761000001433,2455.6265000000003,1627,2455.6266000001433,5,2455.632600000143,7,12,222,22,1,1.2,0.3,Time
,,158214,001,女,21,2025-06-02_16h29.31.696,Serial_Dependence_U,2023.2.3,Win32,59.880239520968516,,,,,,2455.632800000191,245,7,2455.6329000000956,245,,,,2459.4099000000956,2459.9095,2458.8934000000954,2459.409700000048,2456.6265000000003,2458.8933000001907,2459.9095,2460.4094000000955,2460.4094000000955,2462.909700000048,1882,2462.9099000000956,5,2462.915600000143,7,13,223,2,1,1.2,0.3,Time
,,158214,001,女,21,2025-06-02_16h29.31.696,Serial_Dependence_U,2023.2.3,Win32,59.880239520968516,,,,,,2462.9158000001908,267,7,2462.9159000000955,267,,,,2466.893100000143,2467.3924000000957,2466.376100000143,2466.893,2463.9099000000956,2466.376100000143,2467.3924000000957,2467.8925,2467.8925,2470.6428000001906,2134,2470.6429000000953,5,2470.648700000048,7,14,224,3,1,1.4,0.3,Time
,,158214,001,女,21,2025-06-02_16h29.31.696,Serial_Dependence_U,2023.2.3,Win32,59.880239520968516,,,,,,2470.6489000000956,359,7,2470.649,359,,,,2474.009600000143,2474.508800000191,2473.5094000000954,2474.009600000143,2471.643,2473.5094000000954,2474.508800000191,2475.0092000000477,2475.0092000000477,2477.492800000191,2099,2477.4929000000957,5,2477.498800000191,7,15,225,10,1,0.8,0.3,Time
,,158214,001,女,21,2025-06-02_16h29.31.696,Serial_Dependence_U,2023.2.3,Win32,59.880239520968516,,,,,,2477.4990000000003,290,7,2477.4990000000003,290,,,,2481.676,2482.1755000000003,2481.159300000191,2481.676,2478.492800000191,2481.159300000191,2482.1756000001433,2482.6755000000003,2482.6756000001433,2486.1929000000955,2963,2486.1929000000955,5,2486.1987000000477,7,16,226,24,1,1.6,0.3,Time
,,158214,001,女,21,2025-06-02_16h29.31.696,Serial_Dependence_U,2023.2.3,Win32,59.880239520968516,,,,,,2486.1989000000954,111,7,2486.199,111,,,,2489.7424000000956,2490.2419000000955,2489.2258000001907,2489.7424000000956,2487.192700000048,2489.2258000001907,2490.242,2490.7424000000956,2490.7424000000956,2493.625700000048,2383,2493.625800000191,5,2493.632700000048,7,17,227,26,1,1,0.7,Time
,,158214,001,女,21,2025-06-02_16h29.31.696,Serial_Dependence_U,2023.2.3,Win32,59.880239520968516,,,,,,2493.632800000191,297,7,2493.6329000000956,297,,,,2497.609300000191,2498.1085000000003,2497.092200000048,2497.6092000000476,2494.625800000191,2497.092200000048,2498.1085000000003,2498.608800000191,2498.608800000191,2501.508800000191,2601,2501.508800000191,5,2501.5155,7,18,228,23,1,1.4,0.3,Time
,,158214,001,女,21,2025-06-02_16h29.31.696,Serial_Dependence_U,2023.2.3,Win32,59.880239520968516,,,,,,2501.5157000000477,322,7,2501.5158000001907,322,,,,2505.458800000191,2505.9585,2504.9422000000477,2505.458800000191,2502.5092000000477,2504.9422000000477,2505.9585,2506.4585,2506.4585,2509.2921000001434,2319,2509.2922000000476,5,2509.298100000143,7,19,229,18,1,1.4,0.7,Time
,,158214,001,女,21,2025-06-02_16h29.31.696,Serial_Dependence_U,2023.2.3,Win32,59.880239520968516,,,,,,2509.298300000191,201,7,2509.2984000000956,201,,,,2513.0756000001434,2513.5750000000003,2512.5589000000955,2513.0755,2510.2924000000953,2512.5589000000955,2513.5750000000003,2514.0751000001433,2514.075200000048,2516.392300000191,2073,2516.3925,5,2516.3986000001432,7,20,230,12,1,1.2,0.3,Time
,,158214,001,女,21,2025-06-02_16h29.31.696,Serial_Dependence_U,2023.2.3,Win32,59.880239520968516,,,,,,2516.398800000191,67,7,2516.398800000191,67,,,,2519.9589000000956,2520.458300000191,2519.4422000000477,2519.9589000000956,2517.408600000143,2519.442100000143,2520.458300000191,2520.958300000191,2520.9584000000955,2523.2252000000476,1996,2523.225300000191,5,2523.231,7,21,231,16,1,1,0.7,Time
,,158214,001,女,21,2025-06-02_16h29.31.696,Serial_Dependence_U,2023.2.3,Win32,59.880239520968516,,,,,,2523.231300000191,306,7,2523.231300000191,306,,,,2526.5749000000956,2527.074800000191,2526.0589000000955,2526.5749000000956,2524.225300000191,2526.0589000000955,2527.074800000191,2527.574800000191,2527.5749000000956,2529.9417000000476,1828,2529.941800000191,5,2529.9485,7,22,232,15,1,0.8,0.7,Time
,,158214,001,女,21,2025-06-02_16h29.31.696,Serial_Dependence_U,2023.2.3,Win32,59.880239520968516,,,,,,2529.9488000001907,55,7,2529.9488000001907,55,,,,2534.1253000001907,2534.6245,2533.6086000001433,2534.1253000001907,2530.9422000000477,2533.6085000000003,2534.6245,2535.1247000000476,2535.1247000000476,2537.5584000000954,2134,2537.5584000000954,5,2537.5645,7,23,233,14,1,1.6,0.3,Time
,,158214,001,女,21,2025-06-02_16h29.31.696,Serial_Dependence_U,2023.2.3,Win32,59.880239520968516,,,,,,2537.5647000000477,155,7,2537.5648000001906,155,,,,2540.9419000000953,2541.4410000000003,2540.425100000143,2540.9419000000953,2538.558600000143,2540.425,2541.4410000000003,2541.941300000191,2541.941300000191,2543.958,1699,2543.958200000048,5,2543.9639000000957,7,24,234,20,1,0.8,0.3,Time
,,158214,001,女,21,2025-06-02_16h29.31.696,Serial_Dependence_U,2023.2.3,Win32,59.880239520968516,,,,,,2543.964100000143,21,7,2543.9642000000476,21,,,,2547.691800000191,2548.1911000001433,2547.1914000000957,2547.691800000191,2544.958200000048,2547.191300000191,2548.1911000001433,2548.6915,2548.6915,2551.1582000000476,1967,2551.158300000191,5,2551.164100000143,7,25,235,17,1,1.2,0.7,Time
,,158214,001,女,21,2025-06-02_16h29.31.696,Serial_Dependence_U,2023.2.3,Win32,59.880239520968516,,,,,,2551.164300000191,259,7,2551.164300000191,259,,,,2555.3417000000477,2555.8412000000476,2554.824800000191,2555.3417000000477,2552.1584000000953,2554.824800000191,2555.8412000000476,2556.3411000001433,2556.3411000001433,2557.858100000143,1418,2557.858200000048,2,2557.866,7,26,236,4,1,1.6,0.3,Time
,,158214,001,女,21,2025-06-02_16h29.31.696,Serial_Dependence_U,2023.2.3,Win32,59.880239520968516,,,,,,2557.8662000000477,55,7,2557.8663000001907,55,,,,2562.0081000001433,2562.507800000191,2561.4914000000954,2562.0081000001433,2558.858200000048,2561.4913000001907,2562.507800000191,2563.0073000001908,2563.0073000001908,2565.8409000000956,2563,2565.8411000001433,5,2565.847300000191,7,27,237,19,1,1.6,0.7,Time
,,158214,001,女,21,2025-06-02_16h29.31.696,Serial_Dependence_U,2023.2.3,Win32,59.880239520968516,,,,,,2565.8474000000956,179,7,2565.8475000000003,179,,,,2569.990800000191,2570.4909000000953,2569.474700000048,2569.990800000191,2566.8414000000953,2569.4746000001433,2570.4909000000953,2570.991,2570.991100000143,2573.7575,2450,2573.757700000048,5,2573.764200000048,7,28,238,9,1,1.6,0.7,Time
,,158214,001,女,21,2025-06-02_16h29.31.696,Serial_Dependence_U,2023.2.3,Win32,59.880239520968516,,,,,,2573.7644000000955,304,7,2573.7644000000955,304,,,,2577.9079000000957,2578.407300000191,2577.3913000001908,2577.9079000000957,2574.7579000000956,2577.391200000048,2578.4074000000955,2578.907300000191,2578.9074000000955,2581.407700000048,2167,2581.407700000048,5,2581.413800000191,7,29,239,29,1,1.6,0.7,Time
,,158214,001,女,21,2025-06-02_16h29.31.696,Serial_Dependence_U,2023.2.3,Win32,59.880239520968516,,,,,,2581.414,336,8,2584.124200000048,336,s,2.6944000000953565,,2587.8741000001432,2588.373600000143,2587.3575,2587.8741000001432,2585.124200000048,2587.3575,2588.373600000143,2588.873700000048,2588.873700000048,2591.4242000000477,2234,2591.4243000001907,5,2591.4307000000476,8,0,240,27,1,1.2,0.7,Time
,,158214,001,女,21,2025-06-02_16h29.31.696,Serial_Dependence_U,2023.2.3,Win32,59.880239520968516,,,,,,2591.431,273,8,2591.431700000048,273,,,,2595.3741000001432,2595.873600000143,2594.8573000001907,2595.3741000001432,2592.424100000143,2594.8573000001907,2595.873600000143,2596.373700000048,2596.373700000048,2599.123800000191,2250,2599.1240000000003,5,2599.1311000001433,8,1,241,8,1,1.4,0.7,Time
,,158214,001,女,21,2025-06-02_16h29.31.696,Serial_Dependence_U,2023.2.3,Win32,59.880239520968516,,,,,,2599.131300000191,349,8,2599.131300000191,349,,,,2603.2908000001908,2603.7902000000477,2602.7904000000954,2603.2908000001908,2600.1240000000003,2602.7903000001907,2603.7902000000477,2604.2904000000954,2604.2904000000954,2607.123700000048,2563,2607.123800000191,5,2607.1297000000477,8,2,242,14,1,1.6,0.3,Time
,,158214,001,女,21,2025-06-02_16h29.31.696,Serial_Dependence_U,2023.2.3,Win32,59.880239520968516,,,,,,2607.1299000000954,1,8,2607.13,1,,,,2610.474100000143,2610.9734000000954,2609.957300000191,2610.474100000143,2608.1240000000003,2609.957300000191,2610.9734000000954,2611.473100000143,2611.473100000143,2614.0734000000953,2355,2614.0735,5,2614.0799000000957,8,3,243,15,1,0.8,0.7,Time
,,158214,001,女,21,2025-06-02_16h29.31.696,Serial_Dependence_U,2023.2.3,Win32,59.880239520968516,,,,,,2614.0802000000476,205,8,2614.0803000001906,205,,,,2618.0571000001432,2618.5565,2617.540600000143,2618.0571000001432,2615.0739000000954,2617.540600000143,2618.5565,2619.056600000143,2619.056600000143,2621.4569000000956,2126,2621.4571000001433,5,2621.4629000000955,8,4,244,23,1,1.4,0.3,Time
,,158214,001,女,21,2025-06-02_16h29.31.696,Serial_Dependence_U,2023.2.3,Win32,59.880239520968516,,,,,,2621.463200000048,18,8,2621.463200000048,18,,,,2625.0404000000954,2625.5399000000953,2624.5239000000956,2625.0403000001907,2622.4571000001433,2624.523800000191,2625.5399000000953,2626.04,2626.040100000143,2628.7735000000002,2129,2628.7736000001432,5,2628.7794000000954,8,5,245,11,1,1,0.3,Time
,,158214,001,女,21,2025-06-02_16h29.31.696,Serial_Dependence_U,2023.2.3,Win32,59.880239520968516,,,,,,2628.7795,240,8,2628.7795,240,,,,2632.3569000000953,2632.8565000000003,2631.8404000000955,2632.3569000000953,2629.7735000000002,2631.8404000000955,2632.8565000000003,2633.3565000000003,2633.3566000001433,2636.023200000048,2161,2636.0235000000002,5,2636.0293000001907,8,6,246,21,1,1,0.3,Time
,,158214,001,女,21,2025-06-02_16h29.31.696,Serial_Dependence_U,2023.2.3,Win32,59.880239520968516,,,,,,2636.0295,223,8,2636.0295,223,,,,2639.8065,2640.3063000001907,2639.2902000000477,2639.8064000000954,2637.023300000191,2639.2902000000477,2640.3063000001907,2640.8063000001907,2640.8063000001907,2643.389700000048,2284,2643.389800000191,5,2643.396,8,7,247,22,1,1.2,0.3,Time
,,158214,001,女,21,2025-06-02_16h29.31.696,Serial_Dependence_U,2023.2.3,Win32,59.880239520968516,,,,,,2643.396200000048,83,8,2643.396200000048,83,,,,2647.1734000000956,2647.6729000000955,2646.6568000001907,2647.1734000000956,2644.3900000000003,2646.6567000000477,2647.6729000000955,2648.173100000143,2648.173100000143,2651.089600000143,2617,2651.0898000001907,5,2651.0956000001433,8,8,248,2,1,1.2,0.3,Time
,,158214,001,女,21,2025-06-02_16h29.31.696,Serial_Dependence_U,2023.2.3,Win32,59.880239520968516,,,,,,2651.095800000191,110,8,2651.095800000191,110,,,,2655.0734000000953,2655.572700000048,2654.556600000143,2655.073300000191,2652.09,2654.556600000143,2655.572700000048,2656.072800000191,2656.072800000191,2658.69,2415,2658.69,5,2658.6961000001434,8,9,249,13,1,1.4,0.3,Time
,,158214,001,女,21,2025-06-02_16h29.31.696,Serial_Dependence_U,2023.2.3,Win32,59.880239520968516,,,,,,2658.6962000000476,19,8,2658.696300000191,19,,,,2662.0729000000956,2662.572600000143,2661.556700000048,2662.0729000000956,2659.6899000000953,2661.556700000048,2662.572700000048,2663.072800000191,2663.072800000191,2665.0894000000953,1753,2665.0894000000953,5,2665.0955,8,10,250,10,1,0.8,0.3,Time
,,158214,001,女,21,2025-06-02_16h29.31.696,Serial_Dependence_U,2023.2.3,Win32,59.880239520968516,,,,,,2665.095800000191,146,8,2665.0959000000953,146,,,,2668.439600000143,2668.939300000191,2667.9229000000955,2668.439600000143,2666.0897000000477,2667.9229000000955,2668.939300000191,2669.4389000000956,2669.4389000000956,2671.739600000143,1929,2671.739600000143,5,2671.746,8,11,251,5,1,0.8,0.7,Time
,,158214,001,女,21,2025-06-02_16h29.31.696,Serial_Dependence_U,2023.2.3,Win32,59.880239520968516,,,,,,2671.746200000048,340,8,2671.746200000048,340,,,,2675.0897000000477,2675.5892000000476,2674.573300000191,2675.0897000000477,2672.739600000143,2674.573200000048,2675.5892000000476,2676.0892000000476,2676.0892000000476,2678.056100000143,1665,2678.056100000143,5,2678.0628000001907,8,12,252,25,1,0.8,0.7,Time
