Scale_setup.started,Scale_setup.stopped,participant,session,sex,age,date,expName,psychopyVersion,OS,frameRate,Intro.started,Intro.stopped,key_resp_2.keys,key_resp_2.rt,key_resp_2.duration,block.started,direction,Block_id,block.stopped,trial_direction,Block_resp_2.keys,Block_resp_2.rt,Block_resp_2.duration,ITI.started,ITI.stopped,Mask_2.started,Mask_2.stopped,encoding.started,encoding.stopped,Cue.started,Cue.stopped,Response.started,Response.stopped,keyDuration,Feedback_Time.started,FeedbackID_T,Feedback_Time.stopped,trials.thisRepN,trials.thisTrialN,trials.thisN,trials.thisIndex,trials.ran,TimeDur,Coherence1,TrialType
0.00010000002384202844,0.00019999992847452575,171761,001,w,28,2025-06-03_15h18.36.443,Serial_Dependence_U,2023.2.3,Win32,59.88023952095548,,,,,,,,,,,,,,,,,,,,,,,,,,,,,,,,,,,
,,171761,001,w,28,2025-06-03_15h18.36.443,Serial_Dependence_U,2023.2.3,Win32,59.88023952095548,12.306299999952316,44.90069999992848,space,32.56319999992847,,,,,,,,,,,,,,,,,,,,,,,,,,,,,,,
,,171761,001,w,28,2025-06-03_15h18.36.443,Serial_Dependence_U,2023.2.3,Win32,59.88023952095548,,,,,,44.909000000000006,105,0,47.44979999995232,105,s,2.5176999999284746,,51.62379999995231,52.1155,51.10769999992847,51.62349999999999,48.45869999992847,51.1075,52.115899999976165,52.604,52.60439999997615,54.9735,149,54.974000000000004,1,55.96629999995231,0,0,0,19,1,1.6,0.7,Time
,,171761,001,w,28,2025-06-03_15h18.36.443,Serial_Dependence_U,2023.2.3,Win32,59.88023952095548,,,,,,55.96779999995232,279,0,55.971699999928475,279,,,,59.53210000002383,60.031199999928475,59.01679999995231,59.53179999995231,56.98260000002384,59.01660000002384,60.03129999995231,60.531499999999994,60.53169999992848,81.66139999997615,119,81.66160000002384,1,82.661,0,1,1,26,1,1,0.7,Time
,,171761,001,w,28,2025-06-03_15h18.36.443,Serial_Dependence_U,2023.2.3,Win32,59.88023952095548,,,,,,82.66199999999999,329,0,82.66260000002384,329,,,,86.46039999997616,86.96029999995231,85.94489999997616,86.46029999995231,83.6785,85.94479999995231,86.96039999997616,87.46039999997616,87.46039999997616,92.49360000002383,184,92.49429999995232,1,93.49199999999999,0,2,2,2,1,1.2,0.3,Time
,,171761,001,w,28,2025-06-03_15h18.36.443,Serial_Dependence_U,2023.2.3,Win32,59.88023952095548,,,,,,93.49219999992847,299,0,93.49239999997616,299,,,,97.07660000002384,97.5752999999523,96.56,97.07639999997616,94.49379999995232,96.55989999997615,97.57539999997616,98.0752999999523,98.07539999997616,100.20860000002384,169,100.20869999992847,1,101.20779999995231,0,3,3,1,1,1,0.3,Time
,,171761,001,w,28,2025-06-03_15h18.36.443,Serial_Dependence_U,2023.2.3,Win32,59.88023952095548,,,,,,101.20810000002383,103,0,101.20829999995232,103,,,,104.97579999995232,105.47360000002384,104.45860000002384,104.97569999992847,102.22589999997615,104.45829999995232,105.47360000002384,105.97410000002384,105.97410000002384,106.80819999992848,177,106.80839999997616,1,107.80749999999999,0,4,4,27,1,1.2,0.7,Time
,,171761,001,w,28,2025-06-03_15h18.36.443,Serial_Dependence_U,2023.2.3,Win32,59.88023952095548,,,,,,107.80860000002384,276,0,107.80910000002383,276,,,,111.60789999997615,112.10629999995231,111.09110000002384,111.6077999999523,108.82539999997616,111.09089999997616,112.10629999995231,112.60639999997615,112.6065,113.25699999999999,172,113.25710000002384,1,114.25610000002384,0,5,5,22,1,1.2,0.3,Time
,,171761,001,w,28,2025-06-03_15h18.36.443,Serial_Dependence_U,2023.2.3,Win32,59.88023952095548,,,,,,114.25710000002384,71,0,114.25760000002384,71,,,,118.222,118.72169999992848,117.70679999995231,118.22189999997616,115.2725,117.70669999992847,118.72169999992848,119.22149999999999,119.22160000002384,119.82360000002384,161,119.82379999995231,1,120.82169999992847,0,6,6,8,1,1.4,0.7,Time
,,171761,001,w,28,2025-06-03_15h18.36.443,Serial_Dependence_U,2023.2.3,Win32,59.88023952095548,,,,,,120.82219999992847,181,0,120.82239999997616,181,,,,124.40429999995231,124.90379999995233,123.888,124.4041999999285,121.82160000002385,123.88789999997616,124.904,125.40379999995233,125.40379999995233,133.312,133,133.31219999992848,1,134.30279999995233,0,7,7,11,1,1,0.3,Time
,,171761,001,w,28,2025-06-03_15h18.36.443,Serial_Dependence_U,2023.2.3,Win32,59.88023952095548,,,,,,134.30339999997616,180,0,134.30360000002386,180,,,,138.06060000002384,138.55200000000002,137.54389999997616,138.06039999997617,135.31089999997616,137.5436999999285,138.55210000002384,139.0521999999285,139.0525,148.27610000002386,149,148.27610000002386,1,149.26810000002385,0,8,8,7,1,1.2,0.7,Time
,,171761,001,w,28,2025-06-03_15h18.36.443,Serial_Dependence_U,2023.2.3,Win32,59.88023952095548,,,,,,149.26929999995232,263,0,149.27019999992848,263,,,,153.4236999999285,153.9161999999285,152.90839999997615,153.4236999999285,150.2746999999285,152.90819999992848,153.9161999999285,154.4161999999285,154.41639999997616,155.92319999992847,167,155.92319999992847,1,156.9165,0,9,9,29,1,1.6,0.7,Time
,,171761,001,w,28,2025-06-03_15h18.36.443,Serial_Dependence_U,2023.2.3,Win32,59.88023952095548,,,,,,156.91760000002384,150,0,156.91829999995232,150,,,,160.29039999997616,160.78750000000002,159.78879999995232,160.2901999999285,157.92100000000002,159.7886999999285,160.78750000000002,161.28229999995233,161.2825,161.82279999995234,149,161.823,1,162.81510000002385,0,10,10,0,1,0.8,0.3,Time
,,171761,001,w,28,2025-06-03_15h18.36.443,Serial_Dependence_U,2023.2.3,Win32,59.88023952095548,,,,,,162.81589999997618,168,0,162.81610000002385,168,,,,166.15650000000002,166.64789999997618,165.63939999997618,166.15639999997617,163.80619999992848,165.63929999995233,166.64800000000002,167.1475,167.1475,168.70600000000002,151,168.70610000002387,1,169.7001999999285,0,11,11,15,1,0.8,0.7,Time
,,171761,001,w,28,2025-06-03_15h18.36.443,Serial_Dependence_U,2023.2.3,Win32,59.88023952095548,,,,,,169.70060000002385,198,0,169.70060000002385,198,,,,173.2535,173.74629999995233,172.73869999992849,173.25329999995233,170.70600000000002,172.73839999997617,173.74629999995233,174.24739999997618,174.24739999997618,175.85529999995234,166,175.85539999997616,1,176.84660000002384,0,12,12,16,1,1,0.7,Time
,,171761,001,w,28,2025-06-03_15h18.36.443,Serial_Dependence_U,2023.2.3,Win32,59.88023952095548,,,,,,176.8475,9,0,176.848,9,,,,180.8205,181.31239999997618,180.3191999999285,180.82039999997616,177.8545,180.31910000002387,181.31239999997618,181.81619999992847,181.81619999992847,183.4205,184,183.42069999992847,1,184.41229999995232,0,13,13,23,1,1.4,0.3,Time
,,171761,001,w,28,2025-06-03_15h18.36.443,Serial_Dependence_U,2023.2.3,Win32,59.88023952095548,,,,,,184.41329999995233,234,0,184.4136999999285,234,,,,188.56960000002385,189.06160000002384,188.05339999997616,188.56939999997616,185.42000000000002,188.0531999999285,189.06160000002384,189.56139999997617,189.56150000000002,191.31939999997616,166,191.3195,1,192.311,0,14,14,9,1,1.6,0.7,Time
,,171761,001,w,28,2025-06-03_15h18.36.443,Serial_Dependence_U,2023.2.3,Win32,59.88023952095548,,,,,,192.3117999999523,116,0,192.31210000002386,116,,,,195.68539999997617,196.17629999995233,195.16789999997616,195.685,193.31900000000002,195.16779999995234,196.17639999997616,196.67639999997616,196.67639999997616,196.98410000002386,179,196.98410000002386,1,197.97650000000002,0,15,15,25,1,0.8,0.7,Time
,,171761,001,w,28,2025-06-03_15h18.36.443,Serial_Dependence_U,2023.2.3,Win32,59.88023952095548,,,,,,197.97689999997615,22,0,197.977,22,,,,201.96810000002384,202.45939999997617,201.45110000002384,201.96789999997617,198.98460000002385,201.45089999997617,202.45939999997617,202.95910000002385,202.95919999992847,204.11760000002386,150,204.11769999992848,1,205.10860000002384,0,16,16,13,1,1.4,0.3,Time
,,171761,001,w,28,2025-06-03_15h18.36.443,Serial_Dependence_U,2023.2.3,Win32,59.88023952095548,,,,,,205.109,244,0,205.10910000002386,244,,,,209.26689999997618,209.75789999997616,208.76579999995232,209.26660000002386,206.1001999999285,208.76569999992847,209.75789999997616,210.25819999992848,210.25829999995233,210.86700000000002,168,210.86710000002384,1,211.8655,0,17,17,4,1,1.6,0.3,Time
,,171761,001,w,28,2025-06-03_15h18.36.443,Serial_Dependence_U,2023.2.3,Win32,59.88023952095548,,,,,,211.86619999992848,280,0,211.86679999995232,280,,,,215.23310000002385,215.72939999997618,214.71629999995233,215.23289999997615,212.86410000002385,214.71610000002386,215.72939999997618,216.22360000002385,216.22360000002385,216.8816999999285,183,216.88179999995234,1,217.87360000002386,0,18,18,5,1,0.8,0.7,Time
,,171761,001,w,28,2025-06-03_15h18.36.443,Serial_Dependence_U,2023.2.3,Win32,59.88023952095548,,,,,,217.8742999999523,329,0,217.87469999992848,329,,,,221.46489999997618,221.9565,220.94729999995232,221.46479999995233,218.88160000002387,220.94719999992847,221.9565,222.45639999997616,222.4565,223.3476999999285,150,223.34789999997616,1,224.3466999999285,0,19,19,21,1,1,0.3,Time
,,171761,001,w,28,2025-06-03_15h18.36.443,Serial_Dependence_U,2023.2.3,Win32,59.88023952095548,,,,,,224.3475,274,0,224.34810000002386,274,,,,228.09719999992848,228.58910000002385,227.57989999997616,228.097,225.3476999999285,227.5796999999285,228.5891999999285,229.08860000002386,229.08869999992848,229.76319999992847,150,229.76329999995232,1,230.75489999997617,0,20,20,17,1,1.2,0.7,Time
,,171761,001,w,28,2025-06-03_15h18.36.443,Serial_Dependence_U,2023.2.3,Win32,59.88023952095548,,,,,,230.75579999995233,189,0,230.75629999995232,189,,,,234.92939999997617,235.42660000002385,234.41250000000002,234.92919999992847,231.74610000002386,234.41229999995232,235.42669999992847,235.92110000002384,235.9211999999285,237.32910000002386,133,237.32919999992848,1,238.32060000002386,0,21,21,24,1,1.6,0.3,Time
,,171761,001,w,28,2025-06-03_15h18.36.443,Serial_Dependence_U,2023.2.3,Win32,59.88023952095548,,,,,,238.32150000000001,267,0,238.32179999995233,267,,,,242.5121999999285,243.00929999995233,241.995,242.512,239.32089999997618,241.99489999997616,243.00929999995233,243.50329999995233,243.50329999995233,244.17679999995232,149,244.17689999997617,1,245.16939999997618,0,22,22,14,1,1.6,0.3,Time
,,171761,001,w,28,2025-06-03_15h18.36.443,Serial_Dependence_U,2023.2.3,Win32,59.88023952095548,,,,,,245.17010000002387,335,0,245.17060000002385,335,,,,248.57710000002385,249.06860000002388,248.05979999995233,248.57679999995233,246.19400000000002,248.05969999992848,249.06869999992847,249.575,249.575,250.19389999997614,168,250.194,1,251.18889999997614,0,23,23,20,1,0.8,0.3,Time
,,171761,001,w,28,2025-06-03_15h18.36.443,Serial_Dependence_U,2023.2.3,Win32,59.88023952095548,,,,,,251.18989999997612,132,0,251.19019999992847,132,,,,255.14239999997616,255.63999999999996,254.62510000002382,255.14229999995231,252.19299999999996,254.62499999999997,255.63999999999996,256.1378999999761,256.138,256.7926999999284,132,256.79279999995225,1,257.78419999992843,0,24,24,28,1,1.4,0.7,Time
,,171761,001,w,28,2025-06-03_15h18.36.443,Serial_Dependence_U,2023.2.3,Win32,59.88023952095548,,,,,,257.7846999999284,130,0,257.78479999995227,130,,,,261.57499999999993,262.0668999999761,261.05839999997613,261.5747999999523,258.7917999999523,261.05819999992843,262.0671000000238,262.56649999999996,262.5666000000238,264.1746000000238,133,264.1746999999284,1,265.1692999999523,0,25,25,12,1,1.2,0.3,Time
,,171761,001,w,28,2025-06-03_15h18.36.443,Serial_Dependence_U,2023.2.3,Win32,59.88023952095548,,,,,,265.1696999999284,107,0,265.16979999995226,107,,,,268.72399999999993,269.2158999999761,268.2068999999761,268.7238999999761,266.1712999999523,268.2067999999523,269.21599999999995,269.7223999999761,269.7226000000238,270.8406000000238,166,270.8406999999284,1,271.8318999999761,0,26,26,6,1,1,0.7,Time
,,171761,001,w,28,2025-06-03_15h18.36.443,Serial_Dependence_U,2023.2.3,Win32,59.88023952095548,,,,,,271.8327999999523,19,0,271.8331000000238,19,,,,275.8227999999523,276.3146000000238,275.30679999995226,275.8226000000238,272.83949999999993,275.3066000000238,276.31469999992845,276.8148999999761,276.81499999999994,279.2867999999523,115,279.28689999997613,1,280.28079999995225,0,27,27,3,1,1.4,0.3,Time
,,171761,001,w,28,2025-06-03_15h18.36.443,Serial_Dependence_U,2023.2.3,Win32,59.88023952095548,,,,,,280.2813999999761,298,0,280.28189999997613,298,,,,283.6716000000238,284.16369999992844,283.1548999999761,283.67139999997613,281.2883999999761,283.1546999999284,284.1637999999523,284.66329999995224,284.6633999999761,286.27149999999995,150,286.27169999992844,1,287.26269999992843,0,28,28,10,1,0.8,0.3,Time
,,171761,001,w,28,2025-06-03_15h18.36.443,Serial_Dependence_U,2023.2.3,Win32,59.88023952095548,,,,,,287.2633999999761,176,0,287.2636999999284,176,,,,291.22069999992846,291.71219999992843,290.70329999995226,291.22049999999996,288.2706000000238,290.703,291.7122999999523,292.2123999999761,292.2125,292.9366999999284,150,292.93679999995226,1,293.92849999999993,0,29,29,18,1,1.4,0.7,Time
,,171761,001,w,28,2025-06-03_15h18.36.443,Serial_Dependence_U,2023.2.3,Win32,59.88023952095548,,,,,,293.92929999995226,245,1,320.1148999999761,245,s,26.14779999995227,,323.86529999995224,324.35749999999996,323.3488999999761,323.8651000000238,321.11569999992844,323.3486000000238,324.3576999999284,324.84549999999996,324.8456000000238,326.49699999999996,150,326.4971000000238,1,326.5054999999999,1,0,30,7,1,1.2,0.7,Time
,,171761,001,w,28,2025-06-03_15h18.36.443,Serial_Dependence_U,2023.2.3,Win32,59.88023952095548,,,,,,326.5056999999284,81,1,326.50649999999996,81,,,,330.4957999999523,330.989,329.9816000000238,330.4957999999523,327.5153999999761,329.98139999997613,330.98910000002377,331.4956000000238,331.49569999992843,332.99699999999996,116,332.9971000000238,1,333.0056999999284,1,1,31,13,1,1.4,0.3,Time
,,171761,001,w,28,2025-06-03_15h18.36.443,Serial_Dependence_U,2023.2.3,Win32,59.88023952095548,,,,,,333.006,307,1,333.006,307,,,,336.7976000000238,337.28889999997614,336.2806000000238,336.79729999995226,334.01419999992845,336.2803999999761,337.28899999999993,337.79389999997613,337.7941000000238,338.64619999992846,133,338.64619999992846,1,338.6506000000238,1,2,32,12,1,1.2,0.3,Time
,,171761,001,w,28,2025-06-03_15h18.36.443,Serial_Dependence_U,2023.2.3,Win32,59.88023952095548,,,,,,338.65079999995226,205,1,338.6508999999761,205,,,,342.6293999999761,343.1271000000238,342.1128999999761,342.6291999999284,339.64469999992843,342.11279999995224,343.1271000000238,343.6251000000238,343.6251000000238,346.6601000000238,144,346.6601000000238,1,346.66529999995225,1,3,33,3,1,1.4,0.3,Time
,,171761,001,w,28,2025-06-03_15h18.36.443,Serial_Dependence_U,2023.2.3,Win32,59.88023952095548,,,,,,346.66549999999995,232,1,346.66549999999995,232,,,,350.6101000000238,351.10279999995225,350.09499999999997,350.6101000000238,347.66189999997613,350.0947999999523,351.1028999999761,351.60329999995224,351.6033999999761,353.2283999999761,150,353.22849999999994,1,353.239,1,4,34,28,1,1.4,0.7,Time
,,171761,001,w,28,2025-06-03_15h18.36.443,Serial_Dependence_U,2023.2.3,Win32,59.88023952095548,,,,,,353.2391999999284,155,1,353.23929999995227,155,,,,356.9936000000238,357.48549999999994,356.4776000000238,356.9934999999999,354.2421999999284,356.47749999999996,357.48569999992844,357.98569999992844,357.9857999999523,358.72729999995227,167,358.7273999999761,1,358.7391999999284,1,5,35,17,1,1.2,0.7,Time
,,171761,001,w,28,2025-06-03_15h18.36.443,Serial_Dependence_U,2023.2.3,Win32,59.88023952095548,,,,,,358.7396000000238,74,1,358.7396999999284,74,,,,362.8926999999284,363.38449999999995,362.3906999999284,362.89239999997613,359.7586999999284,362.3905,363.3846000000238,363.8841000000238,363.8841000000238,366.1927999999523,167,366.19289999997613,1,366.20399999999995,1,6,36,19,1,1.6,0.7,Time
,,171761,001,w,28,2025-06-03_15h18.36.443,Serial_Dependence_U,2023.2.3,Win32,59.88023952095548,,,,,,366.2043999999761,125,1,366.20449999999994,125,,,,369.5919999999999,370.08349999999996,369.0753999999761,369.59189999997614,367.20899999999995,369.0752999999523,370.08349999999996,370.58329999995226,370.5833999999761,371.8751000000238,151,371.87519999992844,1,371.88810000002377,1,7,37,0,1,0.8,0.3,Time
,,171761,001,w,28,2025-06-03_15h18.36.443,Serial_Dependence_U,2023.2.3,Win32,59.88023952095548,,,,,,371.8883999999761,232,1,371.88849999999996,232,,,,375.2583999999761,375.74929999995226,374.7412999999523,375.2581999999284,372.90579999995225,374.74099999999993,375.7493999999761,376.2558999999761,376.256,377.3911999999284,150,377.39129999995225,1,377.40419999992844,1,8,38,25,1,0.8,0.7,Time
,,171761,001,w,28,2025-06-03_15h18.36.443,Serial_Dependence_U,2023.2.3,Win32,59.88023952095548,,,,,,377.40439999997614,273,1,377.4046000000238,273,,,,380.9738999999761,381.46779999995226,380.4712999999523,380.9737999999523,378.4072999999523,380.47119999992844,381.46779999995226,381.9646999999284,381.9647999999523,382.58939999997614,116,382.58949999999993,1,382.59869999992844,1,9,39,1,1,1,0.3,Time
,,171761,001,w,28,2025-06-03_15h18.36.443,Serial_Dependence_U,2023.2.3,Win32,59.88023952095548,,,,,,382.5988999999761,117,1,382.59899999999993,117,,,,386.3392999999523,386.83079999995226,385.8381999999284,386.33919999992844,383.6066000000238,385.83799999999997,386.83079999995226,387.3376999999284,387.3378999999761,387.5061000000238,150,387.5061999999284,1,387.51669999992845,1,10,40,27,1,1.2,0.7,Time
,,171761,001,w,28,2025-06-03_15h18.36.443,Serial_Dependence_U,2023.2.3,Win32,59.88023952095548,,,,,,387.51699999999994,125,1,387.51719999992844,125,,,,390.8728999999761,391.3637999999523,390.35549999999995,390.87269999992844,388.52239999997613,390.35529999995225,391.3638999999761,391.86339999997614,391.8636000000238,392.0056000000238,116,392.0056999999284,1,392.01719999992844,1,11,41,5,1,0.8,0.7,Time
,,171761,001,w,28,2025-06-03_15h18.36.443,Serial_Dependence_U,2023.2.3,Win32,59.88023952095548,,,,,,392.01739999997613,129,1,392.0174999999999,129,,,,395.37149999999997,395.86279999995224,394.8546000000238,395.3711999999284,393.0217999999523,394.8545,395.8628999999761,396.36299999999994,396.36299999999994,396.6881000000238,100,396.6881000000238,1,396.69719999992844,1,12,42,15,1,0.8,0.7,Time
,,171761,001,w,28,2025-06-03_15h18.36.443,Serial_Dependence_U,2023.2.3,Win32,59.88023952095548,,,,,,396.6973999999761,306,1,396.69749999999993,306,,,,400.6541000000238,401.14549999999997,400.13739999997614,400.6538999999761,397.7042999999523,400.13719999992844,401.14549999999997,401.6456000000238,401.6456999999284,402.23729999995226,150,402.23749999999995,1,402.2477999999523,1,13,43,18,1,1.4,0.7,Time
,,171761,001,w,28,2025-06-03_15h18.36.443,Serial_Dependence_U,2023.2.3,Win32,59.88023952095548,,,,,,402.2481000000238,148,1,402.2481000000238,148,,,,405.63419999992846,406.12769999992844,405.1202999999523,405.6341000000238,403.2531000000238,405.11999999999995,406.12769999992844,406.6277999999523,406.6277999999523,407.1841999999284,116,407.1841999999284,1,407.1902999999523,1,14,44,10,1,0.8,0.3,Time
,,171761,001,w,28,2025-06-03_15h18.36.443,Serial_Dependence_U,2023.2.3,Win32,59.88023952095548,,,,,,407.19049999999993,302,1,407.19049999999993,302,,,,410.5691000000238,411.0641000000238,410.05229999995225,410.5688999999761,408.186,410.0518999999761,411.0641000000238,411.56089999997613,411.56110000002377,412.00249999999994,133,412.00269999992844,1,412.01310000002377,1,15,45,20,1,0.8,0.3,Time
,,171761,001,w,28,2025-06-03_15h18.36.443,Serial_Dependence_U,2023.2.3,Win32,59.88023952095548,,,,,,412.01329999995227,7,1,412.0133999999761,7,,,,415.9703999999761,416.4601999999284,415.4521000000238,415.9701999999284,413.0181999999284,415.45199999999994,416.4601999999284,416.9601999999284,416.9603999999761,417.6186000000238,166,417.6186999999284,1,417.6296000000238,1,16,46,8,1,1.4,0.7,Time
,,171761,001,w,28,2025-06-03_15h18.36.443,Serial_Dependence_U,2023.2.3,Win32,59.88023952095548,,,,,,417.6298999999761,37,1,417.6298999999761,37,,,,421.78399999999993,422.2767999999523,421.26719999992844,421.7838999999761,418.6336000000238,421.26699999999994,422.2767999999523,422.78189999997613,422.7819999999999,423.3673999999761,133,423.3676000000238,1,423.37749999999994,1,17,47,9,1,1.6,0.7,Time
,,171761,001,w,28,2025-06-03_15h18.36.443,Serial_Dependence_U,2023.2.3,Win32,59.88023952095548,,,,,,423.3777999999523,223,1,423.3777999999523,223,,,,427.53299999999996,428.0247999999523,427.0168999999761,427.53279999995226,424.38379999995226,427.0167999999523,428.0247999999523,428.52510000002377,428.52529999995227,428.89879999995225,100,428.8988999999761,1,428.90919999992843,1,18,48,29,1,1.6,0.7,Time
,,171761,001,w,28,2025-06-03_15h18.36.443,Serial_Dependence_U,2023.2.3,Win32,59.88023952095548,,,,,,428.90939999997613,124,1,428.9095,124,,,,432.4633999999761,432.9576000000238,431.9473999999761,432.4633999999761,429.9162999999523,431.9472999999523,432.9576999999284,433.45669999992845,433.45669999992845,434.28189999997613,163,434.2819999999999,1,434.29079999995224,1,19,49,26,1,1,0.7,Time
,,171761,001,w,28,2025-06-03_15h18.36.443,Serial_Dependence_U,2023.2.3,Win32,59.88023952095548,,,,,,434.29099999999994,109,1,434.29099999999994,109,,,,438.48139999997613,438.97249999999997,437.9648999999761,438.4811000000238,435.2978999999761,437.9647999999523,438.9726000000238,439.47319999992845,439.47329999995225,439.6302999999523,83,439.6302999999523,1,439.64149999999995,1,20,50,4,1,1.6,0.3,Time
,,171761,001,w,28,2025-06-03_15h18.36.443,Serial_Dependence_U,2023.2.3,Win32,59.88023952095548,,,,,,439.64169999992845,109,1,439.6417999999523,109,,,,443.21419999992844,443.7058999999761,442.69749999999993,443.21399999999994,440.6651000000238,442.6973999999761,443.7058999999761,444.1941000000238,444.19429999995225,445.11269999992845,132,445.11279999995224,1,445.1186999999284,1,21,51,6,1,1,0.7,Time
,,171761,001,w,28,2025-06-03_15h18.36.443,Serial_Dependence_U,2023.2.3,Win32,59.88023952095548,,,,,,445.1188999999761,343,1,445.11899999999997,343,,,,449.11029999995225,449.60549999999995,448.5961000000238,449.11019999992845,446.1298999999761,448.5958999999761,449.60549999999995,450.1048999999761,450.1051000000238,452.0298999999761,133,452.03,1,452.04249999999996,1,22,52,23,1,1.4,0.3,Time
,,171761,001,w,28,2025-06-03_15h18.36.443,Serial_Dependence_U,2023.2.3,Win32,59.88023952095548,,,,,,452.04279999995225,278,1,452.0428999999761,278,,,,456.22869999992844,456.72079999995225,455.7125,456.2286000000238,453.04599999999994,455.7125,456.7208999999761,457.22049999999996,457.22049999999996,464.46029999995227,84,464.4603999999761,1,464.47069999992846,1,23,53,24,1,1.6,0.3,Time
,,171761,001,w,28,2025-06-03_15h18.36.443,Serial_Dependence_U,2023.2.3,Win32,59.88023952095548,,,,,,464.47099999999995,32,1,464.4711000000238,32,,,,468.0267999999523,468.51829999995226,467.5105,468.0266000000238,465.4776999999284,467.5102999999523,468.5183999999761,469.0186999999284,469.01879999995225,469.5778999999761,150,469.5778999999761,1,469.5851000000238,1,24,54,16,1,1,0.7,Time
,,171761,001,w,28,2025-06-03_15h18.36.443,Serial_Dependence_U,2023.2.3,Win32,59.88023952095548,,,,,,469.5853999999761,301,1,469.58549999999997,301,,,,473.15979999995227,473.655,472.6583999999761,473.1596999999284,470.5937999999523,472.65819999992846,473.6551000000238,474.15129999995224,474.1513999999761,480.80879999995227,150,480.8088999999761,1,480.81789999997613,1,25,55,21,1,1,0.3,Time
,,171761,001,w,28,2025-06-03_15h18.36.443,Serial_Dependence_U,2023.2.3,Win32,59.88023952095548,,,,,,480.8181999999284,299,1,480.8182999999523,299,,,,484.60779999995225,485.0992999999523,484.0912999999523,484.60779999995225,481.82499999999993,484.0911000000238,485.0992999999523,485.6051000000238,485.6051999999284,485.9906000000238,119,485.9906000000238,1,485.99729999995225,1,26,56,2,1,1.2,0.3,Time
,,171761,001,w,28,2025-06-03_15h18.36.443,Serial_Dependence_U,2023.2.3,Win32,59.88023952095548,,,,,,485.9973999999761,245,1,485.99749999999995,245,,,,490.1886999999284,490.6876000000238,489.6731000000238,490.1885,487.0073999999761,489.6728999999761,490.6876000000238,491.1827999999523,491.1828999999761,491.64879999995225,109,491.6488999999761,1,491.6578999999761,1,27,57,14,1,1.6,0.3,Time
,,171761,001,w,28,2025-06-03_15h18.36.443,Serial_Dependence_U,2023.2.3,Win32,59.88023952095548,,,,,,491.6581000000238,16,1,491.65829999995225,16,,,,495.25629999995226,495.74799999999993,494.7396000000238,495.25629999995226,492.67349999999993,494.7393999999761,495.7481000000238,496.2368999999761,496.23699999999997,496.77329999995226,150,496.7733999999761,1,496.78319999992846,1,28,58,11,1,1,0.3,Time
,,171761,001,w,28,2025-06-03_15h18.36.443,Serial_Dependence_U,2023.2.3,Win32,59.88023952095548,,,,,,496.7836000000238,64,1,496.78369999992844,64,,,,500.57199999999995,501.0636999999284,500.05589999997613,500.57179999995225,497.7891000000238,500.05569999992844,501.06379999995227,501.56299999999993,501.56299999999993,502.0797999999523,135,502.07989999997613,1,502.0843999999761,1,29,59,22,1,1.2,0.3,Time
,,171761,001,w,28,2025-06-03_15h18.36.443,Serial_Dependence_U,2023.2.3,Win32,59.88023952095548,,,,,,502.0846000000238,74,2,517.6401000000238,74,s,15.516100000023812,,521.8021000000238,522.2936999999284,521.2858999999761,521.8019999999999,518.645,521.2856999999284,522.2936999999284,522.7814999999999,522.7816000000238,523.3521000000238,125,523.3522999999523,1,523.3618999999761,2,0,60,29,1,1.6,0.7,Time
,,171761,001,w,28,2025-06-03_15h18.36.443,Serial_Dependence_U,2023.2.3,Win32,59.88023952095548,,,,,,523.3621000000238,222,2,523.3631999999284,222,,,,527.3098999999761,527.8131999999284,526.8011999999284,527.3097999999522,524.3672999999523,526.8009999999999,527.8131999999284,528.3098999999761,528.31,528.8011000000238,133,528.8011999999284,1,528.8096999999284,2,1,61,28,1,1.4,0.7,Time
,,171761,001,w,28,2025-06-03_15h18.36.443,Serial_Dependence_U,2023.2.3,Win32,59.88023952095548,,,,,,528.8098999999761,197,2,528.8098999999761,197,,,,532.5667999999523,533.0621000000237,532.0502999999522,532.5666999999285,529.8161999999285,532.0501999999284,533.0621999999285,533.559,533.559,533.934,133,533.9341000000238,1,533.9438999999761,2,2,62,17,1,1.2,0.7,Time
,,171761,001,w,28,2025-06-03_15h18.36.443,Serial_Dependence_U,2023.2.3,Win32,59.88023952095548,,,,,,533.9441999999284,26,2,533.9442999999522,26,,,,537.3331999999284,537.8247999999522,536.8164999999999,537.3327999999523,534.9496999999284,536.8162999999523,537.8248999999761,538.3246999999284,538.3248999999761,539.2163999999761,158,539.2165,1,539.2271000000238,2,3,63,0,1,0.8,0.3,Time
,,171761,001,w,28,2025-06-03_15h18.36.443,Serial_Dependence_U,2023.2.3,Win32,59.88023952095548,,,,,,539.2273999999761,231,2,539.2275,231,,,,542.6155,543.1132999999522,542.0988999999761,542.6152999999523,540.2326000000238,542.0986999999284,543.1133999999761,543.6134999999999,543.6136000000238,544.0997999999523,120,544.0998999999761,1,544.1138999999761,2,4,64,10,1,0.8,0.3,Time
,,171761,001,w,28,2025-06-03_15h18.36.443,Serial_Dependence_U,2023.2.3,Win32,59.88023952095548,,,,,,544.1141000000238,277,2,544.1142999999523,277,,,,548.0646000000238,548.5564999999999,547.5486999999284,548.0645,545.1151000000237,547.5485,548.5566000000238,549.0601999999284,549.0601999999284,549.6816000000238,118,549.6816999999285,1,549.692,2,5,65,8,1,1.4,0.7,Time
,,171761,001,w,28,2025-06-03_15h18.36.443,Serial_Dependence_U,2023.2.3,Win32,59.88023952095548,,,,,,549.6922999999523,190,2,549.6925,190,,,,553.2973999999762,553.7947999999523,552.7803999999761,553.2969999999999,550.7058999999762,552.7801999999284,553.7947999999523,554.2887999999523,554.2888999999761,555.1144999999999,150,555.1146000000238,1,555.1256000000238,2,6,66,21,1,1,0.3,Time
,,171761,001,w,28,2025-06-03_15h18.36.443,Serial_Dependence_U,2023.2.3,Win32,59.88023952095548,,,,,,555.126,270,2,555.126,270,,,,559.1131000000238,559.604899999976,558.5965,559.1128999999761,556.1292999999523,558.5965,559.6051000000238,560.1111999999284,560.1112999999523,560.5947999999522,132,560.5948999999761,1,560.6031000000238,2,7,67,3,1,1.4,0.3,Time
,,171761,001,w,28,2025-06-03_15h18.36.443,Serial_Dependence_U,2023.2.3,Win32,59.88023952095548,,,,,,560.6032999999522,112,2,560.6033999999761,112,,,,564.1801000000238,564.6706999999284,563.6787999999523,564.1798999999761,561.6056000000237,563.6786000000238,564.6707999999522,565.1712999999522,565.1713999999761,567.029,183,567.0291000000238,1,567.0405,2,8,68,1,1,1,0.3,Time
,,171761,001,w,28,2025-06-03_15h18.36.443,Serial_Dependence_U,2023.2.3,Win32,59.88023952095548,,,,,,567.0407999999522,128,2,567.0408999999761,128,,,,571.2111999999285,571.7031000000238,570.6948999999761,571.2108999999762,568.0616000000238,570.6946999999284,571.7031999999284,572.2027999999523,572.2028999999761,575.0108999999761,166,575.0108999999761,1,575.0195,2,9,69,19,1,1.6,0.7,Time
,,171761,001,w,28,2025-06-03_15h18.36.443,Serial_Dependence_U,2023.2.3,Win32,59.88023952095548,,,,,,575.0197999999523,215,2,575.0197999999523,215,,,,578.6099999999999,579.1016000000238,578.0936999999284,578.6097999999523,576.0268999999761,578.0935,579.1016999999284,579.6015,579.6016999999284,580.1286999999285,167,580.1289999999999,1,580.1372999999522,2,10,70,11,1,1,0.3,Time
,,171761,001,w,28,2025-06-03_15h18.36.443,Serial_Dependence_U,2023.2.3,Win32,59.88023952095548,,,,,,580.1376999999284,67,2,580.1378999999761,67,,,,583.6927999999523,584.1872999999523,583.1761000000238,583.6926000000238,581.1431999999285,583.1759999999999,584.1872999999523,584.6841000000238,584.6842999999523,585.293,133,585.2931000000237,1,585.2936999999284,2,11,71,6,1,1,0.7,Time
,,171761,001,w,28,2025-06-03_15h18.36.443,Serial_Dependence_U,2023.2.3,Win32,59.88023952095548,,,,,,585.2941999999284,243,2,585.2943999999761,243,,,,589.0916999999284,589.5863999999762,588.5752999999522,589.0915,586.3066000000238,588.5751000000238,589.5863999999762,590.0836000000238,590.0836000000238,590.9586999999284,133,590.9588999999761,1,590.9701000000238,2,12,72,2,1,1.2,0.3,Time
,,171761,001,w,28,2025-06-03_15h18.36.443,Serial_Dependence_U,2023.2.3,Win32,59.88023952095548,,,,,,590.9703999999762,188,2,590.9704999999999,188,,,,594.7563999999761,595.2491999999285,594.2408999999761,594.7561999999284,591.9746000000238,594.2407999999523,595.2492999999523,595.7489999999999,595.7491999999285,596.0077999999522,167,596.0079999999999,1,596.0192999999523,2,13,73,12,1,1.2,0.3,Time
,,171761,001,w,28,2025-06-03_15h18.36.443,Serial_Dependence_U,2023.2.3,Win32,59.88023952095548,,,,,,596.0195,224,2,596.0196999999284,224,,,,600.0068999999761,600.502,599.4902999999523,600.0066000000238,597.0241000000239,599.4901000000237,600.502,601.0033999999761,601.0033999999761,601.5885,149,601.5886999999284,1,601.5953999999762,2,14,74,13,1,1.4,0.3,Time
,,171761,001,w,28,2025-06-03_15h18.36.443,Serial_Dependence_U,2023.2.3,Win32,59.88023952095548,,,,,,601.5956000000238,199,2,601.5956999999285,199,,,,604.9561000000238,605.4475,604.4385,604.9559999999999,602.607,604.4382999999523,605.4476000000238,605.9503999999761,605.9503999999761,606.5721999999284,166,606.5725,1,606.5811999999285,2,15,75,15,1,0.8,0.7,Time
,,171761,001,w,28,2025-06-03_15h18.36.443,Serial_Dependence_U,2023.2.3,Win32,59.88023952095548,,,,,,606.5815,100,2,606.5816999999284,100,,,,610.3387999999522,610.8306000000238,609.8217999999523,610.3386000000238,607.5889999999999,609.8216000000237,610.8306999999285,611.3301999999285,611.3301999999285,611.7887999999523,216,611.7888999999761,1,611.7998999999761,2,16,76,7,1,1.2,0.7,Time
,,171761,001,w,28,2025-06-03_15h18.36.443,Serial_Dependence_U,2023.2.3,Win32,59.88023952095548,,,,,,611.8001000000238,329,2,611.8001999999284,329,,,,615.3543999999761,615.8526000000238,614.8376999999284,615.3541999999285,612.8027999999523,614.8375,615.8526000000238,616.3531000000238,616.3531000000238,617.4367999999523,149,617.4368999999762,1,617.4472999999523,2,17,77,26,1,1,0.7,Time
,,171761,001,w,28,2025-06-03_15h18.36.443,Serial_Dependence_U,2023.2.3,Win32,59.88023952095548,,,,,,617.4475,156,2,617.4476000000238,156,,,,621.2033999999761,621.6953999999761,620.6871000000237,621.2031000000238,618.4511999999285,620.6867999999523,621.6953999999761,622.2016999999285,622.2017999999523,622.8038999999761,150,622.804,1,622.8143999999761,2,18,78,27,1,1.2,0.7,Time
,,171761,001,w,28,2025-06-03_15h18.36.443,Serial_Dependence_U,2023.2.3,Win32,59.88023952095548,,,,,,622.8146999999284,243,2,622.8147999999522,243,,,,626.6026999999284,627.1004999999999,626.0859999999999,626.6026000000238,623.8195,626.0857999999523,627.1006999999285,627.5946000000238,627.5948999999761,628.1336999999285,115,628.1336999999285,1,628.1381000000238,2,19,79,22,1,1.2,0.3,Time
,,171761,001,w,28,2025-06-03_15h18.36.443,Serial_Dependence_U,2023.2.3,Win32,59.88023952095548,,,,,,628.1382999999523,282,2,628.1383999999761,282,,,,631.6853999999761,632.1771000000238,631.1687999999523,631.6851000000238,629.1356999999284,631.1686999999284,632.1771999999285,632.6667999999522,632.6667999999522,632.8848999999761,133,632.885,1,632.896,2,20,80,16,1,1,0.7,Time
,,171761,001,w,28,2025-06-03_15h18.36.443,Serial_Dependence_U,2023.2.3,Win32,59.88023952095548,,,,,,632.8962999999522,175,2,632.8963999999761,175,,,,636.8842999999523,637.3766999999284,636.3681000000238,636.8841999999285,633.9006999999284,636.3679999999999,637.3766999999284,637.8666999999284,637.8667999999523,638.2332999999522,116,638.2332999999522,1,638.2426000000238,2,21,81,23,1,1.4,0.3,Time
,,171761,001,w,28,2025-06-03_15h18.36.443,Serial_Dependence_U,2023.2.3,Win32,59.88023952095548,,,,,,638.2428999999761,10,2,638.2429999999999,10,,,,642.4337999999523,642.9254999999999,641.9171000000238,642.4335,639.2508999999761,641.9169999999999,642.9254999999999,643.4137999999523,643.4138999999761,646.5002999999523,183,646.5005,1,646.5011999999284,2,22,82,4,1,1.6,0.3,Time
,,171761,001,w,28,2025-06-03_15h18.36.443,Serial_Dependence_U,2023.2.3,Win32,59.88023952095548,,,,,,646.5016999999284,242,2,646.5018999999761,242,,,,649.8491999999284,650.3406999999285,649.3326999999284,649.8489999999999,647.4994999999999,649.3325,650.3406999999285,650.8309999999999,650.8311000000238,651.8493999999761,132,651.8494999999999,1,651.8617999999523,2,23,83,5,1,0.8,0.7,Time
,,171761,001,w,28,2025-06-03_15h18.36.443,Serial_Dependence_U,2023.2.3,Win32,59.88023952095548,,,,,,651.8621999999284,93,2,651.8622999999523,93,,,,656.0482999999523,656.5396999999284,655.5316999999284,656.048,652.8656999999284,655.5314999999999,656.5397999999523,657.0401000000238,657.0402999999523,657.5967999999523,167,657.597,1,657.6053999999762,2,24,84,24,1,1.6,0.3,Time
,,171761,001,w,28,2025-06-03_15h18.36.443,Serial_Dependence_U,2023.2.3,Win32,59.88023952095548,,,,,,657.6061000000238,72,2,657.6061999999284,72,,,,660.9976999999284,661.495,660.4816000000238,660.9975,658.6142999999523,660.4813999999761,661.4951000000237,661.9891999999285,661.9891999999285,662.8646000000238,150,662.8646999999285,1,662.8755,2,25,85,20,1,0.8,0.3,Time
,,171761,001,w,28,2025-06-03_15h18.36.443,Serial_Dependence_U,2023.2.3,Win32,59.88023952095548,,,,,,662.8756999999284,164,2,662.8757999999523,164,,,,666.2222999999523,666.7217999999523,665.7133999999761,666.2222999999523,663.8734999999999,665.7132999999523,666.7218999999761,667.222,667.2221999999284,667.5608999999761,133,667.5608999999761,1,667.5652999999522,2,26,86,25,1,0.8,0.7,Time
,,171761,001,w,28,2025-06-03_15h18.36.443,Serial_Dependence_U,2023.2.3,Win32,59.88023952095548,,,,,,667.5654999999999,16,2,667.5654999999999,16,,,,671.7456999999284,672.2376999999284,671.2446000000238,671.7453999999761,668.5786999999284,671.2444999999999,672.2376999999284,672.7266999999284,672.7266999999284,673.5127999999522,283,673.5129999999999,1,673.5242999999523,2,27,87,14,1,1.6,0.3,Time
,,171761,001,w,28,2025-06-03_15h18.36.443,Serial_Dependence_U,2023.2.3,Win32,59.88023952095548,,,,,,673.5243999999761,238,2,673.5245,238,,,,677.4782999999522,677.9699999999999,676.9617999999523,677.478,674.5288999999761,676.9616999999284,677.9699999999999,678.4701999999285,678.4702999999523,679.0116000000238,133,679.0116999999284,1,679.0231999999285,2,28,88,18,1,1.4,0.7,Time
,,171761,001,w,28,2025-06-03_15h18.36.443,Serial_Dependence_U,2023.2.3,Win32,59.88023952095548,,,,,,679.0236000000237,61,2,679.0236000000237,61,,,,683.1776000000237,683.6691000000238,682.6611000000238,683.1773999999762,680.0277999999523,682.6608999999761,683.6691999999284,684.1692999999523,684.1693999999761,684.8106999999284,186,684.8108999999761,1,684.8213999999762,2,29,89,9,1,1.6,0.7,Time
,,171761,001,w,28,2025-06-03_15h18.36.443,Serial_Dependence_U,2023.2.3,Win32,59.88023952095548,,,,,,684.8216999999285,4,3,702.078,4,s,17.22950000000003,,706.0072999999522,706.4989999999999,705.5065,706.0071000000238,703.0746999999284,705.5063999999761,706.4991000000238,706.9986999999285,706.9987999999523,707.2826999999285,125,707.2826999999285,1,707.2831000000238,3,0,90,28,1,1.4,0.7,Time
,,171761,001,w,28,2025-06-03_15h18.36.443,Serial_Dependence_U,2023.2.3,Win32,59.88023952095548,,,,,,707.2833999999762,258,3,707.285,258,,,,711.2731999999285,711.7703999999761,710.7563999999761,711.2729999999999,708.2907999999522,710.7561999999284,711.7703999999761,712.2653999999761,712.2655,715.6804999999999,137,715.6804999999999,1,715.6851000000238,3,1,91,23,1,1.4,0.3,Time
,,171761,001,w,28,2025-06-03_15h18.36.443,Serial_Dependence_U,2023.2.3,Win32,59.88023952095548,,,,,,715.6852999999522,208,3,715.6853999999761,208,,,,719.2386000000238,719.7301999999285,718.7225,719.2382999999522,716.6886000000238,718.7222999999523,719.7301999999285,720.2365,720.2365,720.6057999999523,243,720.6058999999761,1,720.6063999999761,3,2,92,26,1,1,0.7,Time
,,171761,001,w,28,2025-06-03_15h18.36.443,Serial_Dependence_U,2023.2.3,Win32,59.88023952095548,,,,,,720.6068999999761,352,3,720.6071000000238,352,,,,724.5878999999761,725.0857999999523,724.0714999999999,724.5877999999523,721.6033999999761,724.0713999999762,725.0857999999523,725.5793999999761,725.5793999999761,726.4546000000238,150,726.4546999999284,1,726.4646999999285,3,3,93,13,1,1.4,0.3,Time
,,171761,001,w,28,2025-06-03_15h18.36.443,Serial_Dependence_U,2023.2.3,Win32,59.88023952095548,,,,,,726.4651000000238,127,3,726.4651000000238,127,,,,730.246,730.7517999999523,729.7367999999523,730.2457999999523,727.4703999999762,729.7366000000238,730.7518999999761,731.2448999999762,731.245,733.3871999999284,167,733.3873999999761,1,733.3977999999523,3,4,94,2,1,1.2,0.3,Time
,,171761,001,w,28,2025-06-03_15h18.36.443,Serial_Dependence_U,2023.2.3,Win32,59.88023952095548,,,,,,733.3981000000238,328,3,733.3981999999285,328,,,,737.5859999999999,738.0777999999523,737.0686000000238,737.5857999999523,734.4028999999761,737.0683999999761,738.0777999999523,738.5837999999522,738.5837999999522,739.3528999999761,150,739.3528999999761,1,739.3639999999999,3,5,95,24,1,1.6,0.3,Time
,,171761,001,w,28,2025-06-03_15h18.36.443,Serial_Dependence_U,2023.2.3,Win32,59.88023952095548,,,,,,739.3642999999523,323,3,739.3644999999999,323,,,,742.7192999999522,743.2106000000238,742.202,742.7191999999284,740.3686000000238,742.2018999999761,743.2106999999285,743.7096999999284,743.7097999999522,746.5366000000238,184,746.5366999999284,1,746.5456000000238,3,6,96,25,1,0.8,0.7,Time
,,171761,001,w,28,2025-06-03_15h18.36.443,Serial_Dependence_U,2023.2.3,Win32,59.88023952095548,,,,,,746.5459999999999,229,3,746.5459999999999,229,,,,750.1333999999761,750.626,749.6178999999761,750.1331999999285,747.5486000000238,749.6177999999522,750.6261000000238,751.116,751.116,751.6678999999762,133,751.6681000000237,1,751.6783999999761,3,7,97,21,1,1,0.3,Time
,,171761,001,w,28,2025-06-03_15h18.36.443,Serial_Dependence_U,2023.2.3,Win32,59.88023952095548,,,,,,751.6786000000238,70,3,751.6786999999284,70,,,,755.8501999999285,756.3415,755.3335,755.8501000000238,752.7007999999523,755.3331999999284,756.3416000000238,756.8417999999523,756.8418999999761,759.0136000000238,175,759.0136000000238,1,759.0181999999285,3,8,98,19,1,1.6,0.7,Time
,,171761,001,w,28,2025-06-03_15h18.36.443,Serial_Dependence_U,2023.2.3,Win32,59.88023952095548,,,,,,759.0183999999762,240,3,759.0183999999762,240,,,,762.5991999999284,763.0904999999999,762.0821999999284,762.5989999999999,760.0156999999284,762.082,763.0906000000238,763.591,763.5911999999284,764.5987999999522,149,764.5987999999522,1,764.6096999999285,3,9,99,1,1,1,0.3,Time
,,171761,001,w,28,2025-06-03_15h18.36.443,Serial_Dependence_U,2023.2.3,Win32,59.88023952095548,,,,,,764.6099999999999,305,3,764.6101000000237,305,,,,768.3646000000238,768.8563999999761,767.848,768.3642999999523,765.6147999999523,767.8477999999523,768.8563999999761,769.3562999999523,769.3563999999761,769.8981999999285,150,769.8982999999523,1,769.9087999999523,3,10,100,27,1,1.2,0.7,Time
,,171761,001,w,28,2025-06-03_15h18.36.443,Serial_Dependence_U,2023.2.3,Win32,59.88023952095548,,,,,,769.9091000000238,249,3,769.9091999999284,249,,,,773.264,773.7551999999284,772.7621999999284,773.2636999999285,770.9303999999761,772.7621000000238,773.7552999999523,774.2548999999761,774.2548999999761,777.6137999999522,166,777.6139999999999,1,777.6257999999523,3,11,101,15,1,0.8,0.7,Time
,,171761,001,w,28,2025-06-03_15h18.36.443,Serial_Dependence_U,2023.2.3,Win32,59.88023952095548,,,,,,777.626,5,3,777.6261000000238,5,,,,781.4111000000238,781.9041999999284,780.8961999999284,781.4107999999522,778.6265,780.8958999999761,781.9042999999523,782.4041000000238,782.4041999999284,787.462,183,787.4621000000238,1,787.4743999999761,3,12,102,22,1,1.2,0.3,Time
,,171761,001,w,28,2025-06-03_15h18.36.443,Serial_Dependence_U,2023.2.3,Win32,59.88023952095548,,,,,,787.4746000000238,301,3,787.4747999999523,301,,,,791.6272999999522,792.1193999999762,791.1111000000238,791.6271000000238,788.4781000000238,791.111,792.1193999999762,792.6191999999285,792.6191999999285,793.9446000000238,167,793.9447999999522,1,793.9556000000238,3,13,103,9,1,1.6,0.7,Time
,,171761,001,w,28,2025-06-03_15h18.36.443,Serial_Dependence_U,2023.2.3,Win32,59.88023952095548,,,,,,793.9557999999523,261,3,793.9558999999762,261,,,,798.1407999999523,798.6348999999761,797.6266000000238,798.1406999999284,794.9599999999999,797.6263999999761,798.6351000000238,799.1348999999761,799.1348999999761,801.8435,200,801.8435,1,801.8553999999762,3,14,104,4,1,1.6,0.3,Time
,,171761,001,w,28,2025-06-03_15h18.36.443,Serial_Dependence_U,2023.2.3,Win32,59.88023952095548,,,,,,801.8556000000237,258,3,801.8556999999284,258,,,,805.226,805.7228999999761,804.7228999999761,805.2258999999761,802.8591999999285,804.7228999999761,805.7228999999761,806.223,806.2231000000238,806.6595,151,806.6596000000238,1,806.6696000000238,3,15,105,20,1,0.8,0.3,Time
,,171761,001,w,28,2025-06-03_15h18.36.443,Serial_Dependence_U,2023.2.3,Win32,59.88023952095548,,,,,,806.6701000000238,39,3,806.6701000000238,39,,,,810.2555,810.7501000000238,809.7397999999523,810.2553999999761,807.6754999999999,809.7397999999523,810.7501999999284,811.2497999999523,811.2497999999523,812.3895,183,812.3895,1,812.3952999999523,3,16,106,11,1,1,0.3,Time
,,171761,001,w,28,2025-06-03_15h18.36.443,Serial_Dependence_U,2023.2.3,Win32,59.88023952095548,,,,,,812.3953999999761,305,3,812.3955,305,,,,816.5903999999761,817.0825,816.0736999999284,816.5901999999285,813.4082999999523,816.0733999999761,817.0825,817.5822999999523,817.5822999999523,819.5406000000238,150,819.5406999999284,1,819.5518999999761,3,17,107,14,1,1.6,0.3,Time
,,171761,001,w,28,2025-06-03_15h18.36.443,Serial_Dependence_U,2023.2.3,Win32,59.88023952095548,,,,,,819.5521999999285,77,3,819.5522999999523,77,,,,822.906,823.3973999999761,822.3882999999523,822.9058999999761,820.5562999999522,822.3881999999285,823.3974999999999,823.9013999999761,823.9016000000238,828.3389999999999,149,828.3389999999999,1,828.3475,3,18,108,5,1,0.8,0.7,Time
,,171761,001,w,28,2025-06-03_15h18.36.443,Serial_Dependence_U,2023.2.3,Win32,59.88023952095548,,,,,,828.3477999999523,81,3,828.3477999999523,81,,,,831.9048999999761,832.396,831.3883999999761,831.9046999999284,829.3553999999762,831.3881999999285,832.3961000000238,832.8963999999761,832.8963999999761,833.622,150,833.6221999999284,1,833.6323999999761,3,19,109,16,1,1,0.7,Time
,,171761,001,w,28,2025-06-03_15h18.36.443,Serial_Dependence_U,2023.2.3,Win32,59.88023952095548,,,,,,833.6326999999284,185,3,833.6327999999522,185,,,,837.1871000000237,837.6788999999761,836.6706000000238,837.1868999999762,834.6374999999999,836.6703999999761,837.679,838.1786999999284,838.1787999999523,838.3878999999761,168,838.3881000000238,1,838.4006000000238,3,20,110,6,1,1,0.7,Time
,,171761,001,w,28,2025-06-03_15h18.36.443,Serial_Dependence_U,2023.2.3,Win32,59.88023952095548,,,,,,838.4007999999523,63,3,838.401,63,,,,842.1521999999285,842.6447999999523,841.6368999999761,842.1519999999999,839.4038999999761,841.6367999999522,842.6447999999523,843.1492999999523,843.1493999999761,843.7701999999284,116,843.7702999999523,1,843.7795,3,21,111,7,1,1.2,0.7,Time
,,171761,001,w,28,2025-06-03_15h18.36.443,Serial_Dependence_U,2023.2.3,Win32,59.88023952095548,,,,,,843.7796999999284,35,3,843.7796999999284,35,,,,847.7188999999761,848.2107999999523,847.2176999999284,847.7186999999284,844.7858999999761,847.2176999999284,848.2108999999762,848.7103999999761,848.7103999999761,849.4358999999761,183,849.4361000000238,1,849.4471999999284,3,22,112,8,1,1.4,0.7,Time
,,171761,001,w,28,2025-06-03_15h18.36.443,Serial_Dependence_U,2023.2.3,Win32,59.88023952095548,,,,,,849.4475,18,3,849.4475,18,,,,853.6181999999284,854.1096000000238,853.102,853.6179999999999,850.466,853.1017999999523,854.1096000000238,854.6096000000238,854.6097999999523,855.3353999999761,166,855.3356000000238,1,855.3463999999761,3,23,113,29,1,1.6,0.7,Time
,,171761,001,w,28,2025-06-03_15h18.36.443,Serial_Dependence_U,2023.2.3,Win32,59.88023952095548,,,,,,855.3467999999523,89,3,855.3467999999523,89,,,,858.7321000000238,859.2257999999523,858.2172999999523,858.732,856.351,858.217,859.2257999999523,859.7256000000237,859.7256999999285,862.5006999999284,134,862.5007999999523,1,862.5117999999522,3,24,114,0,1,0.8,0.3,Time
,,171761,001,w,28,2025-06-03_15h18.36.443,Serial_Dependence_U,2023.2.3,Win32,59.88023952095548,,,,,,862.5121000000238,37,3,862.5121999999284,37,,,,866.4663999999761,866.9582999999523,865.9498999999761,866.4661999999284,863.5146999999284,865.9496999999284,866.9582999999523,867.4471000000239,867.4471000000239,867.7498999999762,150,867.7501000000238,1,867.7595,3,25,115,18,1,1.4,0.7,Time
,,171761,001,w,28,2025-06-03_15h18.36.443,Serial_Dependence_U,2023.2.3,Win32,59.88023952095548,,,,,,867.7598999999761,122,3,867.76,122,,,,871.1491000000239,871.6402999999523,870.6322999999522,871.1487999999523,868.7656999999284,870.632,871.6403999999761,872.1406000000238,872.1406000000238,874.8824999999999,150,874.8826000000238,1,874.8938999999762,3,26,116,10,1,0.8,0.3,Time
,,171761,001,w,28,2025-06-03_15h18.36.443,Serial_Dependence_U,2023.2.3,Win32,59.88023952095548,,,,,,874.8941000000237,71,3,874.8941999999284,71,,,,878.881,879.3728999999761,878.3644999999999,878.8806999999284,875.8961000000238,878.3642999999523,879.3728999999761,879.8721999999284,879.8722999999522,880.0649999999999,133,880.0651000000238,1,880.0756000000238,3,27,117,3,1,1.4,0.3,Time
,,171761,001,w,28,2025-06-03_15h18.36.443,Serial_Dependence_U,2023.2.3,Win32,59.88023952095548,,,,,,880.0758999999761,43,3,880.0759999999999,43,,,,883.8301000000238,884.3218999999762,883.3135,883.8298999999761,881.0803999999761,883.3131999999284,884.322,884.8218999999762,884.8218999999762,888.1468999999761,99,888.1469999999999,1,888.1593999999761,3,28,118,17,1,1.2,0.7,Time
,,171761,001,w,28,2025-06-03_15h18.36.443,Serial_Dependence_U,2023.2.3,Win32,59.88023952095548,,,,,,888.1597999999523,226,3,888.1598999999761,226,,,,891.9447999999522,892.4367999999523,891.4292999999523,891.9446000000238,889.1595,891.4291000000238,892.4367999999523,892.9441000000238,892.9441999999284,893.2961000000238,117,893.2961999999284,1,893.3086999999284,3,29,119,12,1,1.2,0.3,Time
,,171761,001,w,28,2025-06-03_15h18.36.443,Serial_Dependence_U,2023.2.3,Win32,59.88023952095548,,,,,,893.309,278,4,966.9491000000238,278,s,73.61720000004777,,970.2838999999761,970.7807999999523,969.7814999999999,970.2836999999284,967.9495,969.7814999999999,970.7808999999761,971.2801000000238,971.2801999999284,972.4996999999285,142,972.4996999999285,1,972.5072999999522,4,0,120,15,1,0.8,0.7,Time
,,171761,001,w,28,2025-06-03_15h18.36.443,Serial_Dependence_U,2023.2.3,Win32,59.88023952095548,,,,,,972.5076000000238,203,4,972.5083999999761,203,,,,976.0668999999762,976.5578999999761,975.5496999999284,976.0666000000238,973.5167999999522,975.5496000000238,976.5581000000238,977.0576999999284,977.0577999999523,977.5832999999523,147,977.5835,1,977.5935,4,1,121,26,1,1,0.7,Time
,,171761,001,w,28,2025-06-03_15h18.36.443,Serial_Dependence_U,2023.2.3,Win32,59.88023952095548,,,,,,977.5937999999522,253,4,977.5938999999761,253,,,,981.5818999999761,982.0803999999761,981.0656999999285,981.5816000000237,978.598,981.0654999999999,982.0803999999761,982.5759999999999,982.5761000000238,983.1483999999762,167,983.1484999999999,1,983.1592999999523,4,2,122,13,1,1.4,0.3,Time
,,171761,001,w,28,2025-06-03_15h18.36.443,Serial_Dependence_U,2023.2.3,Win32,59.88023952095548,,,,,,983.1596000000238,65,4,983.1596000000238,65,,,,987.3069999999999,987.7958999999761,986.7982999999523,987.3068999999762,984.1646999999284,986.7981000000239,987.7959999999999,988.2891000000238,988.2891999999284,988.9983999999761,150,988.9984999999999,1,989.0093999999762,4,3,123,19,1,1.6,0.7,Time
,,171761,001,w,28,2025-06-03_15h18.36.443,Serial_Dependence_U,2023.2.3,Win32,59.88023952095548,,,,,,989.0096000000239,353,4,989.0096000000239,353,,,,993.1801000000238,993.6726000000237,992.6776999999284,993.18,990.0126000000238,992.6776000000237,993.6726999999285,994.1768999999761,994.1769999999999,995.1132999999522,133,995.1133999999761,1,995.1242999999523,4,4,124,24,1,1.6,0.3,Time
,,171761,001,w,28,2025-06-03_15h18.36.443,Serial_Dependence_U,2023.2.3,Win32,59.88023952095548,,,,,,995.1244999999999,190,4,995.1246000000237,190,,,,999.1101999999285,999.6044999999999,998.5962999999523,999.1099999999999,996.1278999999761,998.5958999999762,999.6044999999999,1000.1099999999999,1000.1101000000237,1001.0303999999761,117,1001.0303999999761,1,1001.0388999999761,4,5,125,23,1,1.4,0.3,Time
,,171761,001,w,28,2025-06-03_15h18.36.443,Serial_Dependence_U,2023.2.3,Win32,59.88023952095548,,,,,,1001.0391000000238,117,4,1001.0392999999523,117,,,,1004.5942999999522,1005.087,1004.0772999999523,1004.5941000000238,1002.0432999999523,1004.0772999999523,1005.087,1005.5866999999284,1005.5868999999761,1006.6429999999999,99,1006.6431000000238,1,1006.6511000000238,4,6,126,16,1,1,0.7,Time
,,171761,001,w,28,2025-06-03_15h18.36.443,Serial_Dependence_U,2023.2.3,Win32,59.88023952095548,,,,,,1006.6513999999761,186,4,1006.6514999999999,186,,,,1010.8109999999999,1011.3026999999284,1010.2951999999284,1010.8107999999522,1007.6596000000238,1010.2951000000238,1011.3027999999523,1011.8021000000238,1011.8021999999285,1012.4601999999285,134,1012.4602999999523,1,1012.4668999999761,4,7,127,29,1,1.6,0.7,Time
,,171761,001,w,28,2025-06-03_15h18.36.443,Serial_Dependence_U,2023.2.3,Win32,59.88023952095548,,,,,,1012.4671000000238,338,4,1012.4671000000238,338,,,,1016.2602999999523,1016.7517999999523,1015.7436999999285,1016.2601000000238,1013.4768999999761,1015.7434999999999,1016.7517999999523,1017.2517999999524,1017.2518999999762,1018.2436999999286,171,1018.2440000000001,1,1018.2571000000239,4,8,128,12,1,1.2,0.3,Time
,,171761,001,w,28,2025-06-03_15h18.36.443,Serial_Dependence_U,2023.2.3,Win32,59.88023952095548,,,,,,1018.2572999999525,148,4,1018.2573999999763,148,,,,1021.809,1022.3008999999763,1021.2926000000239,1021.8087999999523,1019.2596999999284,1021.2921999999285,1022.3008999999763,1022.8007999999525,1022.8010000000002,1023.6076999999286,168,1023.6078999999763,1,1023.6173999999762,4,9,129,6,1,1,0.7,Time
,,171761,001,w,28,2025-06-03_15h18.36.443,Serial_Dependence_U,2023.2.3,Win32,59.88023952095548,,,,,,1023.6176000000239,117,4,1023.6176000000239,117,,,,1027.5913999999761,1028.0832999999525,1027.075100000024,1027.5912999999523,1024.6422999999525,1027.0748999999762,1028.0833999999763,1028.5836000000238,1028.5836999999285,1029.4088999999763,150,1029.409100000024,1,1029.420100000024,4,10,130,18,1,1.4,0.7,Time
,,171761,001,w,28,2025-06-03_15h18.36.443,Serial_Dependence_U,2023.2.3,Win32,59.88023952095548,,,,,,1029.4202999999525,239,4,1029.4203999999763,239,,,,1033.2078999999762,1033.7036999999286,1032.690600000024,1033.2076000000238,1030.424600000024,1032.6905000000002,1033.7037999999525,1034.199,1034.199100000024,1034.9578999999762,150,1034.958100000024,1,1034.969,4,11,131,2,1,1.2,0.3,Time
,,171761,001,w,28,2025-06-03_15h18.36.443,Serial_Dependence_U,2023.2.3,Win32,59.88023952095548,,,,,,1034.9691999999286,204,4,1034.9692999999525,204,,,,1038.7201999999286,1039.2155,1038.2067999999524,1038.72,1035.9736999999286,1038.2065,1039.2155,1039.7151999999285,1039.7152999999523,1040.3985,175,1040.3986000000239,1,1040.4076000000239,4,12,132,17,1,1.2,0.7,Time
,,171761,001,w,28,2025-06-03_15h18.36.443,Serial_Dependence_U,2023.2.3,Win32,59.88023952095548,,,,,,1040.4076999999286,135,4,1040.4077999999524,135,,,,1044.1560000000002,1044.6476000000239,1043.6391999999285,1044.1557999999525,1041.4057999999525,1043.639100000024,1044.6476000000239,1045.1477999999524,1045.1478999999763,1046.2217999999523,199,1046.2218999999761,1,1046.2318999999761,4,13,133,27,1,1.2,0.7,Time
,,171761,001,w,28,2025-06-03_15h18.36.443,Serial_Dependence_U,2023.2.3,Win32,59.88023952095548,,,,,,1046.2321000000238,251,4,1046.2321000000238,251,,,,1049.8215,1050.313,1049.305,1049.8215,1047.237,1049.3047999999524,1050.313100000024,1050.8132999999523,1050.8132999999523,1051.9696999999285,183,1051.9697999999523,1,1051.9743999999762,4,14,134,21,1,1,0.3,Time
,,171761,001,w,28,2025-06-03_15h18.36.443,Serial_Dependence_U,2023.2.3,Win32,59.88023952095548,,,,,,1051.9746999999286,245,4,1051.9748999999763,245,,,,1055.9196999999285,1056.4123999999763,1055.4038999999761,1055.9195,1052.9707999999523,1055.4036999999284,1056.4125000000001,1056.9122999999524,1056.9123999999763,1058.0042999999523,166,1058.0042999999523,1,1058.0147999999524,4,15,135,8,1,1.4,0.7,Time
,,171761,001,w,28,2025-06-03_15h18.36.443,Serial_Dependence_U,2023.2.3,Win32,59.88023952095548,,,,,,1058.015100000024,46,4,1058.0151999999287,46,,,,1061.4021999999286,1061.8948999999761,1060.886600000024,1061.402,1059.0191000000239,1060.8863999999762,1061.895,1062.394,1062.394,1063.0203999999762,167,1063.0205,1,1063.0313999999762,4,16,136,0,1,0.8,0.3,Time
,,171761,001,w,28,2025-06-03_15h18.36.443,Serial_Dependence_U,2023.2.3,Win32,59.88023952095548,,,,,,1063.0320000000002,77,4,1063.032100000024,77,,,,1067.1856999999286,1067.6772999999523,1066.669100000024,1067.1852999999523,1064.036,1066.669,1067.6773999999762,1068.1826999999284,1068.1828999999761,1068.8996000000238,165,1068.8996000000238,1,1068.9041999999286,4,17,137,9,1,1.6,0.7,Time
,,171761,001,w,28,2025-06-03_15h18.36.443,Serial_Dependence_U,2023.2.3,Win32,59.88023952095548,,,,,,1068.9043999999762,132,4,1068.9043999999762,132,,,,1072.2661999999286,1072.759600000024,1071.7515,1072.266100000024,1069.9181999999284,1071.7512999999524,1072.7596999999284,1073.2597999999523,1073.2597999999523,1074.0328999999763,183,1074.0328999999763,1,1074.0417999999524,4,18,138,5,1,0.8,0.7,Time
,,171761,001,w,28,2025-06-03_15h18.36.443,Serial_Dependence_U,2023.2.3,Win32,59.88023952095548,,,,,,1074.0421999999285,134,4,1074.0425,134,,,,1077.4006999999285,1077.8927999999523,1076.8842999999524,1077.4005,1075.0508999999763,1076.884,1077.8928999999762,1078.3923999999763,1078.3923999999763,1079.2342999999523,185,1079.2343999999762,1,1079.2456000000238,4,19,139,25,1,0.8,0.7,Time
,,171761,001,w,28,2025-06-03_15h18.36.443,Serial_Dependence_U,2023.2.3,Win32,59.88023952095548,,,,,,1079.246,56,4,1079.246100000024,56,,,,1082.633100000024,1083.1242999999524,1082.116600000024,1082.6328999999762,1080.2497999999523,1082.1163999999762,1083.1242999999524,1083.6252999999524,1083.6253999999763,1084.1996999999285,150,1084.1997999999523,1,1084.2001999999286,4,20,140,10,1,0.8,0.3,Time
,,171761,001,w,28,2025-06-03_15h18.36.443,Serial_Dependence_U,2023.2.3,Win32,59.88023952095548,,,,,,1084.200600000024,133,4,1084.2006999999285,133,,,,1088.382100000024,1088.8738999999762,1087.8661999999285,1088.3818999999762,1085.1993999999763,1087.866,1088.8738999999762,1089.3806999999285,1089.3807999999524,1090.1163999999762,133,1090.1165,1,1090.1278999999763,4,21,141,14,1,1.6,0.3,Time
,,171761,001,w,28,2025-06-03_15h18.36.443,Serial_Dependence_U,2023.2.3,Win32,59.88023952095548,,,,,,1090.1282999999523,298,4,1090.1282999999523,298,,,,1093.7150000000001,1094.2066000000239,1093.1976000000238,1093.7147999999524,1091.1316999999285,1093.1973999999761,1094.2066999999286,1094.7058999999763,1094.7060000000001,1095.3818999999762,183,1095.382100000024,1,1095.3917999999524,4,22,142,1,1,1,0.3,Time
,,171761,001,w,28,2025-06-03_15h18.36.443,Serial_Dependence_U,2023.2.3,Win32,59.88023952095548,,,,,,1095.3921999999286,285,4,1095.3922999999525,285,,,,1098.9775,1099.4723999999762,1098.4641999999285,1098.9773999999761,1096.3970000000002,1098.464100000024,1099.4723999999762,1099.9726999999286,1099.9727999999525,1100.5311000000238,149,1100.5311999999285,1,1100.538,4,23,143,11,1,1,0.3,Time
,,171761,001,w,28,2025-06-03_15h18.36.443,Serial_Dependence_U,2023.2.3,Win32,59.88023952095548,,,,,,1100.5381999999286,176,4,1100.5382999999524,176,,,,1103.9302999999525,1104.421100000024,1103.4131000000239,1103.9301999999286,1101.5467999999523,1103.413,1104.421100000024,1104.9113999999763,1104.9115000000002,1105.9806999999284,183,1105.9807999999523,1,1105.9911000000238,4,24,144,20,1,0.8,0.3,Time
,,171761,001,w,28,2025-06-03_15h18.36.443,Serial_Dependence_U,2023.2.3,Win32,59.88023952095548,,,,,,1105.9915,139,4,1105.9915,139,,,,1109.7776999999285,1110.2707999999525,1109.2628999999763,1109.777600000024,1106.996100000024,1109.262600000024,1110.2707999999525,1110.7706999999286,1110.7707999999525,1111.4476999999285,213,1111.448,1,1111.4567999999524,4,25,145,22,1,1.2,0.3,Time
,,171761,001,w,28,2025-06-03_15h18.36.443,Serial_Dependence_U,2023.2.3,Win32,59.88023952095548,,,,,,1111.457100000024,342,4,1111.4571999999284,342,,,,1115.2113999999763,1115.707,1114.6948999999763,1115.2111000000239,1112.461,1114.6947999999525,1115.707,1116.2031000000238,1116.2031000000238,1116.8948999999761,167,1116.895,1,1116.9056999999286,4,26,146,7,1,1.2,0.7,Time
,,171761,001,w,28,2025-06-03_15h18.36.443,Serial_Dependence_U,2023.2.3,Win32,59.88023952095548,,,,,,1116.9061000000238,142,4,1116.9061999999285,142,,,,1120.8907999999524,1121.3858999999761,1120.377600000024,1120.8906000000238,1117.9111999999286,1120.3773999999762,1121.3858999999761,1121.8902999999523,1121.8903999999761,1122.3596999999286,149,1122.3597999999524,1,1122.3671999999285,4,27,147,3,1,1.4,0.3,Time
,,171761,001,w,28,2025-06-03_15h18.36.443,Serial_Dependence_U,2023.2.3,Win32,59.88023952095548,,,,,,1122.3675,259,4,1122.367600000024,259,,,,1126.3267999999523,1126.8181000000238,1125.8098999999763,1126.326600000024,1123.3771000000238,1125.8098999999763,1126.8181000000238,1127.3081999999285,1127.3081999999285,1127.8606000000239,151,1127.8606999999286,1,1127.8731999999286,4,28,148,28,1,1.4,0.7,Time
,,171761,001,w,28,2025-06-03_15h18.36.443,Serial_Dependence_U,2023.2.3,Win32,59.88023952095548,,,,,,1127.8735000000001,196,4,1127.8735000000001,196,,,,1132.0581999999285,1132.550600000024,1131.5422999999523,1132.0578999999761,1128.876,1131.542100000024,1132.550600000024,1133.0502999999524,1133.0502999999524,1133.4036999999284,79,1133.4037999999523,1,1133.4096000000238,4,29,149,4,1,1.6,0.3,Time
,,171761,001,w,28,2025-06-03_15h18.36.443,Serial_Dependence_U,2023.2.3,Win32,59.88023952095548,,,,,,1133.4097999999524,113,5,1179.4485,113,s,46.011200000047666,,1183.0327999999524,1183.5262999999525,1182.5176999999285,1183.0326000000239,1180.450600000024,1182.5173999999763,1183.5262999999525,1184.0261999999286,1184.0263999999763,1184.5352999999525,167,1184.5353999999763,1,1184.5477999999523,5,0,150,1,1,1,0.3,Time
,,171761,001,w,28,2025-06-03_15h18.36.443,Serial_Dependence_U,2023.2.3,Win32,59.88023952095548,,,,,,1184.548,8,5,1184.5486999999284,8,,,,1187.9336999999286,1188.4251999999285,1187.4172999999523,1187.9335,1185.5498999999763,1187.4170000000001,1188.4251999999285,1188.9251000000238,1188.9251999999285,1189.5843999999763,100,1189.5845000000002,1,1189.597,5,1,151,0,1,0.8,0.3,Time
,,171761,001,w,28,2025-06-03_15h18.36.443,Serial_Dependence_U,2023.2.3,Win32,59.88023952095548,,,,,,1189.5972999999524,81,5,1189.5972999999524,81,,,,1193.5825,1194.0742999999525,1193.0663999999763,1193.5822999999523,1190.6000000000001,1193.0662999999524,1194.0742999999525,1194.5631999999284,1194.5632999999523,1195.4497999999523,150,1195.4498999999762,1,1195.4601999999286,5,2,152,3,1,1.4,0.3,Time
,,171761,001,w,28,2025-06-03_15h18.36.443,Serial_Dependence_U,2023.2.3,Win32,59.88023952095548,,,,,,1195.4605000000001,183,5,1195.4605000000001,183,,,,1199.0155,1199.507100000024,1198.499,1199.0152999999523,1196.4655,1198.4986999999285,1199.5071999999286,1200.007,1200.007100000024,1201.7158999999763,168,1201.7160000000001,1,1201.7261999999284,5,3,153,6,1,1,0.7,Time
,,171761,001,w,28,2025-06-03_15h18.36.443,Serial_Dependence_U,2023.2.3,Win32,59.88023952095548,,,,,,1201.7265,59,5,1201.7266000000238,59,,,,1205.4811999999285,1205.9727999999525,1204.9650000000001,1205.4811000000238,1202.7317999999523,1204.9648999999763,1205.973,1206.461600000024,1206.4616999999284,1206.7646000000238,166,1206.7646999999286,1,1206.7747999999524,5,4,154,27,1,1.2,0.7,Time
,,171761,001,w,28,2025-06-03_15h18.36.443,Serial_Dependence_U,2023.2.3,Win32,59.88023952095548,,,,,,1206.775,74,5,1206.775100000024,74,,,,1210.5301000000238,1211.0222999999523,1210.0137999999524,1210.5298999999761,1207.7797999999523,1210.0136000000239,1211.0225,1211.5218999999763,1211.5220000000002,1212.0645000000002,150,1212.0646000000238,1,1212.0747999999523,5,5,155,7,1,1.2,0.7,Time
,,171761,001,w,28,2025-06-03_15h18.36.443,Serial_Dependence_U,2023.2.3,Win32,59.88023952095548,,,,,,1212.075,347,5,1212.075100000024,347,,,,1215.8376999999286,1216.3377999999525,1215.3276999999287,1215.8375,1213.080100000024,1215.3276999999287,1216.3377999999525,1216.8378999999761,1216.8378999999761,1218.027,133,1218.027100000024,1,1218.0315,5,6,156,17,1,1.2,0.7,Time
,,171761,001,w,28,2025-06-03_15h18.36.443,Serial_Dependence_U,2023.2.3,Win32,59.88023952095548,,,,,,1218.031600000024,110,5,1218.0316999999286,110,,,,1222.1951999999285,1222.6878999999763,1221.6787999999524,1222.195100000024,1219.0441999999287,1221.6786000000238,1222.688,1223.1871999999285,1223.1873999999762,1223.9763999999761,150,1223.9763999999761,1,1223.9815,5,7,157,9,1,1.6,0.7,Time
,,171761,001,w,28,2025-06-03_15h18.36.443,Serial_Dependence_U,2023.2.3,Win32,59.88023952095548,,,,,,1223.9817999999523,16,5,1223.9817999999523,16,,,,1227.3271000000238,1227.8192999999524,1226.8108999999763,1227.3268999999761,1224.9767999999524,1226.8106999999286,1227.8192999999524,1228.3193999999762,1228.3195,1230.1451000000238,133,1230.1451999999285,1,1230.1577999999524,5,8,158,5,1,0.8,0.7,Time
,,171761,001,w,28,2025-06-03_15h18.36.443,Serial_Dependence_U,2023.2.3,Win32,59.88023952095548,,,,,,1230.158100000024,156,5,1230.1581999999285,156,,,,1234.3097999999525,1234.8082999999524,1233.7933999999761,1234.3096999999286,1231.1598999999762,1233.7932999999523,1234.8083999999762,1235.3082999999524,1235.3082999999524,1238.1102999999523,151,1238.1103999999762,1,1238.1216000000238,5,9,159,29,1,1.6,0.7,Time
,,171761,001,w,28,2025-06-03_15h18.36.443,Serial_Dependence_U,2023.2.3,Win32,59.88023952095548,,,,,,1238.1218999999762,182,5,1238.122,182,,,,1242.0752999999524,1242.5671999999286,1241.559,1242.0751999999286,1239.1251999999286,1241.5587999999523,1242.5671999999286,1243.0673999999763,1243.0675,1243.7426999999286,149,1243.7430000000002,1,1243.7541999999285,5,10,160,18,1,1.4,0.7,Time
,,171761,001,w,28,2025-06-03_15h18.36.443,Serial_Dependence_U,2023.2.3,Win32,59.88023952095548,,,,,,1243.7543999999762,34,5,1243.7545,34,,,,1247.324600000024,1247.8220000000001,1246.806100000024,1247.3242999999525,1244.7585000000001,1246.806,1247.8220000000001,1248.316,1248.3161000000239,1251.275100000024,200,1251.2751999999286,1,1251.2885,5,11,161,26,1,1,0.7,Time
,,171761,001,w,28,2025-06-03_15h18.36.443,Serial_Dependence_U,2023.2.3,Win32,59.88023952095548,,,,,,1251.2887999999523,247,5,1251.2888999999761,247,,,,1255.472,1255.9652999999523,1254.957,1255.4717999999523,1252.2903999999762,1254.9566999999286,1255.9653999999762,1256.4646999999286,1256.4646999999286,1257.8403999999762,166,1257.8405,1,1257.8521999999286,5,12,162,24,1,1.6,0.3,Time
,,171761,001,w,28,2025-06-03_15h18.36.443,Serial_Dependence_U,2023.2.3,Win32,59.88023952095548,,,,,,1257.8523999999761,174,5,1257.8525,174,,,,1261.8045,1262.2972999999524,1261.2881999999286,1261.804399999976,1258.8563999999762,1261.288,1262.2973999999763,1262.7875000000001,1262.787600000024,1263.5875,200,1263.587600000024,1,1263.5956999999285,5,13,163,8,1,1.4,0.7,Time
,,171761,001,w,28,2025-06-03_15h18.36.443,Serial_Dependence_U,2023.2.3,Win32,59.88023952095548,,,,,,1263.5957999999523,9,5,1263.5958999999762,9,,,,1266.9866000000238,1267.4831999999285,1266.4716999999284,1266.9863999999761,1264.6041999999286,1266.4712999999524,1267.4832999999524,1267.9847999999524,1267.9848999999763,1268.9386999999285,183,1268.9388999999762,1,1268.9495000000002,5,14,164,10,1,0.8,0.3,Time
,,171761,001,w,28,2025-06-03_15h18.36.443,Serial_Dependence_U,2023.2.3,Win32,59.88023952095548,,,,,,1268.9496999999285,17,5,1268.9497999999523,17,,,,1272.5375000000001,1273.0286999999284,1272.0201000000238,1272.5372999999524,1269.9545,1272.02,1273.0286999999284,1273.5183999999763,1273.5185000000001,1273.8546999999285,201,1273.8548999999762,1,1273.8645000000001,5,15,165,11,1,1,0.3,Time
,,171761,001,w,28,2025-06-03_15h18.36.443,Serial_Dependence_U,2023.2.3,Win32,59.88023952095548,,,,,,1273.8648999999762,229,5,1273.8648999999762,229,,,,1277.4455,1277.9453999999762,1276.9358999999763,1277.4453999999762,1274.8702999999523,1276.9357999999525,1277.9455,1278.445100000024,1278.445100000024,1280.070600000024,133,1280.0706999999286,1,1280.0806000000239,5,16,166,21,1,1,0.3,Time
,,171761,001,w,28,2025-06-03_15h18.36.443,Serial_Dependence_U,2023.2.3,Win32,59.88023952095548,,,,,,1280.0807999999524,120,5,1280.0810000000001,120,,,,1284.2692999999524,1284.7656999999285,1283.7681000000239,1284.2691000000239,1281.103100000024,1283.768,1284.7658999999762,1285.2663999999763,1285.2665000000002,1287.286,166,1287.286100000024,1,1287.296100000024,5,17,167,4,1,1.6,0.3,Time
,,171761,001,w,28,2025-06-03_15h18.36.443,Serial_Dependence_U,2023.2.3,Win32,59.88023952095548,,,,,,1287.2962999999525,210,5,1287.2963999999763,210,,,,1291.084,1291.5765000000001,1290.5681999999285,1291.0838999999762,1288.2985,1290.5681000000238,1291.5765000000001,1292.0651999999286,1292.0652999999525,1293.7361999999284,139,1293.7362999999523,1,1293.7471999999286,5,18,168,22,1,1.2,0.3,Time
,,171761,001,w,28,2025-06-03_15h18.36.443,Serial_Dependence_U,2023.2.3,Win32,59.88023952095548,,,,,,1293.7473999999763,237,5,1293.7473999999763,237,,,,1297.9002999999525,1298.3922999999525,1297.3841000000239,1297.9,1294.751,1297.384,1298.3922999999525,1298.8922999999525,1298.8923999999763,1301.367,150,1301.3671000000238,1,1301.3767999999525,5,19,169,19,1,1.6,0.7,Time
,,171761,001,w,28,2025-06-03_15h18.36.443,Serial_Dependence_U,2023.2.3,Win32,59.88023952095548,,,,,,1301.3770000000002,333,5,1301.3770000000002,333,,,,1305.358600000024,1305.8637999999523,1304.8495,1305.3583999999762,1302.382,1304.8493999999762,1305.8637999999523,1306.3622999999525,1306.3623999999763,1308.4136999999284,132,1308.4137999999523,1,1308.4226999999285,5,20,170,23,1,1.4,0.3,Time
,,171761,001,w,28,2025-06-03_15h18.36.443,Serial_Dependence_U,2023.2.3,Win32,59.88023952095548,,,,,,1308.4231000000239,239,5,1308.4231999999286,239,,,,1311.7986999999284,1312.29,1311.2818999999763,1311.7985,1309.4470000000001,1311.281600000024,1312.29,1312.7948999999762,1312.7948999999762,1314.1486999999286,133,1314.1487999999524,1,1314.1586999999286,5,21,171,15,1,0.8,0.7,Time
,,171761,001,w,28,2025-06-03_15h18.36.443,Serial_Dependence_U,2023.2.3,Win32,59.88023952095548,,,,,,1314.159,174,5,1314.159100000024,174,,,,1317.5137999999524,1318.0057999999524,1316.9975000000002,1317.5135,1315.1632999999524,1316.9973999999763,1318.0057999999524,1318.506,1318.506100000024,1320.980600000024,151,1320.9806999999284,1,1320.991600000024,5,22,172,25,1,0.8,0.7,Time
,,171761,001,w,28,2025-06-03_15h18.36.443,Serial_Dependence_U,2023.2.3,Win32,59.88023952095548,,,,,,1320.991899999976,285,5,1320.992,285,,,,1324.7783999999763,1325.2713999999762,1324.2633999999762,1324.7781999999286,1321.9965,1324.2631999999285,1325.2713999999762,1325.7712999999524,1325.7713999999762,1325.9451999999285,132,1325.9451999999285,1,1325.9516999999285,5,23,173,2,1,1.2,0.3,Time
,,171761,001,w,28,2025-06-03_15h18.36.443,Serial_Dependence_U,2023.2.3,Win32,59.88023952095548,,,,,,1325.9518999999761,346,5,1325.952,346,,,,1329.7458999999762,1330.2373999999763,1329.2288999999762,1329.7456999999285,1326.9625,1329.2286999999285,1330.2373999999763,1330.737100000024,1330.737100000024,1331.1618999999762,116,1331.1618999999762,1,1331.1721000000239,5,24,174,12,1,1.2,0.3,Time
,,171761,001,w,28,2025-06-03_15h18.36.443,Serial_Dependence_U,2023.2.3,Win32,59.88023952095548,,,,,,1331.1722999999524,316,5,1331.1723999999763,316,,,,1335.1601999999286,1335.6523999999763,1334.6445,1335.160100000024,1332.1785,1334.6442999999524,1335.6523999999763,1336.1531999999286,1336.1532999999524,1337.0451999999286,133,1337.0453999999763,1,1337.055100000024,5,25,175,13,1,1.4,0.3,Time
,,171761,001,w,28,2025-06-03_15h18.36.443,Serial_Dependence_U,2023.2.3,Win32,59.88023952095548,,,,,,1337.0553999999763,3,5,1337.0553999999763,3,,,,1340.4438999999763,1340.935600000024,1339.9276999999286,1340.4436999999286,1338.0606999999286,1339.9275,1340.9356999999286,1341.4352999999523,1341.4353999999762,1342.0442999999523,170,1342.0443999999761,1,1342.057600000024,5,26,176,20,1,0.8,0.3,Time
,,171761,001,w,28,2025-06-03_15h18.36.443,Serial_Dependence_U,2023.2.3,Win32,59.88023952095548,,,,,,1342.0577999999523,334,5,1342.0578999999761,334,,,,1346.243100000024,1346.7347999999524,1345.7262999999523,1346.2428999999763,1343.060100000024,1345.726,1346.7347999999524,1347.235100000024,1347.235100000024,1352.8762999999524,150,1352.8763999999762,1,1352.8862999999524,5,27,177,14,1,1.6,0.3,Time
,,171761,001,w,28,2025-06-03_15h18.36.443,Serial_Dependence_U,2023.2.3,Win32,59.88023952095548,,,,,,1352.8865,290,5,1352.886600000024,290,,,,1356.4411000000239,1356.9331000000238,1355.9247999999525,1356.4407999999523,1353.892100000024,1355.9246999999286,1356.9331999999285,1357.4386000000238,1357.4386000000238,1357.8236999999285,133,1357.8236999999285,1,1357.8281000000238,5,28,178,16,1,1,0.7,Time
,,171761,001,w,28,2025-06-03_15h18.36.443,Serial_Dependence_U,2023.2.3,Win32,59.88023952095548,,,,,,1357.8282999999524,322,5,1357.8283999999762,322,,,,1361.7730000000001,1362.2655,1361.2575000000002,1361.7728999999763,1358.8217999999524,1361.2573999999763,1362.2655,1362.7651999999287,1362.7651999999287,1366.4072999999523,101,1366.4073999999762,1,1366.4185,5,29,179,28,1,1.4,0.7,Time
,,171761,001,w,28,2025-06-03_15h18.36.443,Serial_Dependence_U,2023.2.3,Win32,59.88023952095548,,,,,,1366.4187999999524,182,6,1380.5577999999523,182,s,14.110400000095524,,1383.9372999999523,1384.4288999999762,1383.4208999999762,1383.9370000000001,1381.554399999976,1383.4206999999285,1384.429,1384.9287999999524,1384.9288999999762,1386.0875,116,1386.087600000024,1,1386.0971999999285,6,0,180,0,1,0.8,0.3,Time
,,171761,001,w,28,2025-06-03_15h18.36.443,Serial_Dependence_U,2023.2.3,Win32,59.88023952095548,,,,,,1386.0975,1,6,1386.0985,1,,,,1389.8867999999525,1390.3776999999286,1389.3697999999524,1389.886600000024,1387.1038999999762,1389.3696999999286,1390.3776999999286,1390.8673999999762,1390.8673999999762,1391.5367999999523,116,1391.5368999999762,1,1391.5493999999762,6,1,181,2,1,1.2,0.3,Time
,,171761,001,w,28,2025-06-03_15h18.36.443,Serial_Dependence_U,2023.2.3,Win32,59.88023952095548,,,,,,1391.5496999999286,43,6,1391.5497999999525,43,,,,1395.1352999999524,1395.627600000024,1394.619100000024,1395.1351999999285,1392.545,1394.6188999999763,1395.627600000024,1396.1273999999762,1396.1273999999762,1396.9026999999285,133,1396.9027999999523,1,1396.910100000024,6,2,182,21,1,1,0.3,Time
,,171761,001,w,28,2025-06-03_15h18.36.443,Serial_Dependence_U,2023.2.3,Win32,59.88023952095548,,,,,,1396.9102999999525,295,6,1396.9102999999525,295,,,,1400.901100000024,1401.3933999999763,1400.3848999999761,1400.9008999999762,1397.9178999999763,1400.384600000024,1401.3935000000001,1401.8927999999523,1401.8928999999762,1403.202,133,1403.2021000000238,1,1403.2137999999525,6,3,183,3,1,1.4,0.3,Time
,,171761,001,w,28,2025-06-03_15h18.36.443,Serial_Dependence_U,2023.2.3,Win32,59.88023952095548,,,,,,1403.214100000024,136,6,1403.2141999999285,136,,,,1406.6003999999762,1407.0922999999523,1406.084,1406.6001999999285,1404.2167999999524,1406.0837999999524,1407.0923999999761,1407.592,1407.592100000024,1408.750600000024,150,1408.7506999999284,1,1408.7595000000001,6,4,184,10,1,0.8,0.3,Time
,,171761,001,w,28,2025-06-03_15h18.36.443,Serial_Dependence_U,2023.2.3,Win32,59.88023952095548,,,,,,1408.7596999999284,160,6,1408.7597999999523,160,,,,1412.5162999999525,1413.0143999999761,1412.0001000000238,1412.516,1409.7666000000238,1412,1413.0143999999761,1413.5081999999286,1413.5082999999524,1415.1838999999761,150,1415.184,1,1415.193,6,5,185,27,1,1.2,0.7,Time
,,171761,001,w,28,2025-06-03_15h18.36.443,Serial_Dependence_U,2023.2.3,Win32,59.88023952095548,,,,,,1415.1932999999524,127,6,1415.1933999999762,127,,,,1419.3791999999285,1419.879100000024,1418.8662999999524,1419.379100000024,1416.199,1418.8661000000238,1419.879100000024,1420.3733999999763,1420.3735000000001,1420.6157999999523,100,1420.6157999999523,1,1420.6273999999762,6,6,186,14,1,1.6,0.3,Time
,,171761,001,w,28,2025-06-03_15h18.36.443,Serial_Dependence_U,2023.2.3,Win32,59.88023952095548,,,,,,1420.6280000000002,260,6,1420.6281999999285,260,,,,1424.6145000000001,1425.1057999999523,1424.097600000024,1424.6143999999763,1421.6312999999525,1424.0975,1425.1058999999761,1425.6126000000238,1425.6126999999285,1426.2150000000001,134,1426.215100000024,1,1426.2252999999523,6,7,187,23,1,1.4,0.3,Time
,,171761,001,w,28,2025-06-03_15h18.36.443,Serial_Dependence_U,2023.2.3,Win32,59.88023952095548,,,,,,1426.2256000000239,297,6,1426.2256999999286,297,,,,1430.1721000000239,1430.6756999999286,1429.6641000000238,1430.1721000000239,1427.2305000000001,1429.6638999999761,1430.6756999999286,1431.1723999999763,1431.1725000000001,1432.3306999999286,100,1432.3307999999524,1,1432.3413999999761,6,8,188,28,1,1.4,0.7,Time
,,171761,001,w,28,2025-06-03_15h18.36.443,Serial_Dependence_U,2023.2.3,Win32,59.88023952095548,,,,,,1432.3417999999524,274,6,1432.3418999999762,274,,,,1436.2962999999525,1436.7878999999762,1435.7785000000001,1436.296,1433.3461000000239,1435.7782999999524,1436.7878999999762,1437.2876999999285,1437.2877999999523,1439.0627999999524,183,1439.0628999999763,1,1439.0732999999525,6,9,189,8,1,1.4,0.7,Time
,,171761,001,w,28,2025-06-03_15h18.36.443,Serial_Dependence_U,2023.2.3,Win32,59.88023952095548,,,,,,1439.0735,183,6,1439.0736000000238,183,,,,1442.6278999999763,1443.1201999999284,1442.112,1442.6276999999286,1440.0785,1442.1117999999524,1443.1201999999284,1443.6200000000001,1443.620100000024,1443.7561999999286,112,1443.7561999999286,1,1443.760600000024,6,10,190,16,1,1,0.7,Time
,,171761,001,w,28,2025-06-03_15h18.36.443,Serial_Dependence_U,2023.2.3,Win32,59.88023952095548,,,,,,1443.7607999999525,120,6,1443.7607999999525,120,,,,1447.3100000000002,1447.8022999999523,1446.794,1447.3098999999763,1444.758600000024,1446.7937999999524,1447.8022999999523,1448.3026000000239,1448.3026000000239,1449.2608999999761,150,1449.2611000000238,1,1449.271,6,11,191,26,1,1,0.7,Time
,,171761,001,w,28,2025-06-03_15h18.36.443,Serial_Dependence_U,2023.2.3,Win32,59.88023952095548,,,,,,1449.2711999999285,319,6,1449.2712999999524,319,,,,1453.4267999999524,1453.9182999999523,1452.91,1453.4266999999286,1450.277,1452.9098999999762,1453.9185,1454.4185,1454.4186000000238,1460.3595,210,1460.3596000000239,1,1460.3716999999285,6,12,192,19,1,1.6,0.7,Time
,,171761,001,w,28,2025-06-03_15h18.36.443,Serial_Dependence_U,2023.2.3,Win32,59.88023952095548,,,,,,1460.372,351,6,1460.372100000024,351,,,,1464.5246999999285,1465.0162999999525,1464.0083999999763,1464.5245,1461.375,1464.0081999999286,1465.0162999999525,1465.5056000000238,1465.5056000000238,1465.6413999999763,115,1465.6415000000002,1,1465.6506999999285,6,13,193,29,1,1.6,0.7,Time
,,171761,001,w,28,2025-06-03_15h18.36.443,Serial_Dependence_U,2023.2.3,Win32,59.88023952095548,,,,,,1465.6508999999762,247,6,1465.651,247,,,,1469.0002999999524,1469.4991999999286,1468.4912999999524,1469.0001999999286,1466.6580000000001,1468.4911999999285,1469.4992999999524,1469.9993999999763,1469.9995000000001,1470.4083999999762,117,1470.4085,1,1470.418100000024,6,14,194,15,1,0.8,0.7,Time
,,171761,001,w,28,2025-06-03_15h18.36.443,Serial_Dependence_U,2023.2.3,Win32,59.88023952095548,,,,,,1470.4183999999761,273,6,1470.4185,273,,,,1474.589600000024,1475.0818999999763,1474.0737999999524,1474.5893999999762,1471.4406999999285,1474.0736999999285,1475.0818999999763,1475.588600000024,1475.5887999999525,1476.0076999999285,133,1476.0077999999523,1,1476.0183999999763,6,15,195,9,1,1.6,0.7,Time
,,171761,001,w,28,2025-06-03_15h18.36.443,Serial_Dependence_U,2023.2.3,Win32,59.88023952095548,,,,,,1476.018600000024,58,6,1476.0186999999285,58,,,,1480.2062999999523,1480.7013999999763,1479.6893999999763,1480.2061999999285,1477.023100000024,1479.6892999999525,1480.7013999999763,1481.1976000000238,1481.1977999999524,1481.5900000000001,117,1481.590100000024,1,1481.600100000024,6,16,196,4,1,1.6,0.3,Time
,,171761,001,w,28,2025-06-03_15h18.36.443,Serial_Dependence_U,2023.2.3,Win32,59.88023952095548,,,,,,1481.6003999999762,258,6,1481.6003999999762,258,,,,1484.9687999999524,1485.4631000000238,1484.4552999999523,1484.9687999999524,1482.6137999999523,1484.4551999999285,1485.4631999999285,1485.952600000024,1485.9526999999287,1486.5716999999286,116,1486.5717999999524,1,1486.5812999999523,6,17,197,5,1,0.8,0.7,Time
,,171761,001,w,28,2025-06-03_15h18.36.443,Serial_Dependence_U,2023.2.3,Win32,59.88023952095548,,,,,,1486.5815,108,6,1486.5815,108,,,,1490.3368999999761,1490.8296999999286,1489.8207999999524,1490.3366999999284,1487.5885,1489.8205,1490.8296999999286,1491.3291999999285,1491.3292999999524,1491.7963999999763,108,1491.7965000000002,1,1491.8048999999762,6,18,198,17,1,1.2,0.7,Time
,,171761,001,w,28,2025-06-03_15h18.36.443,Serial_Dependence_U,2023.2.3,Win32,59.88023952095548,,,,,,1491.8051999999286,195,6,1491.8051999999286,195,,,,1495.152600000024,1495.645,1494.6371999999285,1495.1525000000001,1492.7961999999286,1494.637100000024,1495.645,1496.1455,1496.1456999999286,1496.5203999999762,99,1496.5203999999762,1,1496.5316999999286,6,19,199,25,1,0.8,0.7,Time
,,171761,001,w,28,2025-06-03_15h18.36.443,Serial_Dependence_U,2023.2.3,Win32,59.88023952095548,,,,,,1496.5318999999763,317,6,1496.5318999999763,317,,,,1500.3357999999523,1500.8282999999524,1499.8207999999524,1500.3356999999285,1497.5532999999523,1499.8206999999286,1500.8283999999762,1501.328,1501.3281000000238,1502.4368999999763,151,1502.4370000000001,1,1502.4493999999763,6,20,200,12,1,1.2,0.3,Time
,,171761,001,w,28,2025-06-03_15h18.36.443,Serial_Dependence_U,2023.2.3,Win32,59.88023952095548,,,,,,1502.449600000024,95,6,1502.4496999999285,95,,,,1506.2352999999523,1506.727,1505.7173999999761,1506.235100000024,1503.4521000000238,1505.7172999999523,1506.727,1507.232,1507.2321999999285,1508.1858999999763,136,1508.1861999999285,1,1508.1970000000001,6,21,201,22,1,1.2,0.3,Time
,,171761,001,w,28,2025-06-03_15h18.36.443,Serial_Dependence_U,2023.2.3,Win32,59.88023952095548,,,,,,1508.1972999999523,219,6,1508.1973999999761,219,,,,1511.7832999999523,1512.2763999999763,1511.2673999999763,1511.783100000024,1509.2012999999524,1511.2671999999286,1512.2763999999763,1512.765,1512.765100000024,1513.5835,149,1513.5836000000238,1,1513.593,6,22,202,1,1,1,0.3,Time
,,171761,001,w,28,2025-06-03_15h18.36.443,Serial_Dependence_U,2023.2.3,Win32,59.88023952095548,,,,,,1513.5932999999525,313,6,1513.5933999999763,313,,,,1517.1832999999524,1517.6755,1516.6665,1517.183,1514.5996999999286,1516.6662999999523,1517.6755,1518.1753999999762,1518.1755,1519.0172999999525,150,1519.0173999999763,1,1519.026600000024,6,23,203,11,1,1,0.3,Time
,,171761,001,w,28,2025-06-03_15h18.36.443,Serial_Dependence_U,2023.2.3,Win32,59.88023952095548,,,,,,1519.0267999999523,202,6,1519.027,202,,,,1522.4157999999525,1522.9111999999286,1521.900100000024,1522.415600000024,1520.0328999999763,1521.8997999999524,1522.9111999999286,1523.4082999999523,1523.4082999999523,1523.9136999999284,130,1523.9138999999761,1,1523.9256999999286,6,24,204,20,1,0.8,0.3,Time
,,171761,001,w,28,2025-06-03_15h18.36.443,Serial_Dependence_U,2023.2.3,Win32,59.88023952095548,,,,,,1523.9258999999763,49,6,1523.9260000000002,49,,,,1527.9153999999762,1528.407100000024,1527.398100000024,1527.9152999999524,1524.9285,1527.3980000000001,1528.4071999999285,1528.9070000000002,1528.9070000000002,1529.4493999999763,167,1529.4493999999763,1,1529.4605000000001,6,25,205,13,1,1.4,0.3,Time
,,171761,001,w,28,2025-06-03_15h18.36.443,Serial_Dependence_U,2023.2.3,Win32,59.88023952095548,,,,,,1529.4607999999523,358,6,1529.461,358,,,,1533.0146000000238,1533.506,1532.498100000024,1533.0142999999523,1530.4647999999524,1532.498,1533.506,1534.0066000000238,1534.0067999999524,1534.4145,100,1534.414600000024,1,1534.4237999999523,6,26,206,6,1,1,0.7,Time
,,171761,001,w,28,2025-06-03_15h18.36.443,Serial_Dependence_U,2023.2.3,Win32,59.88023952095548,,,,,,1534.4238999999761,38,6,1534.424,38,,,,1538.1803999999763,1538.6723999999763,1537.664,1538.1801999999286,1535.429399999976,1537.6637999999523,1538.6723999999763,1539.172,1539.1721000000239,1539.6642999999524,100,1539.6642999999524,1,1539.6737999999523,6,27,207,7,1,1.2,0.7,Time
,,171761,001,w,28,2025-06-03_15h18.36.443,Serial_Dependence_U,2023.2.3,Win32,59.88023952095548,,,,,,1539.674,162,6,1539.6741000000238,162,,,,1543.6458999999763,1544.1380000000001,1543.1290000000001,1543.6456999999286,1540.6967999999524,1543.1288999999763,1544.1380000000001,1544.6382999999523,1544.6382999999523,1545.1121999999286,116,1545.1122999999525,1,1545.1222999999525,6,28,208,18,1,1.4,0.7,Time
,,171761,001,w,28,2025-06-03_15h18.36.443,Serial_Dependence_U,2023.2.3,Win32,59.88023952095548,,,,,,1545.1226999999285,322,6,1545.1227999999523,322,,,,1549.3112999999523,1549.8100000000002,1548.7955000000002,1549.3112999999523,1546.129100000024,1548.7953999999763,1549.810100000024,1550.303100000024,1550.3031999999284,1554.7783999999763,99,1554.7783999999763,1,1554.7877999999523,6,29,209,24,1,1.6,0.3,Time
,,171761,001,w,28,2025-06-03_15h18.36.443,Serial_Dependence_U,2023.2.3,Win32,59.88023952095548,,,,,,1554.788,348,7,1565.8941000000239,348,s,11.085399999976062,,1569.4563999999762,1569.9505000000001,1568.94,1569.4563999999762,1566.8926999999285,1568.94,1569.950600000024,1570.450100000024,1570.4501999999286,1570.6402999999523,133,1570.6402999999523,1,1570.6452999999524,7,0,210,6,1,1,0.7,Time
,,171761,001,w,28,2025-06-03_15h18.36.443,Serial_Dependence_U,2023.2.3,Win32,59.88023952095548,,,,,,1570.6455,49,7,1570.6461999999285,49,,,,1574.408100000024,1574.9048999999761,1573.9058999999763,1574.4077999999524,1571.6586000000239,1573.9058999999763,1574.9048999999761,1575.3995,1575.3995,1575.7247999999524,149,1575.7247999999524,1,1575.7321000000238,7,1,211,7,1,1.2,0.7,Time
,,171761,001,w,28,2025-06-03_15h18.36.443,Serial_Dependence_U,2023.2.3,Win32,59.88023952095548,,,,,,1575.7323999999762,44,7,1575.7325,44,,,,1579.3243999999763,1579.816,1578.807600000024,1579.3241999999286,1576.7391999999286,1578.807600000024,1579.816,1580.3156999999285,1580.3156999999285,1581.0578999999761,116,1581.0578999999761,1,1581.0675,7,2,212,11,1,1,0.3,Time
,,171761,001,w,28,2025-06-03_15h18.36.443,Serial_Dependence_U,2023.2.3,Win32,59.88023952095548,,,,,,1581.0677999999523,287,7,1581.068,287,,,,1585.256,1585.7485000000001,1584.7401000000239,1585.2558999999762,1582.074,1584.74,1585.7485000000001,1586.2367999999524,1586.2368999999762,1586.7745,117,1586.7746000000238,1,1586.7851999999286,7,3,213,14,1,1.6,0.3,Time
,,171761,001,w,28,2025-06-03_15h18.36.443,Serial_Dependence_U,2023.2.3,Win32,59.88023952095548,,,,,,1586.7855,167,7,1586.7856000000238,167,,,,1590.5726999999285,1591.069600000024,1590.056,1590.5726000000238,1587.7893999999762,1590.0557999999523,1591.069600000024,1591.5637999999524,1591.5638999999762,1591.8205,116,1591.8205,1,1591.8252999999524,7,4,214,2,1,1.2,0.3,Time
,,171761,001,w,28,2025-06-03_15h18.36.443,Serial_Dependence_U,2023.2.3,Win32,59.88023952095548,,,,,,1591.8255000000001,165,7,1591.8255000000001,165,,,,1595.1886999999285,1595.6803999999763,1594.6715000000002,1595.1885,1592.836,1594.6713999999763,1595.6805000000002,1596.181100000024,1596.1811999999286,1602.0716000000239,152,1602.0716999999286,1,1602.083,7,5,215,25,1,0.8,0.7,Time
,,171761,001,w,28,2025-06-03_15h18.36.443,Serial_Dependence_U,2023.2.3,Win32,59.88023952095548,,,,,,1602.0831999999286,81,7,1602.0833999999763,81,,,,1605.8673999999762,1606.362,1605.3526999999285,1605.8673999999762,1603.0872999999524,1605.3525,1606.362100000024,1606.8618999999762,1606.8618999999762,1607.6362999999524,116,1607.6363999999762,1,1607.646,7,6,216,12,1,1.2,0.3,Time
,,171761,001,w,28,2025-06-03_15h18.36.443,Serial_Dependence_U,2023.2.3,Win32,59.88023952095548,,,,,,1607.6461999999285,105,7,1607.6462999999524,105,,,,1611.5692999999524,1612.0608999999763,1611.0681000000238,1611.569,1608.6352999999524,1611.068,1612.0608999999763,1612.5667999999523,1612.5667999999523,1613.5362999999525,133,1613.5363999999763,1,1613.5472999999524,7,7,217,8,1,1.4,0.7,Time
,,171761,001,w,28,2025-06-03_15h18.36.443,Serial_Dependence_U,2023.2.3,Win32,59.88023952095548,,,,,,1613.5475000000001,289,7,1613.5475000000001,289,,,,1616.9356999999286,1617.4262999999523,1616.4183999999761,1616.9355,1614.552100000024,1616.4182999999523,1617.4262999999523,1617.9263999999762,1617.9263999999762,1618.7843999999761,151,1618.7843999999761,1,1618.7943999999761,7,8,218,10,1,0.8,0.3,Time
,,171761,001,w,28,2025-06-03_15h18.36.443,Serial_Dependence_U,2023.2.3,Win32,59.88023952095548,,,,,,1618.7946999999285,238,7,1618.7947999999524,238,,,,1622.9842999999523,1623.4757999999524,1622.4677999999524,1622.984100000024,1619.7931999999284,1622.4676999999285,1623.4757999999524,1623.9756999999286,1623.9756999999286,1624.1511999999286,117,1624.1512999999525,1,1624.160100000024,7,9,219,4,1,1.6,0.3,Time
,,171761,001,w,28,2025-06-03_15h18.36.443,Serial_Dependence_U,2023.2.3,Win32,59.88023952095548,,,,,,1624.1603999999763,65,7,1624.1603999999763,65,,,,1628.3651000000239,1628.8581000000238,1627.8491999999285,1628.3648999999762,1625.165,1627.849100000024,1628.8581999999285,1629.3581999999285,1629.3581999999285,1630.1508999999762,100,1630.151,1,1630.1618999999762,7,10,220,24,1,1.6,0.3,Time
,,171761,001,w,28,2025-06-03_15h18.36.443,Serial_Dependence_U,2023.2.3,Win32,59.88023952095548,,,,,,1630.1621999999286,107,7,1630.1621999999286,107,,,,1633.9322999999524,1634.43,1633.4146999999286,1633.9322999999524,1631.1826999999284,1633.4146999999286,1634.43,1634.9242999999524,1634.9245,1636.416600000024,117,1636.4167999999524,1,1636.4268999999763,7,11,221,17,1,1.2,0.7,Time
,,171761,001,w,28,2025-06-03_15h18.36.443,Serial_Dependence_U,2023.2.3,Win32,59.88023952095548,,,,,,1636.4271999999285,72,7,1636.4271999999285,72,,,,1640.5813999999762,1641.073100000024,1640.0647999999524,1640.5812999999523,1637.4316999999285,1640.0645000000002,1641.073100000024,1641.5785,1641.5785,1642.3962999999524,132,1642.3963999999762,1,1642.4038999999761,7,12,222,9,1,1.6,0.7,Time
,,171761,001,w,28,2025-06-03_15h18.36.443,Serial_Dependence_U,2023.2.3,Win32,59.88023952095548,,,,,,1642.4041999999286,249,7,1642.4042999999524,249,,,,1646.397100000024,1646.8961000000238,1645.8801999999284,1646.3970000000002,1643.414600000024,1645.880100000024,1646.8961000000238,1647.3897999999524,1647.3897999999524,1647.5646000000238,133,1647.5646999999285,1,1647.5761999999286,7,13,223,3,1,1.4,0.3,Time
,,171761,001,w,28,2025-06-03_15h18.36.443,Serial_Dependence_U,2023.2.3,Win32,59.88023952095548,,,,,,1647.5765000000001,30,7,1647.5765000000001,30,,,,1651.7286999999285,1652.2213999999763,1651.2135,1651.728600000024,1648.5798999999763,1651.2131000000238,1652.2213999999763,1652.7211000000239,1652.7211000000239,1657.7961999999286,108,1657.7961999999286,1,1657.807600000024,7,14,224,29,1,1.6,0.7,Time
,,171761,001,w,28,2025-06-03_15h18.36.443,Serial_Dependence_U,2023.2.3,Win32,59.88023952095548,,,,,,1657.8077999999523,219,7,1657.8077999999523,219,,,,1661.405,1661.903,1660.8880000000001,1661.405,1658.8118999999763,1660.8880000000001,1661.903,1662.4027999999523,1662.4028999999762,1664.5535,110,1664.5536000000238,1,1664.5627999999524,7,15,225,21,1,1,0.3,Time
,,171761,001,w,28,2025-06-03_15h18.36.443,Serial_Dependence_U,2023.2.3,Win32,59.88023952095548,,,,,,1664.563,54,7,1664.563,54,,,,1668.137100000024,1668.6358999999761,1667.620100000024,1668.1370000000002,1665.5546000000238,1667.6198999999763,1668.636,1669.1357999999525,1669.1358999999761,1669.6693999999761,133,1669.6695,1,1669.6782999999523,7,16,226,1,1,1,0.3,Time
,,171761,001,w,28,2025-06-03_15h18.36.443,Serial_Dependence_U,2023.2.3,Win32,59.88023952095548,,,,,,1669.6785,39,7,1669.6786000000238,39,,,,1673.653,1674.152100000024,1673.1367999999525,1673.6528999999762,1670.6697999999524,1673.1366999999286,1674.1521999999286,1674.652,1674.6521999999286,1675.4688999999762,122,1675.4688999999762,1,1675.4767999999524,7,17,227,13,1,1.4,0.3,Time
,,171761,001,w,28,2025-06-03_15h18.36.443,Serial_Dependence_U,2023.2.3,Win32,59.88023952095548,,,,,,1675.477,33,7,1675.477100000024,33,,,,1678.835,1679.3343999999763,1678.3187999999525,1678.8348999999762,1676.4856000000239,1678.318600000024,1679.3343999999763,1679.834100000024,1679.8341999999286,1685.3005,117,1685.3006999999286,1,1685.3113999999762,7,18,228,5,1,0.8,0.7,Time
,,171761,001,w,28,2025-06-03_15h18.36.443,Serial_Dependence_U,2023.2.3,Win32,59.88023952095548,,,,,,1685.3116000000239,77,7,1685.3116000000239,77,,,,1688.6843999999762,1689.1822999999524,1688.1836999999286,1688.6842999999524,1686.3173999999763,1688.1835,1689.182600000024,1689.682,1689.6821000000239,1689.950100000024,111,1689.950100000024,1,1689.959100000024,7,19,229,0,1,0.8,0.3,Time
,,171761,001,w,28,2025-06-03_15h18.36.443,Serial_Dependence_U,2023.2.3,Win32,59.88023952095548,,,,,,1689.9591999999286,160,7,1689.9591999999286,160,,,,1693.4831000000238,1693.9821999999285,1692.9821999999285,1693.4828999999763,1690.9501999999286,1692.9821999999285,1693.9822999999524,1694.4817999999523,1694.4817999999523,1695.9658999999763,119,1695.9660000000001,1,1695.9762999999523,7,20,230,16,1,1,0.7,Time
,,171761,001,w,28,2025-06-03_15h18.36.443,Serial_Dependence_U,2023.2.3,Win32,59.88023952095548,,,,,,1695.9765,359,7,1695.9765,359,,,,1699.914600000024,1700.4143999999762,1699.3986000000239,1699.914600000024,1696.9658999999763,1699.3985,1700.4143999999762,1700.9143999999762,1700.9145,1701.1156999999284,118,1701.1157999999523,1,1701.125600000024,7,21,231,18,1,1.4,0.7,Time
,,171761,001,w,28,2025-06-03_15h18.36.443,Serial_Dependence_U,2023.2.3,Win32,59.88023952095548,,,,,,1701.1257999999523,66,7,1701.1257999999523,66,,,,1704.4652999999523,1704.9642999999523,1703.9486999999285,1704.4651999999285,1702.1152999999524,1703.9486000000238,1704.9642999999523,1705.4638999999763,1705.4640000000002,1706.6135000000002,132,1706.6136999999285,1,1706.6236999999285,7,22,232,15,1,0.8,0.7,Time
,,171761,001,w,28,2025-06-03_15h18.36.443,Serial_Dependence_U,2023.2.3,Win32,59.88023952095548,,,,,,1706.624,330,7,1706.624,330,,,,1710.413600000024,1710.9128999999762,1709.8972999999523,1710.4135,1707.6312999999525,1709.8971999999285,1710.9128999999762,1711.4127999999523,1711.4128999999762,1712.2632999999523,132,1712.2633999999762,1,1712.272100000024,7,23,233,22,1,1.2,0.3,Time
,,171761,001,w,28,2025-06-03_15h18.36.443,Serial_Dependence_U,2023.2.3,Win32,59.88023952095548,,,,,,1712.2722999999523,291,7,1712.2723999999762,291,,,,1715.8127999999524,1716.3121999999285,1715.2963999999763,1715.8126000000238,1713.2635,1715.2963999999763,1716.3123999999762,1716.8118999999763,1716.8120000000001,1717.1786999999285,123,1717.1788999999762,1,1717.1881999999284,7,24,234,26,1,1,0.7,Time
,,171761,001,w,28,2025-06-03_15h18.36.443,Serial_Dependence_U,2023.2.3,Win32,59.88023952095548,,,,,,1717.1883999999761,179,7,1717.1885,179,,,,1721.1451999999285,1721.6446999999284,1720.6287999999524,1721.1451000000238,1718.1955,1720.6287999999524,1721.6448999999761,1722.144,1722.1441000000239,1722.6116000000238,150,1722.6116999999285,1,1722.6226999999285,7,25,235,28,1,1.4,0.7,Time
,,171761,001,w,28,2025-06-03_15h18.36.443,Serial_Dependence_U,2023.2.3,Win32,59.88023952095548,,,,,,1722.6228999999762,115,7,1722.623,115,,,,1726.0103999999762,1726.5111000000238,1725.4957999999524,1726.0102999999524,1723.6280000000002,1725.4956999999285,1726.5111000000238,1727.0102999999524,1727.0102999999524,1730.1597999999524,3135,1730.16,5,1730.169,7,26,236,20,1,0.8,0.3,Time
,,171761,001,w,28,2025-06-03_15h18.36.443,Serial_Dependence_U,2023.2.3,Win32,59.88023952095548,,,,,,1730.1691999999287,183,7,1730.1692999999523,183,,,,1733.9270000000001,1734.4266999999286,1733.4105,1733.9267999999524,1731.1761999999285,1733.4103999999763,1734.4267999999524,1734.9255,1734.925600000024,1735.5095000000001,138,1735.509600000024,1,1735.5191999999286,7,27,237,27,1,1.2,0.7,Time
,,171761,001,w,28,2025-06-03_15h18.36.443,Serial_Dependence_U,2023.2.3,Win32,59.88023952095548,,,,,,1735.5193999999763,45,7,1735.5195,45,,,,1739.5097999999523,1740.0086999999285,1738.9925,1739.5096999999284,1736.5265000000002,1738.9925,1740.0087999999523,1740.508,1740.5081999999286,1743.0253999999761,211,1743.0255,1,1743.036100000024,7,28,238,23,1,1.4,0.3,Time
,,171761,001,w,28,2025-06-03_15h18.36.443,Serial_Dependence_U,2023.2.3,Win32,59.88023952095548,,,,,,1743.0362999999525,264,7,1743.0362999999525,264,,,,1747.158100000024,1747.6570000000002,1746.6571999999285,1747.1580000000001,1744.0251999999286,1746.657100000024,1747.6570000000002,1748.157100000024,1748.1571999999285,1751.3568999999761,166,1751.3571000000238,1,1751.3676999999286,7,29,239,19,1,1.6,0.7,Time
,,171761,001,w,28,2025-06-03_15h18.36.443,Serial_Dependence_U,2023.2.3,Win32,59.88023952095548,,,,,,1751.3678999999763,14,8,1754.4396000000238,14,s,3.0563999999760654,,1758.4233999999763,1758.9225000000001,1757.9061999999285,1758.4232999999524,1755.44,1757.9061000000238,1758.9225000000001,1759.4221999999286,1759.4222999999524,1764.4212999999525,174,1764.4212999999525,1,1764.4315000000001,8,0,240,23,1,1.4,0.3,Time
,,171761,001,w,28,2025-06-03_15h18.36.443,Serial_Dependence_U,2023.2.3,Win32,59.88023952095548,,,,,,1764.4316999999285,276,8,1764.4323999999763,276,,,,1768.1715000000002,1768.6705000000002,1767.655600000024,1768.1713999999763,1765.422,1767.6555,1768.6706000000238,1769.1706999999285,1769.1708999999762,1770.5873999999762,181,1770.5875,1,1770.5961999999286,8,1,241,27,1,1.2,0.7,Time
,,171761,001,w,28,2025-06-03_15h18.36.443,Serial_Dependence_U,2023.2.3,Win32,59.88023952095548,,,,,,1770.5965,348,8,1770.5965,348,,,,1774.3876999999286,1774.8855,1773.871,1774.3875,1771.6047999999523,1773.8708999999762,1774.8855,1775.3861000000238,1775.3861999999285,1776.653,202,1776.6531000000239,1,1776.6652999999524,8,2,242,12,1,1.2,0.3,Time
,,171761,001,w,28,2025-06-03_15h18.36.443,Serial_Dependence_U,2023.2.3,Win32,59.88023952095548,,,,,,1776.665600000024,357,8,1776.6656999999286,357,,,,1780.2531999999285,1780.7517999999525,1779.7517999999525,1780.253100000024,1777.6861999999285,1779.7517999999525,1780.7518999999763,1781.2518999999763,1781.2520000000002,1785.1852999999523,134,1785.1853999999762,1,1785.1967999999524,8,3,243,21,1,1,0.3,Time
,,171761,001,w,28,2025-06-03_15h18.36.443,Serial_Dependence_U,2023.2.3,Win32,59.88023952095548,,,,,,1785.197100000024,15,8,1785.1971999999284,15,,,,1788.7508999999761,1789.2506999999284,1788.2352999999523,1788.7508999999761,1786.2017999999523,1788.2351999999285,1789.2506999999284,1789.7501000000238,1789.7501999999286,1790.0181000000239,166,1790.0181999999286,1,1790.03,8,4,244,6,1,1,0.7,Time
,,171761,001,w,28,2025-06-03_15h18.36.443,Serial_Dependence_U,2023.2.3,Win32,59.88023952095548,,,,,,1790.0301999999285,39,8,1790.0301999999285,39,,,,1793.385,1793.8838999999762,1792.8836999999285,1793.3848999999761,1791.0511999999285,1792.8836999999285,1793.884,1794.3831999999286,1794.3833999999763,1794.9671999999287,128,1794.9671999999287,1,1794.9776000000238,8,5,245,5,1,0.8,0.7,Time
,,171761,001,w,28,2025-06-03_15h18.36.443,Serial_Dependence_U,2023.2.3,Win32,59.88023952095548,,,,,,1794.9777999999524,178,8,1794.9778999999762,178,,,,1798.932600000024,1799.4326999999284,1798.417100000024,1798.932600000024,1795.9840000000002,1798.4167999999524,1799.4326999999284,1799.9331999999285,1799.9331999999285,1800.4831000000238,131,1800.4831000000238,1,1800.4926999999286,8,6,246,8,1,1.4,0.7,Time
,,171761,001,w,28,2025-06-03_15h18.36.443,Serial_Dependence_U,2023.2.3,Win32,59.88023952095548,,,,,,1800.4928999999763,222,8,1800.4930000000002,222,,,,1804.4498999999762,1804.9476999999285,1803.932600000024,1804.4497999999523,1801.4997999999523,1803.9323999999763,1804.9477999999524,1805.4475,1805.4475,1806.0317999999525,128,1806.0317999999525,1,1806.0396999999286,8,7,247,18,1,1.4,0.7,Time
,,171761,001,w,28,2025-06-03_15h18.36.443,Serial_Dependence_U,2023.2.3,Win32,59.88023952095548,,,,,,1806.0398999999761,1,8,1806.0398999999761,1,,,,1810.2318999999761,1810.7307999999523,1809.7157999999524,1810.2317999999523,1807.047600000024,1809.7156999999286,1810.7307999999523,1811.2306999999284,1811.2307999999523,1812.8298999999763,117,1812.8300000000002,1,1812.8366999999284,8,8,248,24,1,1.6,0.3,Time
,,171761,001,w,28,2025-06-03_15h18.36.443,Serial_Dependence_U,2023.2.3,Win32,59.88023952095548,,,,,,1812.8368999999761,281,8,1812.837,281,,,,1816.4141000000238,1816.913,1815.8976999999286,1816.414,1813.8301999999285,1815.8976000000239,1816.9131999999286,1817.413,1817.4131000000239,1819.0301999999285,130,1819.0302999999524,1,1819.039600000024,8,9,249,11,1,1,0.3,Time
,,171761,001,w,28,2025-06-03_15h18.36.443,Serial_Dependence_U,2023.2.3,Win32,59.88023952095548,,,,,,1819.0396999999286,50,8,1819.0397999999525,50,,,,1822.9961999999286,1823.4946000000239,1822.48,1822.996100000024,1820.047,1822.4798999999762,1823.4946000000239,1823.9946999999286,1823.9946999999286,1824.462600000024,118,1824.4627999999525,1,1824.4711999999286,8,10,250,28,1,1.4,0.7,Time
,,171761,001,w,28,2025-06-03_15h18.36.443,Serial_Dependence_U,2023.2.3,Win32,59.88023952095548,,,,,,1824.4713999999763,169,8,1824.4713999999763,169,,,,1827.845600000024,1828.3452999999524,1827.329600000024,1827.8455000000001,1825.4631000000238,1827.3292999999524,1828.3453999999763,1828.8446999999285,1828.845,1829.4116999999285,133,1829.4117999999523,1,1829.4213999999763,8,11,251,10,1,0.8,0.3,Time
,,171761,001,w,28,2025-06-03_15h18.36.443,Serial_Dependence_U,2023.2.3,Win32,59.88023952095548,,,,,,1829.4215000000002,84,8,1829.421600000024,84,,,,1832.7783999999763,1833.2772999999524,1832.2617999999525,1832.7782999999524,1830.4286999999285,1832.261600000024,1833.2772999999524,1833.7773999999763,1833.777600000024,1834.6942999999524,135,1834.6942999999524,1,1834.7041000000238,8,12,252,25,1,0.8,0.7,Time
,,171761,001,w,28,2025-06-03_15h18.36.443,Serial_Dependence_U,2023.2.3,Win32,59.88023952095548,,,,,,1834.7041999999285,300,8,1834.7042999999524,300,,,,1838.8941999999286,1839.3931999999286,1838.3775,1838.894,1835.7111999999286,1838.3772999999524,1839.3931999999286,1839.8932999999524,1839.8935000000001,1840.3598999999763,133,1840.3600000000001,1,1840.3692999999523,8,13,253,14,1,1.6,0.3,Time
,,171761,001,w,28,2025-06-03_15h18.36.443,Serial_Dependence_U,2023.2.3,Win32,59.88023952095548,,,,,,1840.3695,20,8,1840.3696000000239,20,,,,1844.5596999999286,1845.0596999999286,1844.0431999999284,1844.5595,1841.3768999999763,1844.0431999999284,1845.0596999999286,1845.5583999999762,1845.5585,1846.0413999999762,116,1846.0413999999762,1,1846.0458999999762,8,14,254,4,1,1.6,0.3,Time
