Scale_setup.started,Scale_setup.stopped,participant,session,sex,age,date,expName,psychopyVersion,OS,frameRate,Intro.started,Intro.stopped,key_resp_2.keys,key_resp_2.rt,key_resp_2.duration,block.started,direction,Block_id,block.stopped,trial_direction,Block_resp_2.keys,Block_resp_2.rt,Block_resp_2.duration,ITI.started,ITI.stopped,Mask_2.started,Mask_2.stopped,encoding.started,encoding.stopped,Cue.started,Cue.stopped,Response.started,Response.stopped,keyDuration,Feedback_Time.started,FeedbackID_T,Feedback_Time.stopped,trials.thisRepN,trials.thisTrialN,trials.thisN,trials.thisIndex,trials.ran,TimeDur,Coherence1,TrialType
0,0,199724,001,男,23,2025-06-04_13h43.57.663,Serial_Dependence_U,2023.2.3,Win32,89.92805755393564,,,,,,,,,,,,,,,,,,,,,,,,,,,,,,,,,,,
,,199724,001,男,23,2025-06-04_13h43.57.663,Serial_Dependence_U,2023.2.3,Win32,89.92805755393564,4.238999999999997,8.705999999999996,space,4.439,,,,,,,,,,,,,,,,,,,,,,,,,,,,,,,
,,199724,001,男,23,2025-06-04_13h43.57.663,Serial_Dependence_U,2023.2.3,Win32,89.92805755393564,,,,,,8.71,335,0,47.516999999999996,335,s,38.77700000000001,,51.507000000000005,52.006,50.995999999999995,51.507000000000005,48.525999999999996,50.995999999999995,52.006,52.504999999999995,52.504999999999995,54.607,1750,54.607,4,55.605000000000004,0,0,0,23,1,1.4,0.3,Time
,,199724,001,男,23,2025-06-04_13h43.57.663,Serial_Dependence_U,2023.2.3,Win32,89.92805755393564,,,,,,55.607,303,0,55.608999999999995,303,,,,59.178,59.672,58.673,59.178,56.61,58.673,59.672,60.172,60.172,61.797,1324,61.797,5,62.794,0,1,1,1,1,1,0.3,Time
,,199724,001,男,23,2025-06-04_13h43.57.663,Serial_Dependence_U,2023.2.3,Win32,89.92805755393564,,,,,,62.79599999999999,215,0,62.79599999999999,215,,,,66.374,66.872,65.867,66.374,63.79599999999999,65.867,66.872,67.373,67.373,68.807,1101,68.807,4,69.806,0,2,2,21,1,1,0.3,Time
,,199724,001,男,23,2025-06-04_13h43.57.663,Serial_Dependence_U,2023.2.3,Win32,89.92805755393564,,,,,,69.806,74,0,69.806,74,,,,73.17399999999999,73.672,72.66799999999999,73.17399999999999,70.807,72.66799999999999,73.672,74.172,74.172,75.53399999999999,1006,75.53399999999999,4,76.528,0,3,3,10,1,0.8,0.3,Time
,,199724,001,男,23,2025-06-04_13h43.57.663,Serial_Dependence_U,2023.2.3,Win32,89.92805755393564,,,,,,76.528,301,0,76.528,301,,,,80.67399999999999,81.172,80.163,80.67399999999999,77.528,80.163,81.172,81.672,81.672,83.173,1043,83.173,1,84.172,0,4,4,9,1,1.6,0.7,Time
,,199724,001,男,23,2025-06-04_13h43.57.663,Serial_Dependence_U,2023.2.3,Win32,89.92805755393564,,,,,,84.172,212,0,84.172,212,,,,87.92899999999999,88.427,87.41799999999999,87.92899999999999,85.185,87.41799999999999,88.427,88.927,88.927,90.49499999999999,1247,90.49499999999999,3,91.49399999999999,0,5,5,7,1,1.2,0.7,Time
,,199724,001,男,23,2025-06-04_13h43.57.663,Serial_Dependence_U,2023.2.3,Win32,89.92805755393564,,,,,,91.49399999999999,127,0,91.49399999999999,127,,,,95.28999999999999,95.78399999999999,94.77399999999997,95.28999999999999,92.49599999999998,94.77399999999997,95.78399999999999,96.28299999999999,96.28299999999999,97.85399999999998,1235,97.85399999999998,3,98.85,0,6,6,22,1,1.2,0.3,Time
,,199724,001,男,23,2025-06-04_13h43.57.663,Serial_Dependence_U,2023.2.3,Win32,89.92805755393564,,,,,,98.85099999999997,137,0,98.85099999999997,137,,,,102.40799999999999,102.90599999999998,101.89899999999997,102.40799999999999,99.86099999999999,101.89899999999997,102.90599999999998,103.40499999999997,103.40499999999997,104.92899999999997,1170,104.92899999999997,4,105.928,0,7,7,16,1,1,0.7,Time
,,199724,001,男,23,2025-06-04_13h43.57.663,Serial_Dependence_U,2023.2.3,Win32,89.92805755393564,,,,,,105.928,172,0,105.928,172,,,,109.87799999999999,110.37199999999999,109.36299999999997,109.87799999999999,106.92899999999997,109.36299999999997,110.37199999999999,110.87199999999999,110.87199999999999,112.42999999999998,1228,112.42999999999998,2,113.428,0,8,8,28,1,1.4,0.7,Time
,,199724,001,男,23,2025-06-04_13h43.57.663,Serial_Dependence_U,2023.2.3,Win32,89.92805755393564,,,,,,113.428,47,0,113.428,47,,,,117.606,118.10499999999999,117.106,117.606,114.44099999999997,117.106,118.10499999999999,118.606,118.606,120.32499999999999,1254,120.32499999999999,2,121.31699999999998,0,9,9,4,1,1.6,0.3,Time
,,199724,001,男,23,2025-06-04_13h43.57.663,Serial_Dependence_U,2023.2.3,Win32,89.92805755393564,,,,,,121.31699999999998,149,0,121.31699999999998,149,,,,125.05199999999999,125.54999999999998,124.54999999999998,125.05199999999999,122.31699999999998,124.54999999999998,125.54999999999998,126.05099999999999,126.05099999999999,127.76299999999998,1373,127.76299999999998,4,128.76199999999997,0,10,10,27,1,1.2,0.7,Time
,,199724,001,男,23,2025-06-04_13h43.57.663,Serial_Dependence_U,2023.2.3,Win32,89.92805755393564,,,,,,128.76399999999998,104,0,128.76399999999998,104,,,,132.522,133.017,132.00599999999997,132.522,129.76899999999998,132.00599999999997,133.017,133.516,133.516,134.72799999999998,906,134.72799999999998,2,135.72799999999998,0,11,11,17,1,1.2,0.7,Time
,,199724,001,男,23,2025-06-04_13h43.57.663,Serial_Dependence_U,2023.2.3,Win32,89.92805755393564,,,,,,135.72799999999998,114,0,135.72799999999998,114,,,,139.08399999999997,139.583,138.57399999999998,139.08399999999997,136.72899999999998,138.57399999999998,139.583,140.083,140.08399999999997,141.49699999999999,1058,141.49699999999999,5,142.49399999999997,0,12,12,25,1,0.8,0.7,Time
,,199724,001,男,23,2025-06-04_13h43.57.663,Serial_Dependence_U,2023.2.3,Win32,89.92805755393564,,,,,,142.49499999999998,261,0,142.49499999999998,261,,,,146.433,146.928,145.932,146.433,143.49499999999998,145.932,146.928,147.428,147.428,148.69899999999998,919,148.69899999999998,1,149.694,0,13,13,8,1,1.4,0.7,Time
,,199724,001,男,23,2025-06-04_13h43.57.663,Serial_Dependence_U,2023.2.3,Win32,89.92805755393564,,,,,,149.695,252,0,149.695,252,,,,153.641,154.13899999999998,153.14,153.641,150.695,153.14,154.13899999999998,154.63899999999998,154.63899999999998,156.57399999999998,1202,156.57399999999998,2,157.57199999999997,0,14,14,18,1,1.4,0.7,Time
,,199724,001,男,23,2025-06-04_13h43.57.663,Serial_Dependence_U,2023.2.3,Win32,89.92805755393564,,,,,,157.57199999999997,255,0,157.57299999999998,255,,,,160.92899999999997,161.428,160.41799999999998,160.92899999999997,158.58399999999997,160.41799999999998,161.428,161.928,161.928,163.201,959,163.201,4,164.195,0,15,15,15,1,0.8,0.7,Time
,,199724,001,男,23,2025-06-04_13h43.57.663,Serial_Dependence_U,2023.2.3,Win32,89.92805755393564,,,,,,164.196,226,0,164.19699999999997,226,,,,167.553,168.04999999999998,167.041,167.551,165.196,167.041,168.04999999999998,168.551,168.551,169.76299999999998,846,169.76299999999998,4,170.761,0,16,16,5,1,0.8,0.7,Time
,,199724,001,男,23,2025-06-04_13h43.57.663,Serial_Dependence_U,2023.2.3,Win32,89.92805755393564,,,,,,170.76199999999997,302,0,170.76199999999997,302,,,,174.91699999999997,175.41699999999997,174.40699999999998,174.91699999999997,171.766,174.40699999999998,175.41699999999997,175.91699999999997,175.91699999999997,177.49599999999998,1233,177.49599999999998,2,178.49499999999998,0,17,17,19,1,1.6,0.7,Time
,,199724,001,男,23,2025-06-04_13h43.57.663,Serial_Dependence_U,2023.2.3,Win32,89.92805755393564,,,,,,178.49499999999998,101,0,178.49499999999998,101,,,,182.63899999999998,183.14,182.13,182.63899999999998,179.49599999999998,182.13,183.14,183.63899999999998,183.63899999999998,185.26199999999997,1197,185.26199999999997,2,186.26199999999997,0,18,18,29,1,1.6,0.7,Time
,,199724,001,男,23,2025-06-04_13h43.57.663,Serial_Dependence_U,2023.2.3,Win32,89.92805755393564,,,,,,186.26199999999997,168,0,186.26199999999997,168,,,,190.237,190.73999999999998,189.73,190.237,187.26199999999997,189.73,190.73999999999998,191.23899999999998,191.23899999999998,192.819,1292,192.819,2,193.81699999999998,0,19,19,13,1,1.4,0.3,Time
,,199724,001,男,23,2025-06-04_13h43.57.663,Serial_Dependence_U,2023.2.3,Win32,89.92805755393564,,,,,,193.81799999999998,201,0,193.81799999999998,201,,,,197.196,197.695,196.68499999999997,197.196,194.82299999999998,196.68499999999997,197.695,198.194,198.194,199.99999999999997,1222,199.99999999999997,5,200.99499999999998,0,20,20,20,1,0.8,0.3,Time
,,199724,001,男,23,2025-06-04_13h43.57.663,Serial_Dependence_U,2023.2.3,Win32,89.92805755393564,,,,,,200.99499999999998,190,0,200.99499999999998,190,,,,204.778,205.273,204.26299999999998,204.778,201.99599999999998,204.26299999999998,205.273,205.773,205.773,207.154,1100,207.154,2,208.14999999999998,0,21,21,12,1,1.2,0.3,Time
,,199724,001,男,23,2025-06-04_13h43.57.663,Serial_Dependence_U,2023.2.3,Win32,89.92805755393564,,,,,,208.15099999999998,202,0,208.15099999999998,202,,,,212.315,212.81699999999998,211.814,212.314,209.152,211.814,212.81699999999998,213.31699999999998,213.31699999999998,214.23499999999999,579,214.236,1,215.22799999999998,0,22,22,14,1,1.6,0.3,Time
,,199724,001,男,23,2025-06-04_13h43.57.663,Serial_Dependence_U,2023.2.3,Win32,89.92805755393564,,,,,,215.22799999999998,336,0,215.22799999999998,336,,,,219.40699999999998,219.905,218.901,219.40699999999998,216.22999999999996,218.89999999999998,219.905,220.40600000000003,220.40600000000003,222.153,1204,222.153,2,223.15,0,23,23,24,1,1.6,0.3,Time
,,199724,001,男,23,2025-06-04_13h43.57.663,Serial_Dependence_U,2023.2.3,Win32,89.92805755393564,,,,,,223.15,343,0,223.15,343,,,,226.708,227.206,226.18700000000004,226.708,224.15100000000004,226.18700000000004,227.206,227.705,227.70700000000002,229.29600000000002,1240,229.297,4,230.295,0,24,24,26,1,1,0.7,Time
,,199724,001,男,23,2025-06-04_13h43.57.663,Serial_Dependence_U,2023.2.3,Win32,89.92805755393564,,,,,,230.29600000000002,16,0,230.29600000000002,16,,,,233.852,234.35,233.34,233.852,231.30800000000002,233.34,234.35,234.85100000000003,234.85100000000003,236.268,1090,236.268,4,237.261,0,25,25,6,1,1,0.7,Time
,,199724,001,男,23,2025-06-04_13h43.57.663,Serial_Dependence_U,2023.2.3,Win32,89.92805755393564,,,,,,237.26200000000003,18,0,237.26200000000003,18,,,,240.83,241.328,240.328,240.83,238.263,240.328,241.32900000000004,241.828,241.828,243.155,1100,243.155,4,244.15,0,26,26,11,1,1,0.3,Time
,,199724,001,男,23,2025-06-04_13h43.57.663,Serial_Dependence_U,2023.2.3,Win32,89.92805755393564,,,,,,244.15,296,0,244.15100000000004,296,,,,247.52900000000002,248.028,247.025,247.52900000000002,245.15200000000002,247.025,248.028,248.528,248.528,249.81500000000003,1004,249.81500000000003,4,250.81700000000004,0,27,27,0,1,0.8,0.3,Time
,,199724,001,男,23,2025-06-04_13h43.57.663,Serial_Dependence_U,2023.2.3,Win32,89.92805755393564,,,,,,250.81700000000004,80,0,250.81700000000004,80,,,,254.807,255.306,254.29800000000003,254.807,251.826,254.29800000000003,255.306,255.806,255.806,257.096,966,257.096,1,258.095,0,28,28,3,1,1.4,0.3,Time
,,199724,001,男,23,2025-06-04_13h43.57.663,Serial_Dependence_U,2023.2.3,Win32,89.92805755393564,,,,,,258.096,139,0,258.096,139,,,,261.889,262.384,261.376,261.88800000000003,259.10900000000004,261.376,262.384,262.884,262.884,264.15100000000007,1011,264.15100000000007,2,265.15100000000007,0,29,29,2,1,1.2,0.3,Time
,,199724,001,男,23,2025-06-04_13h43.57.663,Serial_Dependence_U,2023.2.3,Win32,89.92805755393564,,,,,,265.15100000000007,331,1,308.08500000000004,331,s,42.916,,311.635,312.12800000000004,311.12199999999996,311.635,309.08500000000004,311.12199999999996,312.12800000000004,312.62800000000004,312.62800000000004,313.951,1036,313.951,3,313.951,1,0,30,16,1,1,0.7,Time
,,199724,001,男,23,2025-06-04_13h43.57.663,Serial_Dependence_U,2023.2.3,Win32,89.92805755393564,,,,,,313.95400000000006,67,1,313.95400000000006,67,,,,317.53,318.028,317.019,317.53,314.956,317.019,318.028,318.528,318.528,319.952,1080,319.952,4,319.953,1,1,31,11,1,1,0.3,Time
,,199724,001,男,23,2025-06-04_13h43.57.663,Serial_Dependence_U,2023.2.3,Win32,89.92805755393564,,,,,,319.953,75,1,319.953,75,,,,323.54100000000005,324.039,323.03999999999996,323.54100000000005,320.96400000000006,323.03999999999996,324.039,324.53999999999996,324.53999999999996,325.89,1033,325.89,3,325.89,1,2,32,21,1,1,0.3,Time
,,199724,001,男,23,2025-06-04_13h43.57.663,Serial_Dependence_U,2023.2.3,Win32,89.92805755393564,,,,,,325.89099999999996,333,1,325.89099999999996,333,,,,329.669,330.16200000000003,329.163,329.669,326.88700000000006,329.163,330.16200000000003,330.66200000000003,330.66200000000003,332.28499999999997,1194,332.28499999999997,3,332.28600000000006,1,3,33,22,1,1.2,0.3,Time
,,199724,001,男,23,2025-06-04_13h43.57.663,Serial_Dependence_U,2023.2.3,Win32,89.92805755393564,,,,,,332.28600000000006,72,1,332.28700000000003,72,,,,335.86300000000006,336.36199999999997,335.36300000000006,335.86300000000006,333.297,335.36300000000006,336.36199999999997,336.86199999999997,336.86199999999997,338.336,1159,338.336,4,338.337,1,4,34,1,1,1,0.3,Time
,,199724,001,男,23,2025-06-04_13h43.57.663,Serial_Dependence_U,2023.2.3,Win32,89.92805755393564,,,,,,338.337,306,1,338.337,306,,,,341.68600000000004,342.183,341.178,341.68600000000004,339.33299999999997,341.178,342.18399999999997,342.68399999999997,342.68399999999997,343.852,877,343.852,4,343.852,1,5,35,15,1,0.8,0.7,Time
,,199724,001,男,23,2025-06-04_13h43.57.663,Serial_Dependence_U,2023.2.3,Win32,89.92805755393564,,,,,,343.85300000000007,232,1,343.85300000000007,232,,,,348.01300000000003,348.506,347.50800000000004,348.01300000000003,344.86300000000006,347.50800000000004,348.506,349.00700000000006,349.00700000000006,350.528,1220,350.528,2,350.529,1,6,36,29,1,1.6,0.7,Time
,,199724,001,男,23,2025-06-04_13h43.57.663,Serial_Dependence_U,2023.2.3,Win32,89.92805755393564,,,,,,350.529,269,1,350.529,269,,,,354.27600000000007,354.773,353.774,354.27600000000007,351.54200000000003,353.774,354.773,355.273,355.273,356.764,1113,356.764,2,356.765,1,7,37,27,1,1.2,0.7,Time
,,199724,001,男,23,2025-06-04_13h43.57.663,Serial_Dependence_U,2023.2.3,Win32,89.92805755393564,,,,,,356.76599999999996,128,1,356.76599999999996,128,,,,360.73699999999997,361.23900000000003,360.23699999999997,360.73699999999997,357.764,360.23699999999997,361.23900000000003,361.74,361.74,362.942,879,362.942,1,362.943,1,8,38,23,1,1.4,0.3,Time
,,199724,001,男,23,2025-06-04_13h43.57.663,Serial_Dependence_U,2023.2.3,Win32,89.92805755393564,,,,,,362.943,232,1,362.943,232,,,,366.47900000000004,366.97299999999996,365.97400000000005,366.47900000000004,363.94100000000003,365.97400000000005,366.97299999999996,367.47299999999996,367.47299999999996,368.822,1015,368.822,3,368.823,1,9,39,26,1,1,0.7,Time
,,199724,001,男,23,2025-06-04_13h43.57.663,Serial_Dependence_U,2023.2.3,Win32,89.92805755393564,,,,,,368.823,216,1,368.823,216,,,,372.77700000000004,373.273,372.26300000000003,372.77700000000004,369.831,372.26300000000003,373.273,373.773,373.773,375.32400000000007,1175,375.32400000000007,2,375.32500000000005,1,10,40,18,1,1.4,0.7,Time
,,199724,001,男,23,2025-06-04_13h43.57.663,Serial_Dependence_U,2023.2.3,Win32,89.92805755393564,,,,,,375.32500000000005,284,1,375.32500000000005,284,,,,379.28100000000006,379.773,378.77600000000007,379.28,376.33000000000004,378.77600000000007,379.773,380.273,380.273,381.50800000000004,851,381.50800000000004,1,381.509,1,11,41,28,1,1.4,0.7,Time
,,199724,001,男,23,2025-06-04_13h43.57.663,Serial_Dependence_U,2023.2.3,Win32,89.92805755393564,,,,,,381.509,82,1,381.509,82,,,,385.48400000000004,385.98400000000004,384.975,385.48400000000004,382.50800000000004,384.975,385.98400000000004,386.48400000000004,386.48400000000004,387.919,1136,387.919,2,387.91999999999996,1,12,42,13,1,1.4,0.3,Time
,,199724,001,男,23,2025-06-04_13h43.57.663,Serial_Dependence_U,2023.2.3,Win32,89.92805755393564,,,,,,387.92100000000005,18,1,387.92100000000005,18,,,,391.288,391.784,390.78600000000006,391.288,388.919,390.78600000000006,391.784,392.284,392.284,393.504,915,393.504,4,393.504,1,13,43,0,1,0.8,0.3,Time
,,199724,001,男,23,2025-06-04_13h43.57.663,Serial_Dependence_U,2023.2.3,Win32,89.92805755393564,,,,,,393.504,132,1,393.504,132,,,,396.88599999999997,397.385,396.37700000000007,396.885,394.50800000000004,396.37700000000007,397.385,397.884,397.884,399.05600000000004,889,399.05600000000004,4,399.05600000000004,1,14,44,10,1,0.8,0.3,Time
,,199724,001,男,23,2025-06-04_13h43.57.663,Serial_Dependence_U,2023.2.3,Win32,89.92805755393564,,,,,,399.05600000000004,298,1,399.057,298,,,,402.40700000000004,402.90600000000006,401.89599999999996,402.40700000000004,400.05100000000004,401.89599999999996,402.90600000000006,403.40600000000006,403.40600000000006,404.68600000000004,1007,404.68600000000004,4,404.687,1,15,45,25,1,0.8,0.7,Time
,,199724,001,男,23,2025-06-04_13h43.57.663,Serial_Dependence_U,2023.2.3,Win32,89.92805755393564,,,,,,404.687,172,1,404.688,172,,,,408.827,409.328,408.318,408.827,405.68500000000006,408.317,409.328,409.828,409.828,411.203,1006,411.203,1,411.203,1,16,46,9,1,1.6,0.7,Time
,,199724,001,男,23,2025-06-04_13h43.57.663,Serial_Dependence_U,2023.2.3,Win32,89.92805755393564,,,,,,411.203,191,1,411.203,191,,,,414.999,415.495,414.486,414.999,412.21900000000005,414.486,415.495,415.995,415.995,417.57900000000006,1045,417.57900000000006,2,417.58000000000004,1,17,47,12,1,1.2,0.3,Time
,,199724,001,男,23,2025-06-04_13h43.57.663,Serial_Dependence_U,2023.2.3,Win32,89.92805755393564,,,,,,417.58000000000004,160,1,417.58000000000004,160,,,,421.552,422.05100000000004,421.04100000000005,421.552,418.577,421.04100000000005,422.05100000000004,422.55000000000007,422.55100000000004,424.03,1114,424.03,2,424.03100000000006,1,18,48,3,1,1.4,0.3,Time
,,199724,001,男,23,2025-06-04_13h43.57.663,Serial_Dependence_U,2023.2.3,Win32,89.92805755393564,,,,,,424.033,267,1,424.033,267,,,,427.81899999999996,428.317,427.308,427.818,425.04100000000005,427.308,428.317,428.817,428.817,430.707,1504,430.707,4,430.707,1,19,49,2,1,1.2,0.3,Time
,,199724,001,男,23,2025-06-04_13h43.57.663,Serial_Dependence_U,2023.2.3,Win32,89.92805755393564,,,,,,430.70799999999997,300,1,430.70799999999997,300,,,,434.649,435.15100000000007,434.14099999999996,434.649,431.70900000000006,434.14099999999996,435.15100000000007,435.65100000000007,435.65100000000007,437.18000000000006,1206,437.18000000000006,2,437.18100000000004,1,20,50,8,1,1.4,0.7,Time
,,199724,001,男,23,2025-06-04_13h43.57.663,Serial_Dependence_U,2023.2.3,Win32,89.92805755393564,,,,,,437.18100000000004,3,1,437.18100000000004,3,,,,440.73400000000004,441.22900000000004,440.22,440.73300000000006,438.174,440.22,441.22900000000004,441.72800000000007,441.72900000000004,443.27600000000007,1218,443.27600000000007,4,443.27700000000004,1,21,51,6,1,1,0.7,Time
,,199724,001,男,23,2025-06-04_13h43.57.663,Serial_Dependence_U,2023.2.3,Win32,89.92805755393564,,,,,,443.27700000000004,60,1,443.27700000000004,60,,,,447.47,447.96299999999997,446.96400000000006,447.47,444.28600000000006,446.96299999999997,447.96299999999997,448.462,448.462,450.091,1298,450.091,2,450.091,1,22,52,24,1,1.6,0.3,Time
,,199724,001,男,23,2025-06-04_13h43.57.663,Serial_Dependence_U,2023.2.3,Win32,89.92805755393564,,,,,,450.091,310,1,450.092,310,,,,454.264,454.76200000000006,453.746,454.264,451.086,453.746,454.76200000000006,455.26200000000006,455.26200000000006,456.937,1369,456.937,2,456.938,1,23,53,14,1,1.6,0.3,Time
,,199724,001,男,23,2025-06-04_13h43.57.663,Serial_Dependence_U,2023.2.3,Win32,89.92805755393564,,,,,,456.93899999999996,107,1,456.93899999999996,107,,,,460.34000000000003,460.84000000000003,459.83000000000004,460.34000000000003,457.952,459.83000000000004,460.84000000000003,461.34000000000003,461.34000000000003,462.73,1076,462.73,5,462.73199999999997,1,24,54,20,1,0.8,0.3,Time
,,199724,001,男,23,2025-06-04_13h43.57.663,Serial_Dependence_U,2023.2.3,Win32,89.92805755393564,,,,,,462.73199999999997,299,1,462.73199999999997,299,,,,466.08900000000006,466.58400000000006,465.57400000000007,466.08900000000006,463.73,465.57400000000007,466.58400000000006,467.08500000000004,467.08500000000004,468.375,1020,468.375,4,468.375,1,25,55,5,1,0.8,0.7,Time
,,199724,001,男,23,2025-06-04_13h43.57.663,Serial_Dependence_U,2023.2.3,Win32,89.92805755393564,,,,,,468.376,328,1,468.376,328,,,,472.567,473.062,472.053,472.567,469.374,472.053,473.062,473.562,473.562,475.03999999999996,1221,475.03999999999996,2,475.04099999999994,1,26,56,4,1,1.6,0.3,Time
,,199724,001,男,23,2025-06-04_13h43.57.663,Serial_Dependence_U,2023.2.3,Win32,89.92805755393564,,,,,,475.04099999999994,277,1,475.04099999999994,277,,,,478.79099999999994,479.28499999999997,478.28700000000003,478.79099999999994,476.053,478.28700000000003,479.28499999999997,479.78499999999997,479.78499999999997,481.32899999999995,1276,481.32899999999995,4,481.32899999999995,1,27,57,17,1,1.2,0.7,Time
,,199724,001,男,23,2025-06-04_13h43.57.663,Serial_Dependence_U,2023.2.3,Win32,89.92805755393564,,,,,,481.32899999999995,178,1,481.33000000000004,178,,,,485.49,485.985,484.976,485.49,482.32899999999995,484.975,485.985,486.48400000000004,486.48400000000004,488.08500000000004,1314,488.08500000000004,2,488.086,1,28,58,19,1,1.6,0.7,Time
,,199724,001,男,23,2025-06-04_13h43.57.663,Serial_Dependence_U,2023.2.3,Win32,89.92805755393564,,,,,,488.087,136,1,488.087,136,,,,491.831,492.32899999999995,491.33000000000004,491.831,489.08500000000004,491.33000000000004,492.32899999999995,492.82899999999995,492.82899999999995,494.72,1568,494.72,5,494.721,1,29,59,7,1,1.2,0.7,Time
,,199724,001,男,23,2025-06-04_13h43.57.663,Serial_Dependence_U,2023.2.3,Win32,89.92805755393564,,,,,,494.721,278,2,521.262,278,s,26.519999999999982,,525.03,525.529,524.513,525.03,522.275,524.513,525.529,526.029,526.029,527.408,1108,527.408,2,527.409,2,0,60,7,1,1.2,0.7,Time
,,199724,001,男,23,2025-06-04_13h43.57.663,Serial_Dependence_U,2023.2.3,Win32,89.92805755393564,,,,,,527.41,242,2,527.412,242,,,,530.986,531.485,530.486,530.986,528.424,530.486,531.485,531.985,531.985,533.558,1255,533.559,4,533.559,2,1,61,1,1,1,0.3,Time
,,199724,001,男,23,2025-06-04_13h43.57.663,Serial_Dependence_U,2023.2.3,Win32,89.92805755393564,,,,,,533.559,20,2,533.559,20,,,,537.108,537.607,536.598,537.108,534.563,536.598,537.607,538.107,538.107,539.641,950,539.6419999999999,2,539.6419999999999,2,2,62,26,1,1,0.7,Time
,,199724,001,男,23,2025-06-04_13h43.57.663,Serial_Dependence_U,2023.2.3,Win32,89.92805755393564,,,,,,539.643,284,2,539.643,284,,,,543.2189999999999,543.718,542.712,543.2189999999999,540.645,542.712,543.718,544.218,544.218,545.641,1150,545.641,4,545.6419999999999,2,3,63,11,1,1,0.3,Time
,,199724,001,男,23,2025-06-04_13h43.57.663,Serial_Dependence_U,2023.2.3,Win32,89.92805755393564,,,,,,545.6419999999999,125,2,545.6419999999999,125,,,,549.409,549.907,548.909,549.409,546.6419999999999,548.909,549.907,550.407,550.407,551.8249999999999,1156,551.8249999999999,3,551.826,2,4,64,22,1,1.2,0.3,Time
,,199724,001,男,23,2025-06-04_13h43.57.663,Serial_Dependence_U,2023.2.3,Win32,89.92805755393564,,,,,,551.827,210,2,551.827,210,,,,555.797,556.295,555.297,555.797,552.832,555.297,556.295,556.7959999999999,556.7959999999999,558.39,1330,558.39,3,558.39,2,5,65,13,1,1.4,0.3,Time
,,199724,001,男,23,2025-06-04_13h43.57.663,Serial_Dependence_U,2023.2.3,Win32,89.92805755393564,,,,,,558.391,336,2,558.391,336,,,,561.923,562.418,561.4209999999999,561.923,559.388,561.4209999999999,562.418,562.917,562.917,564.574,1387,564.574,5,564.574,2,6,66,16,1,1,0.7,Time
,,199724,001,男,23,2025-06-04_13h43.57.663,Serial_Dependence_U,2023.2.3,Win32,89.92805755393564,,,,,,564.5749999999999,317,2,564.5749999999999,317,,,,567.951,568.451,567.4449999999999,567.951,565.574,567.4449999999999,568.451,568.951,568.951,570.28,1080,570.28,5,570.28,2,7,67,10,1,0.8,0.3,Time
,,199724,001,男,23,2025-06-04_13h43.57.663,Serial_Dependence_U,2023.2.3,Win32,89.92805755393564,,,,,,570.28,273,2,570.28,273,,,,574.0459999999999,574.54,573.54,574.0459999999999,571.275,573.54,574.54,575.04,575.04,576.3969999999999,1033,576.3969999999999,2,576.3969999999999,2,8,68,12,1,1.2,0.3,Time
,,199724,001,男,23,2025-06-04_13h43.57.663,Serial_Dependence_U,2023.2.3,Win32,89.92805755393564,,,,,,576.3969999999999,248,2,576.3969999999999,248,,,,580.579,581.073,580.063,580.579,577.4019999999999,580.063,581.073,581.574,581.574,583.2909999999999,1361,583.2909999999999,2,583.292,2,9,69,14,1,1.6,0.3,Time
,,199724,001,男,23,2025-06-04_13h43.57.663,Serial_Dependence_U,2023.2.3,Win32,89.92805755393564,,,,,,583.293,261,2,583.293,261,,,,587.079,587.574,586.576,587.079,584.297,586.576,587.574,588.074,588.074,589.6899999999999,1344,589.6899999999999,4,589.691,2,10,70,2,1,1.2,0.3,Time
,,199724,001,男,23,2025-06-04_13h43.57.663,Serial_Dependence_U,2023.2.3,Win32,89.92805755393564,,,,,,589.691,277,2,589.691,277,,,,593.086,593.585,592.5749999999999,593.085,590.702,592.5749999999999,593.585,594.085,594.085,595.447,1062,595.447,5,595.448,2,11,71,0,1,0.8,0.3,Time
,,199724,001,男,23,2025-06-04_13h43.57.663,Serial_Dependence_U,2023.2.3,Win32,89.92805755393564,,,,,,595.448,343,2,595.448,343,,,,599.02,599.518,598.508,599.02,596.4639999999999,598.508,599.518,600.018,600.018,601.536,1243,601.536,4,601.537,2,12,72,6,1,1,0.7,Time
,,199724,001,男,23,2025-06-04_13h43.57.663,Serial_Dependence_U,2023.2.3,Win32,89.92805755393564,,,,,,601.537,218,2,601.537,218,,,,605.675,606.174,605.164,605.675,602.533,605.164,606.174,606.674,606.674,608.197,1230,608.197,2,608.197,2,13,73,9,1,1.6,0.7,Time
,,199724,001,男,23,2025-06-04_13h43.57.663,Serial_Dependence_U,2023.2.3,Win32,89.92805755393564,,,,,,608.199,248,2,608.199,248,,,,611.786,612.285,611.264,611.786,609.196,611.263,612.286,612.785,612.785,614.523,1400,614.523,5,614.524,2,14,74,21,1,1,0.3,Time
,,199724,001,男,23,2025-06-04_13h43.57.663,Serial_Dependence_U,2023.2.3,Win32,89.92805755393564,,,,,,614.525,250,2,614.525,250,,,,618.508,619.007,617.9979999999999,618.507,615.534,617.9979999999999,619.007,619.508,619.508,620.953,1109,620.953,2,620.953,2,15,75,3,1,1.4,0.3,Time
,,199724,001,男,23,2025-06-04_13h43.57.663,Serial_Dependence_U,2023.2.3,Win32,89.92805755393564,,,,,,620.954,347,2,620.954,347,,,,625.12,625.6179999999999,624.617,625.12,621.953,624.617,625.6179999999999,626.1179999999999,626.1179999999999,627.586,1259,627.586,2,627.586,2,16,76,24,1,1.6,0.3,Time
,,199724,001,男,23,2025-06-04_13h43.57.663,Serial_Dependence_U,2023.2.3,Win32,89.92805755393564,,,,,,627.587,111,2,627.587,111,,,,631.742,632.24,631.242,631.742,628.597,631.242,632.241,632.74,632.74,634.308,1247,634.308,2,634.309,2,17,77,29,1,1.6,0.7,Time
,,199724,001,男,23,2025-06-04_13h43.57.663,Serial_Dependence_U,2023.2.3,Win32,89.92805755393564,,,,,,634.309,43,2,634.309,43,,,,638.4789999999999,638.9739999999999,637.977,638.4789999999999,635.308,637.977,638.9739999999999,639.4739999999999,639.4739999999999,640.96,1237,640.96,2,640.961,2,18,78,4,1,1.6,0.3,Time
,,199724,001,男,23,2025-06-04_13h43.57.663,Serial_Dependence_U,2023.2.3,Win32,89.92805755393564,,,,,,640.961,258,2,640.961,258,,,,644.323,644.818,643.81,644.323,641.963,643.809,644.818,645.318,645.318,646.813,1217,646.813,5,646.813,2,19,79,25,1,0.8,0.7,Time
,,199724,001,男,23,2025-06-04_13h43.57.663,Serial_Dependence_U,2023.2.3,Win32,89.92805755393564,,,,,,646.814,237,2,646.814,237,,,,650.742,651.24,650.241,650.742,647.809,650.241,651.24,651.741,651.741,653.3629999999999,1336,653.3629999999999,3,653.364,2,20,80,28,1,1.4,0.7,Time
,,199724,001,男,23,2025-06-04_13h43.57.663,Serial_Dependence_U,2023.2.3,Win32,89.92805755393564,,,,,,653.365,62,2,653.365,62,,,,656.703,657.196,656.202,656.702,654.3629999999999,656.202,657.196,657.696,657.696,659.588,1170,659.588,5,659.588,2,21,81,15,1,0.8,0.7,Time
,,199724,001,男,23,2025-06-04_13h43.57.663,Serial_Dependence_U,2023.2.3,Win32,89.92805755393564,,,,,,659.588,75,2,659.588,75,,,,663.329,663.83,662.826,663.329,660.587,662.8249999999999,663.83,664.329,664.329,665.971,1353,665.971,4,665.971,2,22,82,27,1,1.2,0.7,Time
,,199724,001,男,23,2025-06-04_13h43.57.663,Serial_Dependence_U,2023.2.3,Win32,89.92805755393564,,,,,,665.971,235,2,665.972,235,,,,669.324,669.818,668.823,669.324,666.98,668.823,669.818,670.319,670.319,671.797,1200,671.798,5,671.798,2,23,83,5,1,0.8,0.7,Time
,,199724,001,男,23,2025-06-04_13h43.57.663,Serial_Dependence_U,2023.2.3,Win32,89.92805755393564,,,,,,671.798,239,2,671.798,239,,,,675.9449999999999,676.4399999999999,675.43,675.9449999999999,672.798,675.43,676.4399999999999,676.941,676.941,678.502,1249,678.502,2,678.502,2,24,84,19,1,1.6,0.7,Time
,,199724,001,男,23,2025-06-04_13h43.57.663,Serial_Dependence_U,2023.2.3,Win32,89.92805755393564,,,,,,678.5029999999999,52,2,678.5029999999999,52,,,,682.252,682.751,681.742,682.252,679.497,681.742,682.751,683.252,683.252,684.867,1277,684.867,4,684.8679999999999,2,25,85,17,1,1.2,0.7,Time
,,199724,001,男,23,2025-06-04_13h43.57.663,Serial_Dependence_U,2023.2.3,Win32,89.92805755393564,,,,,,684.8679999999999,304,2,684.8679999999999,304,,,,688.81,689.307,688.309,688.81,685.866,688.309,689.307,689.807,689.807,691.4929999999999,1400,691.4929999999999,3,691.494,2,26,86,18,1,1.4,0.7,Time
,,199724,001,男,23,2025-06-04_13h43.57.663,Serial_Dependence_U,2023.2.3,Win32,89.92805755393564,,,,,,691.495,209,2,691.495,209,,,,695.456,695.952,694.942,695.456,692.505,694.942,695.952,696.452,696.452,697.983,1250,697.983,2,697.984,2,27,87,8,1,1.4,0.7,Time
,,199724,001,男,23,2025-06-04_13h43.57.663,Serial_Dependence_U,2023.2.3,Win32,89.92805755393564,,,,,,697.984,9,2,697.984,9,,,,701.364,701.8629999999999,700.8629999999999,701.364,698.997,700.8629999999999,701.8629999999999,702.3629999999999,702.3629999999999,703.787,1116,703.787,5,703.788,2,28,88,20,1,0.8,0.3,Time
,,199724,001,男,23,2025-06-04_13h43.57.663,Serial_Dependence_U,2023.2.3,Win32,89.92805755393564,,,,,,703.789,297,2,703.789,297,,,,707.778,708.274,707.265,707.778,704.786,707.265,708.274,708.774,708.774,710.408,1351,710.408,3,710.409,2,29,89,23,1,1.4,0.3,Time
,,199724,001,男,23,2025-06-04_13h43.57.663,Serial_Dependence_U,2023.2.3,Win32,89.92805755393564,,,,,,710.41,188,3,715.385,188,s,4.959999999999923,,719.1759999999999,719.674,718.664,719.175,716.398,718.664,719.674,720.174,720.174,721.709,1304,721.709,4,721.709,3,0,90,22,1,1.2,0.3,Time
,,199724,001,男,23,2025-06-04_13h43.57.663,Serial_Dependence_U,2023.2.3,Win32,89.92805755393564,,,,,,721.71,30,3,721.712,30,,,,725.058,725.552,724.557,725.058,722.7189999999999,724.557,725.552,726.052,726.052,727.435,1120,727.435,5,727.435,3,1,91,15,1,0.8,0.7,Time
,,199724,001,男,23,2025-06-04_13h43.57.663,Serial_Dependence_U,2023.2.3,Win32,89.92805755393564,,,,,,727.435,221,3,727.435,221,,,,730.98,731.4739999999999,730.4789999999999,730.98,728.443,730.4789999999999,731.4739999999999,731.9739999999999,731.9739999999999,733.3389999999999,1033,733.3389999999999,3,733.34,3,2,92,16,1,1,0.7,Time
,,199724,001,男,23,2025-06-04_13h43.57.663,Serial_Dependence_U,2023.2.3,Win32,89.92805755393564,,,,,,733.341,63,3,733.342,63,,,,737.309,737.807,736.798,737.309,734.347,736.798,737.807,738.307,738.307,739.944,1315,739.944,2,739.9449999999999,3,3,93,28,1,1.4,0.7,Time
,,199724,001,男,23,2025-06-04_13h43.57.663,Serial_Dependence_U,2023.2.3,Win32,89.92805755393564,,,,,,739.9449999999999,101,3,739.9449999999999,101,,,,743.885,744.385,743.376,743.885,740.942,743.376,744.385,744.885,744.885,746.814,1484,746.814,4,746.8149999999999,3,4,94,8,1,1.4,0.7,Time
,,199724,001,男,23,2025-06-04_13h43.57.663,Serial_Dependence_U,2023.2.3,Win32,89.92805755393564,,,,,,746.8149999999999,329,3,746.8149999999999,329,,,,750.956,751.451,750.453,750.956,747.816,750.453,751.451,751.952,751.952,753.598,1334,753.598,2,753.598,3,5,95,29,1,1.6,0.7,Time
,,199724,001,男,23,2025-06-04_13h43.57.663,Serial_Dependence_U,2023.2.3,Win32,89.92805755393564,,,,,,753.598,108,3,753.598,108,,,,756.9789999999999,757.4739999999999,756.4639999999999,756.9789999999999,754.598,756.4639999999999,757.4739999999999,757.9739999999999,757.9739999999999,759.226,1002,759.226,4,759.226,3,6,96,0,1,0.8,0.3,Time
,,199724,001,男,23,2025-06-04_13h43.57.663,Serial_Dependence_U,2023.2.3,Win32,89.92805755393564,,,,,,759.226,18,3,759.226,18,,,,762.792,763.285,762.2909999999999,762.7909999999999,760.2189999999999,762.2909999999999,763.285,763.785,763.785,765.303,1240,765.304,4,765.305,3,7,97,11,1,1,0.3,Time
,,199724,001,男,23,2025-06-04_13h43.57.663,Serial_Dependence_U,2023.2.3,Win32,89.92805755393564,,,,,,765.306,359,3,765.306,359,,,,768.66,769.1519999999999,768.146,768.659,766.309,768.146,769.1519999999999,769.6519999999999,769.6519999999999,770.922,1120,770.922,5,770.923,3,8,98,5,1,0.8,0.7,Time
,,199724,001,男,23,2025-06-04_13h43.57.663,Serial_Dependence_U,2023.2.3,Win32,89.92805755393564,,,,,,770.923,222,3,770.923,222,,,,775.12,775.6179999999999,774.598,775.12,771.931,774.598,775.6179999999999,776.119,776.119,777.837,1455,777.837,2,777.837,3,9,99,24,1,1.6,0.3,Time
,,199724,001,男,23,2025-06-04_13h43.57.663,Serial_Dependence_U,2023.2.3,Win32,89.92805755393564,,,,,,777.837,3,3,777.837,3,,,,781.42,781.919,780.909,781.42,778.835,780.909,781.919,782.418,782.418,783.7189999999999,1035,783.7189999999999,3,783.72,3,10,100,1,1,1,0.3,Time
,,199724,001,男,23,2025-06-04_13h43.57.663,Serial_Dependence_U,2023.2.3,Win32,89.92805755393564,,,,,,783.72,131,3,783.72,131,,,,787.098,787.597,786.587,787.098,784.7189999999999,786.587,787.597,788.096,788.096,789.5749999999999,1359,789.5749999999999,5,789.5749999999999,3,11,101,10,1,0.8,0.3,Time
,,199724,001,男,23,2025-06-04_13h43.57.663,Serial_Dependence_U,2023.2.3,Win32,89.92805755393564,,,,,,789.576,138,3,789.576,138,,,,792.947,793.441,792.435,792.946,790.5749999999999,792.435,793.441,793.941,793.941,795.553,1296,795.554,5,795.556,3,12,102,20,1,0.8,0.3,Time
,,199724,001,男,23,2025-06-04_13h43.57.663,Serial_Dependence_U,2023.2.3,Win32,89.92805755393564,,,,,,795.556,158,3,795.556,158,,,,799.312,799.807,798.798,799.312,796.558,798.798,799.807,800.308,800.308,801.887,1302,801.887,4,801.888,3,13,103,7,1,1.2,0.7,Time
,,199724,001,男,23,2025-06-04_13h43.57.663,Serial_Dependence_U,2023.2.3,Win32,89.92805755393564,,,,,,801.888,94,3,801.888,94,,,,805.443,805.941,804.924,805.443,802.887,804.924,805.941,806.441,806.441,808.146,1409,808.1469999999999,5,808.1469999999999,3,14,104,26,1,1,0.7,Time
,,199724,001,男,23,2025-06-04_13h43.57.663,Serial_Dependence_U,2023.2.3,Win32,89.92805755393564,,,,,,808.1469999999999,156,3,808.1469999999999,156,,,,811.72,812.2189999999999,811.211,811.72,809.144,811.211,812.2189999999999,812.718,812.718,814.689,1680,814.689,5,814.6899999999999,3,15,105,21,1,1,0.3,Time
,,199724,001,男,23,2025-06-04_13h43.57.663,Serial_Dependence_U,2023.2.3,Win32,89.92805755393564,,,,,,814.6899999999999,108,3,814.6899999999999,108,,,,818.043,818.5409999999999,817.543,818.043,815.698,817.543,818.5409999999999,819.0409999999999,819.0409999999999,820.51,1237,820.51,5,820.511,3,16,106,25,1,0.8,0.7,Time
,,199724,001,男,23,2025-06-04_13h43.57.663,Serial_Dependence_U,2023.2.3,Win32,89.92805755393564,,,,,,820.511,203,3,820.511,203,,,,824.659,825.1519999999999,824.154,824.659,821.508,824.153,825.1519999999999,825.6519999999999,825.6519999999999,827.43,1422,827.43,2,827.432,3,17,107,9,1,1.6,0.7,Time
,,199724,001,男,23,2025-06-04_13h43.57.663,Serial_Dependence_U,2023.2.3,Win32,89.92805755393564,,,,,,827.434,242,3,827.434,242,,,,831.61,832.108,831.109,831.61,828.435,831.109,832.108,832.608,832.608,834.5,1570,834.5,3,834.501,3,18,108,4,1,1.6,0.3,Time
,,199724,001,男,23,2025-06-04_13h43.57.663,Serial_Dependence_U,2023.2.3,Win32,89.92805755393564,,,,,,834.501,359,3,834.501,359,,,,838.287,838.785,837.7669999999999,838.287,835.506,837.766,838.785,839.286,839.286,841.024,1440,841.024,4,841.024,3,19,109,2,1,1.2,0.3,Time
,,199724,001,男,23,2025-06-04_13h43.57.663,Serial_Dependence_U,2023.2.3,Win32,89.92805755393564,,,,,,841.024,99,3,841.025,99,,,,844.768,845.263,844.258,844.768,842.019,844.257,845.263,845.764,845.764,847.584,1515,847.584,4,847.584,3,20,110,17,1,1.2,0.7,Time
,,199724,001,男,23,2025-06-04_13h43.57.663,Serial_Dependence_U,2023.2.3,Win32,89.92805755393564,,,,,,847.585,124,3,847.585,124,,,,851.7429999999999,852.241,851.232,851.7429999999999,848.587,851.232,852.241,852.741,852.741,854.557,1566,854.557,3,854.558,3,21,111,19,1,1.6,0.7,Time
,,199724,001,男,23,2025-06-04_13h43.57.663,Serial_Dependence_U,2023.2.3,Win32,89.92805755393564,,,,,,854.558,170,3,854.558,170,,,,858.526,859.018,858.02,858.526,855.554,858.02,859.018,859.519,859.519,861.483,1697,861.483,4,861.483,3,22,112,23,1,1.4,0.3,Time
,,199724,001,男,23,2025-06-04_13h43.57.663,Serial_Dependence_U,2023.2.3,Win32,89.92805755393564,,,,,,861.484,41,3,861.484,41,,,,865.032,865.53,864.531,865.032,862.4979999999999,864.531,865.53,866.03,866.03,867.7669999999999,1464,867.7669999999999,5,867.768,3,23,113,6,1,1,0.7,Time
,,199724,001,男,23,2025-06-04_13h43.57.663,Serial_Dependence_U,2023.2.3,Win32,89.92805755393564,,,,,,867.768,27,3,867.768,27,,,,871.713,872.207,871.198,871.713,868.764,871.197,872.207,872.707,872.707,874.617,1601,874.617,4,874.6179999999999,3,24,114,18,1,1.4,0.7,Time
,,199724,001,男,23,2025-06-04_13h43.57.663,Serial_Dependence_U,2023.2.3,Win32,89.92805755393564,,,,,,874.619,141,3,874.619,141,,,,878.598,879.097,878.087,878.598,875.62,878.087,879.097,879.597,879.597,881.382,1568,881.382,4,881.382,3,25,115,13,1,1.4,0.3,Time
,,199724,001,男,23,2025-06-04_13h43.57.663,Serial_Dependence_U,2023.2.3,Win32,89.92805755393564,,,,,,881.382,346,3,881.382,346,,,,885.1759999999999,885.674,884.653,885.1759999999999,882.3919999999999,884.6519999999999,885.674,886.174,886.174,888.21,1593,888.21,5,888.211,3,26,116,12,1,1.2,0.3,Time
,,199724,001,男,23,2025-06-04_13h43.57.663,Serial_Dependence_U,2023.2.3,Win32,89.92805755393564,,,,,,888.211,166,3,888.211,166,,,,892.198,892.697,891.688,892.197,889.209,891.688,892.697,893.197,893.197,894.9449999999999,1398,894.9449999999999,3,894.946,3,27,117,3,1,1.4,0.3,Time
,,199724,001,男,23,2025-06-04_13h43.57.663,Serial_Dependence_U,2023.2.3,Win32,89.92805755393564,,,,,,894.947,236,3,894.947,236,,,,899.121,899.619,898.62,899.121,895.959,898.62,899.619,900.119,900.119,901.987,1547,901.987,3,901.9879999999999,3,28,118,14,1,1.6,0.3,Time
,,199724,001,男,23,2025-06-04_13h43.57.663,Serial_Dependence_U,2023.2.3,Win32,89.92805755393564,,,,,,901.989,322,3,901.989,322,,,,905.7429999999999,906.241,905.2429999999999,905.7429999999999,902.996,905.2429999999999,906.241,906.741,906.741,908.327,1265,908.327,4,908.327,3,29,119,27,1,1.2,0.7,Time
,,199724,001,男,23,2025-06-04_13h43.57.663,Serial_Dependence_U,2023.2.3,Win32,89.92805755393564,,,,,,908.327,185,4,922.23,185,s,13.885999999999967,,925.621,926.119,925.097,925.621,923.232,925.097,926.119,926.619,926.62,928.303,1405,928.303,5,928.304,4,0,120,20,1,0.8,0.3,Time
,,199724,001,男,23,2025-06-04_13h43.57.663,Serial_Dependence_U,2023.2.3,Win32,89.92805755393564,,,,,,928.305,343,4,928.306,343,,,,931.876,932.375,931.358,931.876,929.321,931.358,932.375,932.875,932.875,934.337,1186,934.337,4,934.337,4,1,121,26,1,1,0.7,Time
,,199724,001,男,23,2025-06-04_13h43.57.663,Serial_Dependence_U,2023.2.3,Win32,89.92805755393564,,,,,,934.338,239,4,934.338,239,,,,937.688,938.185,937.177,937.687,935.331,937.177,938.185,938.686,938.686,940.168,1170,940.168,5,940.168,4,2,122,15,1,0.8,0.7,Time
,,199724,001,男,23,2025-06-04_13h43.57.663,Serial_Dependence_U,2023.2.3,Win32,89.92805755393564,,,,,,940.168,136,4,940.169,136,,,,944.112,944.609,943.608,944.112,941.164,943.608,944.609,945.108,945.108,946.914,1307,946.914,2,946.915,4,3,123,18,1,1.4,0.7,Time
,,199724,001,男,23,2025-06-04_13h43.57.663,Serial_Dependence_U,2023.2.3,Win32,89.92805755393564,,,,,,946.915,313,4,946.915,313,,,,950.298,950.797,949.787,950.298,947.908,949.787,950.797,951.297,951.297,953.054,1359,953.054,5,953.054,4,4,124,10,1,0.8,0.3,Time
,,199724,001,男,23,2025-06-04_13h43.57.663,Serial_Dependence_U,2023.2.3,Win32,89.92805755393564,,,,,,953.054,347,4,953.054,347,,,,956.636,957.13,956.136,956.636,954.066,956.136,957.13,957.63,957.63,959.36,1094,959.36,4,959.361,4,5,125,11,1,1,0.3,Time
,,199724,001,男,23,2025-06-04_13h43.57.663,Serial_Dependence_U,2023.2.3,Win32,89.92805755393564,,,,,,959.362,235,4,959.362,235,,,,963.143,963.641,962.643,963.143,960.365,962.643,963.641,964.1419999999999,964.1419999999999,966.187,1688,966.187,5,966.188,4,6,126,2,1,1.2,0.3,Time
,,199724,001,男,23,2025-06-04_13h43.57.663,Serial_Dependence_U,2023.2.3,Win32,89.92805755393564,,,,,,966.188,68,4,966.188,68,,,,969.9209999999999,970.419,969.4209999999999,969.9209999999999,967.187,969.4209999999999,970.419,970.919,970.919,972.648,1422,972.648,4,972.649,4,7,127,7,1,1.2,0.7,Time
,,199724,001,男,23,2025-06-04_13h43.57.663,Serial_Dependence_U,2023.2.3,Win32,89.92805755393564,,,,,,972.649,8,4,972.649,8,,,,976.225,976.7189999999999,975.711,976.225,973.6469999999999,975.711,976.7189999999999,977.2189999999999,977.2189999999999,978.677,1173,978.678,4,978.678,4,8,128,1,1,1,0.3,Time
,,199724,001,男,23,2025-06-04_13h43.57.663,Serial_Dependence_U,2023.2.3,Win32,89.92805755393564,,,,,,978.679,49,4,978.679,49,,,,982.432,982.93,981.9209999999999,982.432,979.691,981.9209999999999,982.93,983.43,983.43,984.9340000000001,1241,984.9340000000001,3,984.9340000000001,4,9,129,27,1,1.2,0.7,Time
,,199724,001,男,23,2025-06-04_13h43.57.663,Serial_Dependence_U,2023.2.3,Win32,89.92805755393564,,,,,,984.9350000000001,51,4,984.9350000000001,51,,,,989.1190000000001,989.6190000000001,988.6100000000001,989.1190000000001,985.9319999999999,988.6100000000001,989.6190000000001,990.1190000000001,990.1190000000001,991.643,1324,991.643,2,991.643,4,10,130,14,1,1.6,0.3,Time
,,199724,001,男,23,2025-06-04_13h43.57.663,Serial_Dependence_U,2023.2.3,Win32,89.92805755393564,,,,,,991.644,193,4,991.6450000000002,193,,,,995.7990000000002,996.297,995.2800000000002,995.7990000000002,992.642,995.2800000000002,996.297,996.797,996.797,998.8100000000002,1667,998.8100000000002,3,998.8100000000002,4,11,131,9,1,1.6,0.7,Time
,,199724,001,男,23,2025-06-04_13h43.57.663,Serial_Dependence_U,2023.2.3,Win32,89.92805755393564,,,,,,998.8110000000001,345,4,998.8110000000001,345,,,,1002.7760000000001,1003.2750000000001,1002.2760000000001,1002.7760000000001,999.8100000000002,1002.2760000000001,1003.2750000000001,1003.7750000000001,1003.7750000000001,1005.3980000000001,1374,1005.3980000000001,3,1005.3990000000001,4,12,132,23,1,1.4,0.3,Time
,,199724,001,男,23,2025-06-04_13h43.57.663,Serial_Dependence_U,2023.2.3,Win32,89.92805755393564,,,,,,1005.4000000000001,295,4,1005.4000000000001,295,,,,1009.142,1009.6410000000001,1008.6320000000001,1009.142,1006.3970000000002,1008.6320000000001,1009.6410000000001,1010.142,1010.142,1011.6100000000001,1205,1011.6100000000001,3,1011.6100000000001,4,13,133,17,1,1.2,0.7,Time
,,199724,001,男,23,2025-06-04_13h43.57.663,Serial_Dependence_U,2023.2.3,Win32,89.92805755393564,,,,,,1011.6110000000001,172,4,1011.6110000000001,172,,,,1015.7920000000001,1016.2860000000001,1015.2820000000002,1015.7920000000001,1012.6100000000001,1015.2820000000002,1016.2860000000001,1016.7860000000001,1016.7860000000001,1018.5690000000002,1519,1018.5690000000002,2,1018.5700000000002,4,14,134,24,1,1.6,0.3,Time
,,199724,001,男,23,2025-06-04_13h43.57.663,Serial_Dependence_U,2023.2.3,Win32,89.92805755393564,,,,,,1018.5700000000002,302,4,1018.5700000000002,302,,,,1022.3320000000001,1022.8310000000001,1021.8300000000002,1022.3320000000001,1019.5690000000002,1021.8300000000002,1022.8310000000001,1023.3310000000001,1023.3310000000001,1025.0210000000002,1443,1025.0210000000002,4,1025.0220000000002,4,15,135,22,1,1.2,0.3,Time
,,199724,001,男,23,2025-06-04_13h43.57.663,Serial_Dependence_U,2023.2.3,Win32,89.92805755393564,,,,,,1025.0230000000001,352,4,1025.0230000000001,352,,,,1028.798,1029.297,1028.294,1028.798,1026.0320000000002,1028.2930000000001,1029.297,1029.797,1029.797,1031.431,1391,1031.431,4,1031.432,4,16,136,12,1,1.2,0.3,Time
,,199724,001,男,23,2025-06-04_13h43.57.663,Serial_Dependence_U,2023.2.3,Win32,89.92805755393564,,,,,,1031.432,295,4,1031.432,295,,,,1035.409,1035.9080000000001,1034.9,1035.409,1032.432,1034.9,1035.9080000000001,1036.4080000000001,1036.4080000000001,1038.2150000000001,1518,1038.2150000000001,4,1038.2160000000001,4,17,137,13,1,1.4,0.3,Time
,,199724,001,男,23,2025-06-04_13h43.57.663,Serial_Dependence_U,2023.2.3,Win32,89.92805755393564,,,,,,1038.2160000000001,1,4,1038.2160000000001,1,,,,1041.602,1042.0970000000002,1041.0880000000002,1041.602,1039.2160000000001,1041.0880000000002,1042.0970000000002,1042.5970000000002,1042.5970000000002,1044.3410000000001,1483,1044.342,5,1044.343,4,18,138,0,1,0.8,0.3,Time
,,199724,001,男,23,2025-06-04_13h43.57.663,Serial_Dependence_U,2023.2.3,Win32,89.92805755393564,,,,,,1044.343,48,4,1044.343,48,,,,1048.509,1049.008,1047.999,1048.508,1045.354,1047.998,1049.008,1049.509,1049.509,1051.5810000000001,1734,1051.5810000000001,4,1051.582,4,19,139,19,1,1.6,0.7,Time
,,199724,001,男,23,2025-06-04_13h43.57.663,Serial_Dependence_U,2023.2.3,Win32,89.92805755393564,,,,,,1051.582,62,4,1051.582,62,,,,1055.154,1055.653,1054.632,1055.154,1052.585,1054.632,1055.653,1056.153,1056.153,1058.0430000000001,1606,1058.0430000000001,5,1058.044,4,20,140,6,1,1,0.7,Time
,,199724,001,男,23,2025-06-04_13h43.57.663,Serial_Dependence_U,2023.2.3,Win32,89.92805755393564,,,,,,1058.045,355,4,1058.046,355,,,,1062.0020000000002,1062.497,1061.486,1062.0020000000002,1059.054,1061.486,1062.497,1062.997,1062.997,1064.921,1634,1064.921,4,1064.922,4,21,141,28,1,1.4,0.7,Time
,,199724,001,男,23,2025-06-04_13h43.57.663,Serial_Dependence_U,2023.2.3,Win32,89.92805755393564,,,,,,1064.923,96,4,1064.923,96,,,,1069.0880000000002,1069.586,1068.587,1069.0880000000002,1065.921,1068.587,1069.586,1070.086,1070.086,1072.075,1682,1072.075,4,1072.075,4,22,142,4,1,1.6,0.3,Time
,,199724,001,男,23,2025-06-04_13h43.57.663,Serial_Dependence_U,2023.2.3,Win32,89.92805755393564,,,,,,1072.076,17,4,1072.076,17,,,,1075.4540000000002,1075.9530000000002,1074.9350000000002,1075.4540000000002,1073.0880000000002,1074.9340000000002,1075.9530000000002,1076.4530000000002,1076.4530000000002,1078.0310000000002,1278,1078.0310000000002,5,1078.0320000000002,4,23,143,25,1,0.8,0.7,Time
,,199724,001,男,23,2025-06-04_13h43.57.663,Serial_Dependence_U,2023.2.3,Win32,89.92805755393564,,,,,,1078.0320000000002,81,4,1078.0320000000002,81,,,,1081.381,1081.875,1080.866,1081.381,1079.0320000000002,1080.866,1081.875,1082.375,1082.375,1084.0600000000002,1398,1084.0600000000002,5,1084.0600000000002,4,24,144,5,1,0.8,0.7,Time
,,199724,001,男,23,2025-06-04_13h43.57.663,Serial_Dependence_U,2023.2.3,Win32,89.92805755393564,,,,,,1084.0610000000001,128,4,1084.0610000000001,128,,,,1088.1870000000001,1088.6860000000001,1087.6870000000001,1088.1870000000001,1085.054,1087.6870000000001,1088.6860000000001,1089.1860000000001,1089.1870000000001,1091.287,1650,1091.287,3,1091.289,4,25,145,29,1,1.6,0.7,Time
,,199724,001,男,23,2025-06-04_13h43.57.663,Serial_Dependence_U,2023.2.3,Win32,89.92805755393564,,,,,,1091.289,115,4,1091.289,115,,,,1095.266,1095.7640000000001,1094.7640000000001,1095.265,1092.2990000000002,1094.7640000000001,1095.7640000000001,1096.2640000000001,1096.2640000000001,1097.979,1453,1097.979,3,1097.979,4,26,146,3,1,1.4,0.3,Time
,,199724,001,男,23,2025-06-04_13h43.57.663,Serial_Dependence_U,2023.2.3,Win32,89.92805755393564,,,,,,1097.979,97,4,1097.979,97,,,,1101.5230000000001,1102.019,1101.0220000000002,1101.5230000000001,1098.981,1101.0220000000002,1102.019,1102.519,1102.519,1104.365,1555,1104.366,5,1104.366,4,27,147,16,1,1,0.7,Time
,,199724,001,男,23,2025-06-04_13h43.57.663,Serial_Dependence_U,2023.2.3,Win32,89.92805755393564,,,,,,1104.366,124,4,1104.3670000000002,124,,,,1108.3220000000001,1108.8200000000002,1107.8100000000002,1108.3220000000001,1105.3770000000002,1107.8100000000002,1108.8200000000002,1109.3190000000002,1109.3190000000002,1111.0980000000002,1468,1111.0980000000002,3,1111.0990000000002,4,28,148,8,1,1.4,0.7,Time
,,199724,001,男,23,2025-06-04_13h43.57.663,Serial_Dependence_U,2023.2.3,Win32,89.92805755393564,,,,,,1111.0990000000002,90,4,1111.0990000000002,90,,,,1114.7030000000002,1115.1970000000001,1114.1870000000001,1114.7030000000002,1112.121,1114.1860000000001,1115.1970000000001,1115.698,1115.698,1117.375,1346,1117.375,5,1117.3760000000002,4,29,149,21,1,1,0.3,Time
,,199724,001,男,23,2025-06-04_13h43.57.663,Serial_Dependence_U,2023.2.3,Win32,89.92805755393564,,,,,,1117.3760000000002,329,5,1169.1200000000001,329,s,51.72199999999998,,1172.8760000000002,1173.375,1172.356,1172.8760000000002,1170.1200000000001,1172.356,1173.375,1173.875,1173.875,1175.528,1391,1175.528,4,1175.5300000000002,5,0,150,17,1,1.2,0.7,Time
,,199724,001,男,23,2025-06-04_13h43.57.663,Serial_Dependence_U,2023.2.3,Win32,89.92805755393564,,,,,,1175.5310000000002,227,5,1175.5330000000001,227,,,,1179.315,1179.8090000000002,1178.8010000000002,1179.315,1176.5320000000002,1178.8010000000002,1179.8090000000002,1180.308,1180.308,1182.0710000000001,1487,1182.0710000000001,4,1182.0710000000001,5,1,151,12,1,1.2,0.3,Time
,,199724,001,男,23,2025-06-04_13h43.57.663,Serial_Dependence_U,2023.2.3,Win32,89.92805755393564,,,,,,1182.0710000000001,189,5,1182.0710000000001,189,,,,1185.826,1186.3200000000002,1185.326,1185.826,1183.065,1185.326,1186.3200000000002,1186.8200000000002,1186.8200000000002,1188.5700000000002,1454,1188.5700000000002,4,1188.5700000000002,5,2,152,22,1,1.2,0.3,Time
,,199724,001,男,23,2025-06-04_13h43.57.663,Serial_Dependence_U,2023.2.3,Win32,89.92805755393564,,,,,,1188.5710000000001,351,5,1188.5710000000001,351,,,,1191.9440000000002,1192.442,1191.433,1191.9440000000002,1189.566,1191.433,1192.442,1192.942,1192.942,1194.5420000000001,1339,1194.5420000000001,5,1194.5430000000001,5,3,153,0,1,0.8,0.3,Time
,,199724,001,男,23,2025-06-04_13h43.57.663,Serial_Dependence_U,2023.2.3,Win32,89.92805755393564,,,,,,1194.5430000000001,52,5,1194.5430000000001,52,,,,1197.909,1198.409,1197.409,1197.909,1195.5430000000001,1197.409,1198.409,1198.909,1198.909,1200.5500000000002,1362,1200.5500000000002,5,1200.5510000000002,5,4,154,10,1,0.8,0.3,Time
,,199724,001,男,23,2025-06-04_13h43.57.663,Serial_Dependence_U,2023.2.3,Win32,89.92805755393564,,,,,,1200.5510000000002,281,5,1200.5510000000002,281,,,,1204.141,1204.642,1203.6270000000002,1204.141,1201.555,1203.6270000000002,1204.642,1205.142,1205.142,1206.8880000000001,1403,1206.8880000000001,5,1206.8890000000001,5,5,155,11,1,1,0.3,Time
,,199724,001,男,23,2025-06-04_13h43.57.663,Serial_Dependence_U,2023.2.3,Win32,89.92805755393564,,,,,,1206.8890000000001,70,5,1206.89,70,,,,1211.077,1211.575,1210.566,1211.077,1207.9,1210.566,1211.575,1212.075,1212.075,1213.585,1220,1213.585,2,1213.585,5,6,156,4,1,1.6,0.3,Time
,,199724,001,男,23,2025-06-04_13h43.57.663,Serial_Dependence_U,2023.2.3,Win32,89.92805755393564,,,,,,1213.585,12,5,1213.585,12,,,,1217.576,1218.075,1217.066,1217.576,1214.5990000000002,1217.066,1218.075,1218.575,1218.575,1220.5880000000002,1677,1220.5880000000002,4,1220.5890000000002,5,7,157,3,1,1.4,0.3,Time
,,199724,001,男,23,2025-06-04_13h43.57.663,Serial_Dependence_U,2023.2.3,Win32,89.92805755393564,,,,,,1220.5900000000001,324,5,1220.5900000000001,324,,,,1224.566,1225.065,1224.054,1224.566,1221.587,1224.054,1225.065,1225.565,1225.565,1227.315,1545,1227.315,4,1227.316,5,8,158,23,1,1.4,0.3,Time
,,199724,001,男,23,2025-06-04_13h43.57.663,Serial_Dependence_U,2023.2.3,Win32,89.92805755393564,,,,,,1227.316,166,5,1227.316,166,,,,1230.844,1231.342,1230.343,1230.844,1228.3090000000002,1230.343,1231.342,1231.842,1231.842,1233.653,1492,1233.653,5,1233.654,5,9,159,26,1,1,0.7,Time
,,199724,001,男,23,2025-06-04_13h43.57.663,Serial_Dependence_U,2023.2.3,Win32,89.92805755393564,,,,,,1233.6550000000002,350,5,1233.6550000000002,350,,,,1237.815,1238.308,1237.3020000000001,1237.815,1234.659,1237.3020000000001,1238.308,1238.8090000000002,1238.8090000000002,1240.5980000000002,1488,1240.5980000000002,2,1240.5990000000002,5,10,160,9,1,1.6,0.7,Time
,,199724,001,男,23,2025-06-04_13h43.57.663,Serial_Dependence_U,2023.2.3,Win32,89.92805755393564,,,,,,1240.5990000000002,100,5,1240.5990000000002,100,,,,1243.932,1244.431,1243.432,1243.932,1241.5990000000002,1243.432,1244.431,1244.931,1244.931,1246.545,1349,1246.545,5,1246.545,5,11,161,25,1,0.8,0.7,Time
,,199724,001,男,23,2025-06-04_13h43.57.663,Serial_Dependence_U,2023.2.3,Win32,89.92805755393564,,,,,,1246.546,84,5,1246.546,84,,,,1250.1100000000001,1250.6080000000002,1249.605,1250.1100000000001,1247.545,1249.605,1250.6080000000002,1251.1090000000002,1251.1090000000002,1252.66,1315,1252.661,5,1252.661,5,12,162,21,1,1,0.3,Time
,,199724,001,男,23,2025-06-04_13h43.57.663,Serial_Dependence_U,2023.2.3,Win32,89.92805755393564,,,,,,1252.662,301,5,1252.662,301,,,,1256.237,1256.7320000000002,1255.7220000000002,1256.237,1253.669,1255.721,1256.7320000000002,1257.231,1257.231,1258.977,1439,1258.977,5,1258.978,5,13,163,6,1,1,0.7,Time
,,199724,001,男,23,2025-06-04_13h43.57.663,Serial_Dependence_U,2023.2.3,Win32,89.92805755393564,,,,,,1258.979,84,5,1258.979,84,,,,1262.7250000000001,1263.22,1262.221,1262.7240000000002,1259.986,1262.221,1263.22,1263.72,1263.72,1265.6550000000002,1595,1265.6550000000002,5,1265.6550000000002,5,14,164,27,1,1.2,0.7,Time
,,199724,001,男,23,2025-06-04_13h43.57.663,Serial_Dependence_U,2023.2.3,Win32,89.92805755393564,,,,,,1265.6560000000002,188,5,1265.6560000000002,188,,,,1268.987,1269.487,1268.487,1268.987,1266.6550000000002,1268.487,1269.487,1269.987,1269.987,1271.4050000000002,1166,1271.4060000000002,5,1271.4060000000002,5,15,165,5,1,0.8,0.7,Time
,,199724,001,男,23,2025-06-04_13h43.57.663,Serial_Dependence_U,2023.2.3,Win32,89.92805755393564,,,,,,1271.4060000000002,17,5,1271.4060000000002,17,,,,1274.999,1275.498,1274.481,1274.999,1272.411,1274.481,1275.498,1275.998,1275.998,1277.634,1320,1277.634,5,1277.635,5,16,166,1,1,1,0.3,Time
,,199724,001,男,23,2025-06-04_13h43.57.663,Serial_Dependence_U,2023.2.3,Win32,89.92805755393564,,,,,,1277.6360000000002,208,5,1277.6360000000002,208,,,,1280.977,1281.476,1280.476,1280.977,1278.644,1280.476,1281.476,1281.9750000000001,1281.976,1283.672,1466,1283.673,5,1283.673,5,17,167,15,1,0.8,0.7,Time
,,199724,001,男,23,2025-06-04_13h43.57.663,Serial_Dependence_U,2023.2.3,Win32,89.92805755393564,,,,,,1283.673,79,5,1283.673,79,,,,1287.611,1288.1090000000002,1287.1100000000001,1287.611,1284.6660000000002,1287.1100000000001,1288.1090000000002,1288.6090000000002,1288.6090000000002,1290.066,1254,1290.066,2,1290.066,5,18,168,28,1,1.4,0.7,Time
,,199724,001,男,23,2025-06-04_13h43.57.663,Serial_Dependence_U,2023.2.3,Win32,89.92805755393564,,,,,,1290.067,140,5,1290.067,140,,,,1294.2320000000002,1294.731,1293.728,1294.2320000000002,1291.066,1293.728,1294.731,1295.231,1295.231,1296.755,1345,1296.755,2,1296.755,5,19,169,24,1,1.6,0.3,Time
,,199724,001,男,23,2025-06-04_13h43.57.663,Serial_Dependence_U,2023.2.3,Win32,89.92805755393564,,,,,,1296.756,33,5,1296.756,33,,,,1300.2990000000002,1300.798,1299.798,1300.2990000000002,1297.755,1299.798,1300.798,1301.298,1301.298,1302.635,1075,1302.635,4,1302.6360000000002,5,20,170,16,1,1,0.7,Time
,,199724,001,男,23,2025-06-04_13h43.57.663,Serial_Dependence_U,2023.2.3,Win32,89.92805755393564,,,,,,1302.6360000000002,226,5,1302.6360000000002,226,,,,1306.7920000000001,1307.287,1306.277,1306.7920000000001,1303.644,1306.277,1307.287,1307.787,1307.787,1309.432,1326,1309.432,2,1309.433,5,21,171,19,1,1.6,0.7,Time
,,199724,001,男,23,2025-06-04_13h43.57.663,Serial_Dependence_U,2023.2.3,Win32,89.92805755393564,,,,,,1309.4340000000002,307,5,1309.4350000000002,307,,,,1313.3760000000002,1313.8760000000002,1312.866,1313.3760000000002,1310.433,1312.866,1313.8760000000002,1314.375,1314.3760000000002,1316.104,1461,1316.104,3,1316.105,5,22,172,8,1,1.4,0.7,Time
,,199724,001,男,23,2025-06-04_13h43.57.663,Serial_Dependence_U,2023.2.3,Win32,89.92805755393564,,,,,,1316.105,102,5,1316.105,102,,,,1320.237,1320.731,1319.737,1320.237,1317.0980000000002,1319.737,1320.731,1321.231,1321.231,1322.767,1263,1322.767,2,1322.768,5,23,173,29,1,1.6,0.7,Time
,,199724,001,男,23,2025-06-04_13h43.57.663,Serial_Dependence_U,2023.2.3,Win32,89.92805755393564,,,,,,1322.768,317,5,1322.768,317,,,,1326.721,1327.22,1326.2130000000002,1326.721,1323.766,1326.2130000000002,1327.22,1327.72,1327.72,1329.3990000000001,1334,1329.3990000000001,3,1329.3990000000001,5,24,174,18,1,1.4,0.7,Time
,,199724,001,男,23,2025-06-04_13h43.57.663,Serial_Dependence_U,2023.2.3,Win32,89.92805755393564,,,,,,1329.4,220,5,1329.4,220,,,,1333.1760000000002,1333.6750000000002,1332.6670000000001,1333.1760000000002,1330.402,1332.6670000000001,1333.6750000000002,1334.1750000000002,1334.1750000000002,1336.0490000000002,1579,1336.0490000000002,5,1336.0490000000002,5,25,175,2,1,1.2,0.3,Time
,,199724,001,男,23,2025-06-04_13h43.57.663,Serial_Dependence_U,2023.2.3,Win32,89.92805755393564,,,,,,1336.0490000000002,109,5,1336.0490000000002,109,,,,1339.779,1340.276,1339.275,1339.778,1337.0430000000001,1339.275,1340.276,1340.776,1340.776,1342.5330000000001,1456,1342.5330000000001,4,1342.535,5,26,176,7,1,1.2,0.7,Time
,,199724,001,男,23,2025-06-04_13h43.57.663,Serial_Dependence_U,2023.2.3,Win32,89.92805755393564,,,,,,1342.536,116,5,1342.536,116,,,,1346.5110000000002,1347.009,1346.005,1346.5110000000002,1343.544,1346.005,1347.009,1347.51,1347.51,1349.039,1344,1349.039,3,1349.039,5,27,177,13,1,1.4,0.3,Time
,,199724,001,男,23,2025-06-04_13h43.57.663,Serial_Dependence_U,2023.2.3,Win32,89.92805755393564,,,,,,1349.0400000000002,273,5,1349.0400000000002,273,,,,1353.211,1353.709,1352.7030000000002,1353.211,1350.0330000000001,1352.7030000000002,1353.709,1354.209,1354.209,1356.055,1534,1356.055,3,1356.055,5,28,178,14,1,1.6,0.3,Time
,,199724,001,男,23,2025-06-04_13h43.57.663,Serial_Dependence_U,2023.2.3,Win32,89.92805755393564,,,,,,1356.056,159,5,1356.056,159,,,,1359.4250000000002,1359.92,1358.921,1359.4250000000002,1357.0600000000002,1358.921,1359.92,1360.42,1360.42,1362.1650000000002,1456,1362.1650000000002,5,1362.1660000000002,5,29,179,20,1,0.8,0.3,Time
,,199724,001,男,23,2025-06-04_13h43.57.663,Serial_Dependence_U,2023.2.3,Win32,89.92805755393564,,,,,,1362.1680000000001,194,6,1394.577,194,s,32.39200000000005,,1398.7540000000001,1399.2530000000002,1398.2510000000002,1398.7540000000001,1395.5890000000002,1398.2510000000002,1399.2540000000001,1399.7540000000001,1399.7540000000001,1401.623,1518,1401.623,2,1401.623,6,0,180,4,1,1.6,0.3,Time
,,199724,001,男,23,2025-06-04_13h43.57.663,Serial_Dependence_U,2023.2.3,Win32,89.92805755393564,,,,,,1401.624,183,6,1401.6260000000002,183,,,,1405.01,1405.509,1404.4920000000002,1405.01,1402.622,1404.4920000000002,1405.509,1406.009,1406.009,1407.737,1444,1407.737,5,1407.737,6,1,181,0,1,0.8,0.3,Time
,,199724,001,男,23,2025-06-04_13h43.57.663,Serial_Dependence_U,2023.2.3,Win32,89.92805755393564,,,,,,1407.738,192,6,1407.738,192,,,,1411.721,1412.221,1411.21,1411.721,1408.7440000000001,1411.21,1412.221,1412.721,1412.721,1414.539,1584,1414.539,4,1414.5400000000002,6,2,182,3,1,1.4,0.3,Time
,,199724,001,男,23,2025-06-04_13h43.57.663,Serial_Dependence_U,2023.2.3,Win32,89.92805755393564,,,,,,1414.5400000000002,151,6,1414.5400000000002,151,,,,1418.5220000000002,1419.0200000000002,1417.998,1418.5220000000002,1415.5330000000001,1417.998,1419.0200000000002,1419.5210000000002,1419.5210000000002,1421.4920000000002,1722,1421.4920000000002,4,1421.4930000000002,6,3,183,13,1,1.4,0.3,Time
,,199724,001,男,23,2025-06-04_13h43.57.663,Serial_Dependence_U,2023.2.3,Win32,89.92805755393564,,,,,,1421.4930000000002,138,6,1421.4930000000002,138,,,,1425.2440000000001,1425.7420000000002,1424.738,1425.2440000000001,1422.4930000000002,1424.738,1425.7420000000002,1426.2430000000002,1426.2430000000002,1427.9940000000001,1488,1427.9940000000001,4,1427.9940000000001,6,4,184,7,1,1.2,0.7,Time
,,199724,001,男,23,2025-06-04_13h43.57.663,Serial_Dependence_U,2023.2.3,Win32,89.92805755393564,,,,,,1427.9940000000001,310,6,1427.9940000000001,310,,,,1431.988,1432.487,1431.478,1431.988,1428.999,1431.478,1432.487,1432.987,1432.987,1434.747,1454,1434.747,3,1434.748,6,5,185,23,1,1.4,0.3,Time
,,199724,001,男,23,2025-06-04_13h43.57.663,Serial_Dependence_U,2023.2.3,Win32,89.92805755393564,,,,,,1434.748,312,6,1434.748,312,,,,1438.881,1439.3760000000002,1438.381,1438.881,1435.7440000000001,1438.381,1439.3760000000002,1439.8760000000002,1439.8760000000002,1441.6280000000002,1499,1441.6280000000002,2,1441.6290000000001,6,6,186,9,1,1.6,0.7,Time
,,199724,001,男,23,2025-06-04_13h43.57.663,Serial_Dependence_U,2023.2.3,Win32,89.92805755393564,,,,,,1441.63,53,6,1441.63,53,,,,1445.0220000000002,1445.5210000000002,1444.5,1445.0220000000002,1442.632,1444.5,1445.5210000000002,1446.0210000000002,1446.0210000000002,1447.9940000000001,1737,1447.9940000000001,5,1447.9940000000001,6,7,187,20,1,0.8,0.3,Time
,,199724,001,男,23,2025-06-04_13h43.57.663,Serial_Dependence_U,2023.2.3,Win32,89.92805755393564,,,,,,1447.9940000000001,4,6,1447.9940000000001,4,,,,1452.1450000000002,1452.643,1451.6260000000002,1452.1450000000002,1448.988,1451.6260000000002,1452.643,1453.142,1453.143,1455.1560000000002,1745,1455.1560000000002,4,1455.1560000000002,6,8,188,29,1,1.6,0.7,Time
,,199724,001,男,23,2025-06-04_13h43.57.663,Serial_Dependence_U,2023.2.3,Win32,89.92805755393564,,,,,,1455.1560000000002,271,6,1455.1560000000002,271,,,,1458.9,1459.3980000000001,1458.3880000000001,1458.9,1456.1550000000002,1458.3880000000001,1459.3980000000001,1459.8980000000001,1459.8980000000001,1461.577,1451,1461.577,4,1461.5780000000002,6,9,189,17,1,1.2,0.7,Time
,,199724,001,男,23,2025-06-04_13h43.57.663,Serial_Dependence_U,2023.2.3,Win32,89.92805755393564,,,,,,1461.5780000000002,219,6,1461.5780000000002,219,,,,1465.326,1465.8200000000002,1464.8100000000002,1465.326,1462.577,1464.8100000000002,1465.8200000000002,1466.3200000000002,1466.3200000000002,1467.8780000000002,1338,1467.8780000000002,4,1467.8790000000001,6,10,190,27,1,1.2,0.7,Time
,,199724,001,男,23,2025-06-04_13h43.57.663,Serial_Dependence_U,2023.2.3,Win32,89.92805755393564,,,,,,1467.8790000000001,350,6,1467.8790000000001,350,,,,1471.4720000000002,1471.9650000000001,1470.96,1471.4720000000002,1468.8890000000001,1470.96,1471.9650000000001,1472.4650000000001,1472.4650000000001,1474.342,1618,1474.342,5,1474.343,6,11,191,21,1,1,0.3,Time
,,199724,001,男,23,2025-06-04_13h43.57.663,Serial_Dependence_U,2023.2.3,Win32,89.92805755393564,,,,,,1474.343,267,6,1474.344,267,,,,1477.7330000000002,1478.2320000000002,1477.2160000000001,1477.7330000000002,1475.343,1477.2150000000001,1478.2320000000002,1478.7320000000002,1478.7320000000002,1480.595,1601,1480.595,5,1480.595,6,12,192,10,1,0.8,0.3,Time
,,199724,001,男,23,2025-06-04_13h43.57.663,Serial_Dependence_U,2023.2.3,Win32,89.92805755393564,,,,,,1480.595,114,6,1480.596,114,,,,1484.1550000000002,1484.654,1483.635,1484.1550000000002,1481.6000000000001,1483.635,1484.654,1485.154,1485.154,1486.6680000000001,1301,1486.6680000000001,5,1486.6680000000001,6,13,193,6,1,1,0.7,Time
,,199724,001,男,23,2025-06-04_13h43.57.663,Serial_Dependence_U,2023.2.3,Win32,89.92805755393564,,,,,,1486.669,68,6,1486.669,68,,,,1490.015,1490.51,1489.5,1490.015,1487.6660000000002,1489.5,1490.51,1491.01,1491.01,1492.5510000000002,1302,1492.5510000000002,5,1492.5510000000002,6,14,194,15,1,0.8,0.7,Time
,,199724,001,男,23,2025-06-04_13h43.57.663,Serial_Dependence_U,2023.2.3,Win32,89.92805755393564,,,,,,1492.5520000000001,300,6,1492.553,300,,,,1496.489,1496.987,1495.988,1496.489,1493.556,1495.988,1496.987,1497.487,1497.487,1499.337,1531,1499.337,4,1499.3380000000002,6,15,195,18,1,1.4,0.7,Time
,,199724,001,男,23,2025-06-04_13h43.57.663,Serial_Dependence_U,2023.2.3,Win32,89.92805755393564,,,,,,1499.3380000000002,157,6,1499.3390000000002,157,,,,1503.5,1503.998,1503,1503.5,1500.334,1503,1503.998,1504.498,1504.498,1506.413,1643,1506.413,3,1506.414,6,16,196,24,1,1.6,0.3,Time
,,199724,001,男,23,2025-06-04_13h43.57.663,Serial_Dependence_U,2023.2.3,Win32,89.92805755393564,,,,,,1506.414,62,6,1506.414,62,,,,1509.7440000000001,1510.2430000000002,1509.2430000000002,1509.7440000000001,1507.41,1509.2430000000002,1510.2430000000002,1510.7430000000002,1510.7430000000002,1512.4050000000002,1323,1512.4050000000002,5,1512.4060000000002,6,17,197,5,1,0.8,0.7,Time
,,199724,001,男,23,2025-06-04_13h43.57.663,Serial_Dependence_U,2023.2.3,Win32,89.92805755393564,,,,,,1512.4060000000002,54,6,1512.4060000000002,54,,,,1516.3670000000002,1516.865,1515.8470000000002,1516.3670000000002,1513.4,1515.8470000000002,1516.865,1517.366,1517.366,1519.2340000000002,1593,1519.2340000000002,4,1519.2340000000002,6,18,198,8,1,1.4,0.7,Time
,,199724,001,男,23,2025-06-04_13h43.57.663,Serial_Dependence_U,2023.2.3,Win32,89.92805755393564,,,,,,1519.2350000000001,22,6,1519.2350000000001,22,,,,1523.01,1523.51,1522.5,1523.01,1520.2320000000002,1522.5,1523.51,1524.01,1524.01,1525.8480000000002,1510,1525.8480000000002,4,1525.8490000000002,6,19,199,2,1,1.2,0.3,Time
,,199724,001,男,23,2025-06-04_13h43.57.663,Serial_Dependence_U,2023.2.3,Win32,89.92805755393564,,,,,,1525.8490000000002,334,6,1525.8490000000002,334,,,,1529.381,1529.8770000000002,1528.881,1529.381,1526.845,1528.881,1529.8770000000002,1530.3770000000002,1530.3770000000002,1532.027,1363,1532.027,5,1532.027,6,20,200,16,1,1,0.7,Time
,,199724,001,男,23,2025-06-04_13h43.57.663,Serial_Dependence_U,2023.2.3,Win32,89.92805755393564,,,,,,1532.028,229,6,1532.028,229,,,,1536.1670000000001,1536.6650000000002,1535.6560000000002,1536.1670000000001,1533.0210000000002,1535.6560000000002,1536.6650000000002,1537.1650000000002,1537.1650000000002,1539.039,1614,1539.039,3,1539.0400000000002,6,21,201,19,1,1.6,0.7,Time
,,199724,001,男,23,2025-06-04_13h43.57.663,Serial_Dependence_U,2023.2.3,Win32,89.92805755393564,,,,,,1539.0400000000002,296,6,1539.0400000000002,296,,,,1542.9830000000002,1543.477,1542.481,1542.9830000000002,1540.037,1542.481,1543.477,1543.976,1543.976,1545.699,1512,1545.699,4,1545.7,6,22,202,28,1,1.4,0.7,Time
,,199724,001,男,23,2025-06-04_13h43.57.663,Serial_Dependence_U,2023.2.3,Win32,89.92805755393564,,,,,,1545.701,210,6,1545.701,210,,,,1549.8890000000001,1550.3880000000001,1549.3780000000002,1549.8890000000001,1546.7040000000002,1549.3780000000002,1550.3880000000001,1550.8870000000002,1550.8870000000002,1552.8570000000002,1591,1552.8570000000002,3,1552.8580000000002,6,23,203,14,1,1.6,0.3,Time
,,199724,001,男,23,2025-06-04_13h43.57.663,Serial_Dependence_U,2023.2.3,Win32,89.92805755393564,,,,,,1552.8580000000002,77,6,1552.8580000000002,77,,,,1556.433,1556.932,1555.9270000000001,1556.432,1553.856,1555.9270000000001,1556.932,1557.432,1557.432,1559.2730000000001,1530,1559.2730000000001,5,1559.2740000000001,6,24,204,1,1,1,0.3,Time
,,199724,001,男,23,2025-06-04_13h43.57.663,Serial_Dependence_U,2023.2.3,Win32,89.92805755393564,,,,,,1559.2740000000001,273,6,1559.2740000000001,273,,,,1563.056,1563.554,1562.545,1563.056,1560.278,1562.545,1563.554,1564.054,1564.054,1566.074,1617,1566.074,5,1566.075,6,25,205,12,1,1.2,0.3,Time
,,199724,001,男,23,2025-06-04_13h43.57.663,Serial_Dependence_U,2023.2.3,Win32,89.92805755393564,,,,,,1566.075,337,6,1566.075,337,,,,1569.6670000000001,1570.1650000000002,1569.1480000000001,1569.6670000000001,1567.0780000000002,1569.1480000000001,1570.1650000000002,1570.6660000000002,1570.6660000000002,1572.544,1547,1572.544,5,1572.545,6,26,206,11,1,1,0.3,Time
,,199724,001,男,23,2025-06-04_13h43.57.663,Serial_Dependence_U,2023.2.3,Win32,89.92805755393564,,,,,,1572.545,200,6,1572.545,200,,,,1575.8990000000001,1576.3990000000001,1575.3890000000001,1575.8990000000001,1573.544,1575.3890000000001,1576.3990000000001,1576.8990000000001,1576.8990000000001,1578.8670000000002,1626,1578.8670000000002,5,1578.8670000000002,6,27,207,25,1,0.8,0.7,Time
,,199724,001,男,23,2025-06-04_13h43.57.663,Serial_Dependence_U,2023.2.3,Win32,89.92805755393564,,,,,,1578.8680000000002,53,6,1578.8680000000002,53,,,,1582.422,1582.921,1581.912,1582.422,1579.8780000000002,1581.912,1582.921,1583.421,1583.421,1585.0330000000001,1455,1585.0330000000001,5,1585.034,6,28,208,26,1,1,0.7,Time
,,199724,001,男,23,2025-06-04_13h43.57.663,Serial_Dependence_U,2023.2.3,Win32,89.92805755393564,,,,,,1585.034,63,6,1585.034,63,,,,1588.8120000000001,1589.3100000000002,1588.3110000000001,1588.8120000000001,1586.038,1588.3110000000001,1589.3100000000002,1589.8100000000002,1589.8100000000002,1591.5710000000001,1481,1591.5710000000001,4,1591.5720000000001,6,29,209,22,1,1.2,0.3,Time
,,199724,001,男,23,2025-06-04_13h43.57.663,Serial_Dependence_U,2023.2.3,Win32,89.92805755393564,,,,,,1591.5720000000001,191,7,1594.843,191,s,3.254000000000133,,1598.825,1599.3210000000001,1598.3220000000001,1598.825,1595.856,1598.3220000000001,1599.3210000000001,1599.8210000000001,1599.8210000000001,1601.6170000000002,1576,1601.6170000000002,4,1601.6180000000002,7,0,210,13,1,1.4,0.3,Time
,,199724,001,男,23,2025-06-04_13h43.57.663,Serial_Dependence_U,2023.2.3,Win32,89.92805755393564,,,,,,1601.6190000000001,344,7,1601.6200000000001,344,,,,1605.814,1606.3100000000002,1605.3010000000002,1605.814,1602.631,1605.3010000000002,1606.3100000000002,1606.8100000000002,1606.8100000000002,1608.3400000000001,1194,1608.3400000000001,2,1608.3410000000001,7,1,211,24,1,1.6,0.3,Time
,,199724,001,男,23,2025-06-04_13h43.57.663,Serial_Dependence_U,2023.2.3,Win32,89.92805755393564,,,,,,1608.3410000000001,217,7,1608.3410000000001,217,,,,1612.2930000000001,1612.788,1611.7900000000002,1612.2930000000001,1609.356,1611.789,1612.788,1613.287,1613.287,1615.0490000000002,1444,1615.0490000000002,3,1615.0500000000002,7,2,212,8,1,1.4,0.7,Time
,,199724,001,男,23,2025-06-04_13h43.57.663,Serial_Dependence_U,2023.2.3,Win32,89.92805755393564,,,,,,1615.0500000000002,100,7,1615.0500000000002,100,,,,1619,1619.499,1618.48,1619,1616.0500000000002,1618.48,1619.499,1619.999,1619.999,1621.885,1565,1621.885,4,1621.8860000000002,7,3,213,28,1,1.4,0.7,Time
,,199724,001,男,23,2025-06-04_13h43.57.663,Serial_Dependence_U,2023.2.3,Win32,89.92805755393564,,,,,,1621.8860000000002,160,7,1621.8860000000002,160,,,,1625.4450000000002,1625.9430000000002,1624.9340000000002,1625.4450000000002,1622.8890000000001,1624.9340000000002,1625.9430000000002,1626.4430000000002,1626.4430000000002,1628.303,1484,1628.303,5,1628.304,7,4,214,6,1,1,0.7,Time
,,199724,001,男,23,2025-06-04_13h43.57.663,Serial_Dependence_U,2023.2.3,Win32,89.92805755393564,,,,,,1628.305,29,7,1628.305,29,,,,1631.8770000000002,1632.3760000000002,1631.3670000000002,1631.8770000000002,1629.2990000000002,1631.3670000000002,1632.3760000000002,1632.8770000000002,1632.8770000000002,1635.0220000000002,1760,1635.0220000000002,5,1635.0230000000001,7,5,215,11,1,1,0.3,Time
,,199724,001,男,23,2025-06-04_13h43.57.663,Serial_Dependence_U,2023.2.3,Win32,89.92805755393564,,,,,,1635.0240000000001,59,7,1635.0240000000001,59,,,,1638.5900000000001,1639.0880000000002,1638.0680000000002,1638.5890000000002,1636.0220000000002,1638.0680000000002,1639.0880000000002,1639.587,1639.587,1641.45,1608,1641.451,5,1641.451,7,6,216,16,1,1,0.7,Time
,,199724,001,男,23,2025-06-04_13h43.57.663,Serial_Dependence_U,2023.2.3,Win32,89.92805755393564,,,,,,1641.451,298,7,1641.451,298,,,,1644.834,1645.332,1644.3120000000001,1644.834,1642.4450000000002,1644.3120000000001,1645.332,1645.832,1645.832,1647.401,1407,1647.401,5,1647.401,7,7,217,10,1,0.8,0.3,Time
,,199724,001,男,23,2025-06-04_13h43.57.663,Serial_Dependence_U,2023.2.3,Win32,89.92805755393564,,,,,,1647.401,267,7,1647.402,267,,,,1651.16,1651.654,1650.644,1651.16,1648.3990000000001,1650.644,1651.654,1652.154,1652.154,1654.037,1341,1654.037,4,1654.037,7,8,218,7,1,1.2,0.7,Time
,,199724,001,男,23,2025-06-04_13h43.57.663,Serial_Dependence_U,2023.2.3,Win32,89.92805755393564,,,,,,1654.037,41,7,1654.037,41,,,,1657.7820000000002,1658.276,1657.268,1657.7820000000002,1655.0330000000001,1657.267,1658.276,1658.776,1658.776,1660.5,1419,1660.5,4,1660.5010000000002,7,9,219,27,1,1.2,0.7,Time
,,199724,001,男,23,2025-06-04_13h43.57.663,Serial_Dependence_U,2023.2.3,Win32,89.92805755393564,,,,,,1660.5020000000002,11,7,1660.5020000000002,11,,,,1664.2920000000001,1664.787,1663.779,1664.2920000000001,1661.5,1663.778,1664.788,1665.288,1665.288,1667.038,1421,1667.038,4,1667.039,7,10,220,2,1,1.2,0.3,Time
,,199724,001,男,23,2025-06-04_13h43.57.663,Serial_Dependence_U,2023.2.3,Win32,89.92805755393564,,,,,,1667.039,62,7,1667.039,62,,,,1671.027,1671.5210000000002,1670.5120000000002,1671.027,1668.034,1670.5120000000002,1671.5210000000002,1672.0210000000002,1672.0210000000002,1673.662,1314,1673.662,2,1673.663,7,11,221,23,1,1.4,0.3,Time
,,199724,001,男,23,2025-06-04_13h43.57.663,Serial_Dependence_U,2023.2.3,Win32,89.92805755393564,,,,,,1673.663,226,7,1673.663,226,,,,1677.804,1678.298,1677.3010000000002,1677.804,1674.67,1677.3010000000002,1678.298,1678.7990000000002,1678.7990000000002,1680.64,1455,1680.64,2,1680.64,7,12,222,29,1,1.6,0.7,Time
,,199724,001,男,23,2025-06-04_13h43.57.663,Serial_Dependence_U,2023.2.3,Win32,89.92805755393564,,,,,,1680.64,74,7,1680.641,74,,,,1684.2250000000001,1684.721,1683.711,1684.2250000000001,1681.6450000000002,1683.711,1684.721,1685.221,1685.221,1687.105,1500,1687.106,5,1687.106,7,13,223,21,1,1,0.3,Time
,,199724,001,男,23,2025-06-04_13h43.57.663,Serial_Dependence_U,2023.2.3,Win32,89.92805755393564,,,,,,1687.106,252,7,1687.106,252,,,,1690.883,1691.3760000000002,1690.3670000000002,1690.883,1688.1000000000001,1690.3670000000002,1691.3770000000002,1691.8770000000002,1691.8770000000002,1693.573,1334,1693.573,4,1693.573,7,14,224,22,1,1.2,0.3,Time
,,199724,001,男,23,2025-06-04_13h43.57.663,Serial_Dependence_U,2023.2.3,Win32,89.92805755393564,,,,,,1693.574,301,7,1693.574,301,,,,1697.5010000000002,1697.999,1696.999,1697.5010000000002,1694.567,1696.999,1697.999,1698.499,1698.499,1700.606,1632,1700.606,4,1700.6070000000002,7,15,225,18,1,1.4,0.7,Time
,,199724,001,男,23,2025-06-04_13h43.57.663,Serial_Dependence_U,2023.2.3,Win32,89.92805755393564,,,,,,1700.6070000000002,235,7,1700.6070000000002,235,,,,1704.16,1704.6550000000002,1703.6450000000002,1704.159,1701.6000000000001,1703.6450000000002,1704.6550000000002,1705.1550000000002,1705.1550000000002,1707.183,1797,1707.183,5,1707.183,7,16,226,26,1,1,0.7,Time
,,199724,001,男,23,2025-06-04_13h43.57.663,Serial_Dependence_U,2023.2.3,Win32,89.92805755393564,,,,,,1707.183,263,7,1707.1840000000002,263,,,,1710.555,1711.054,1710.045,1710.555,1708.1770000000001,1710.045,1711.054,1711.554,1711.554,1713.179,1352,1713.179,5,1713.18,7,17,227,0,1,0.8,0.3,Time
,,199724,001,男,23,2025-06-04_13h43.57.663,Serial_Dependence_U,2023.2.3,Win32,89.92805755393564,,,,,,1713.181,1,7,1713.181,1,,,,1717.345,1717.844,1716.834,1717.345,1714.1940000000002,1716.834,1717.844,1718.343,1718.343,1720.306,1642,1720.306,3,1720.307,7,18,228,9,1,1.6,0.7,Time
,,199724,001,男,23,2025-06-04_13h43.57.663,Serial_Dependence_U,2023.2.3,Win32,89.92805755393564,,,,,,1720.308,12,7,1720.308,12,,,,1724.489,1724.988,1723.978,1724.489,1721.3120000000001,1723.978,1724.988,1725.488,1725.488,1727.605,1854,1727.605,4,1727.605,7,19,229,4,1,1.6,0.3,Time
,,199724,001,男,23,2025-06-04_13h43.57.663,Serial_Dependence_U,2023.2.3,Win32,89.92805755393564,,,,,,1727.605,130,7,1727.605,130,,,,1731.178,1731.6770000000001,1730.6670000000001,1731.178,1728.602,1730.6660000000002,1731.6770000000001,1732.1770000000001,1732.1770000000001,1734.1380000000001,1717,1734.1380000000001,5,1734.14,7,20,230,1,1,1,0.3,Time
,,199724,001,男,23,2025-06-04_13h43.57.663,Serial_Dependence_U,2023.2.3,Win32,89.92805755393564,,,,,,1734.14,335,7,1734.14,335,,,,1737.881,1738.3770000000002,1737.3680000000002,1737.881,1735.1380000000001,1737.3680000000002,1738.3770000000002,1738.8770000000002,1738.8770000000002,1740.6950000000002,1368,1740.6950000000002,4,1740.6960000000001,7,21,231,17,1,1.2,0.7,Time
,,199724,001,男,23,2025-06-04_13h43.57.663,Serial_Dependence_U,2023.2.3,Win32,89.92805755393564,,,,,,1740.6960000000001,221,7,1740.6960000000001,221,,,,1744.8680000000002,1745.366,1744.3670000000002,1744.8670000000002,1741.69,1744.3670000000002,1745.366,1745.866,1745.866,1748.006,1667,1748.006,3,1748.007,7,22,232,14,1,1.6,0.3,Time
,,199724,001,男,23,2025-06-04_13h43.57.663,Serial_Dependence_U,2023.2.3,Win32,89.92805755393564,,,,,,1748.007,267,7,1748.008,267,,,,1751.39,1751.8880000000001,1750.8890000000001,1751.39,1749.0230000000001,1750.8890000000001,1751.8880000000001,1752.3880000000001,1752.3880000000001,1754.872,2122,1754.872,5,1754.872,7,23,233,20,1,0.8,0.3,Time
,,199724,001,男,23,2025-06-04_13h43.57.663,Serial_Dependence_U,2023.2.3,Win32,89.92805755393564,,,,,,1754.873,230,7,1754.873,230,,,,1758.212,1758.71,1757.711,1758.212,1755.872,1757.711,1758.71,1759.21,1759.21,1760.9940000000001,1433,1760.9940000000001,5,1760.9940000000001,7,24,234,25,1,0.8,0.7,Time
,,199724,001,男,23,2025-06-04_13h43.57.663,Serial_Dependence_U,2023.2.3,Win32,89.92805755393564,,,,,,1760.9950000000001,231,7,1760.9950000000001,231,,,,1765.1380000000001,1765.633,1764.624,1765.1380000000001,1761.99,1764.623,1765.633,1766.133,1766.133,1767.9630000000002,1468,1767.9630000000002,2,1767.9630000000002,7,25,235,19,1,1.6,0.7,Time
,,199724,001,男,23,2025-06-04_13h43.57.663,Serial_Dependence_U,2023.2.3,Win32,89.92805755393564,,,,,,1767.9630000000002,359,7,1767.9630000000002,359,,,,1771.9350000000002,1772.432,1771.4340000000002,1771.9350000000002,1768.968,1771.4340000000002,1772.432,1772.932,1772.932,1774.712,1416,1774.712,3,1774.712,7,26,236,3,1,1.4,0.3,Time
,,199724,001,男,23,2025-06-04_13h43.57.663,Serial_Dependence_U,2023.2.3,Win32,89.92805755393564,,,,,,1774.7130000000002,59,7,1774.7130000000002,59,,,,1778.505,1778.999,1777.99,1778.505,1775.711,1777.99,1778.999,1779.499,1779.499,1781.361,1453,1781.361,4,1781.362,7,27,237,12,1,1.2,0.3,Time
,,199724,001,男,23,2025-06-04_13h43.57.663,Serial_Dependence_U,2023.2.3,Win32,89.92805755393564,,,,,,1781.363,316,7,1781.363,316,,,,1784.7230000000002,1785.2220000000002,1784.201,1784.7230000000002,1782.3600000000001,1784.201,1785.2220000000002,1785.7220000000002,1785.7220000000002,1787.315,1231,1787.315,5,1787.315,7,28,238,15,1,0.8,0.7,Time
,,199724,001,男,23,2025-06-04_13h43.57.663,Serial_Dependence_U,2023.2.3,Win32,89.92805755393564,,,,,,1787.315,152,7,1787.315,152,,,,1790.6680000000001,1791.1660000000002,1790.1480000000001,1790.6680000000001,1788.3110000000001,1790.1480000000001,1791.1660000000002,1791.6660000000002,1791.6660000000002,1793.4470000000001,1401,1793.4470000000001,5,1793.448,7,29,239,5,1,0.8,0.7,Time
,,199724,001,男,23,2025-06-04_13h43.57.663,Serial_Dependence_U,2023.2.3,Win32,89.92805755393564,,,,,,1793.448,223,8,1843.9,223,s,50.43300000000022,,1847.4920000000002,1847.988,1846.98,1847.4920000000002,1844.902,1846.98,1847.988,1848.489,1848.489,1850.2350000000001,1403,1850.2350000000001,5,1850.236,8,0,240,21,1,1,0.3,Time
,,199724,001,男,23,2025-06-04_13h43.57.663,Serial_Dependence_U,2023.2.3,Win32,89.92805755393564,,,,,,1850.237,253,8,1850.238,253,,,,1853.8120000000001,1854.3110000000001,1853.3010000000002,1853.8120000000001,1851.2340000000002,1853.3010000000002,1854.3110000000001,1854.8100000000002,1854.8100000000002,1856.468,1335,1856.468,5,1856.468,8,1,241,1,1,1,0.3,Time
,,199724,001,男,23,2025-06-04_13h43.57.663,Serial_Dependence_U,2023.2.3,Win32,89.92805755393564,,,,,,1856.469,197,8,1856.469,197,,,,1860.401,1860.8990000000001,1859.9,1860.401,1857.468,1859.9,1860.8990000000001,1861.3990000000001,1861.3990000000001,1863.3500000000001,1544,1863.3500000000001,4,1863.3500000000001,8,2,242,8,1,1.4,0.7,Time
,,199724,001,男,23,2025-06-04_13h43.57.663,Serial_Dependence_U,2023.2.3,Win32,89.92805755393564,,,,,,1863.3500000000001,23,8,1863.3500000000001,23,,,,1867.2900000000002,1867.788,1866.7830000000001,1867.2900000000002,1864.345,1866.7820000000002,1867.788,1868.288,1868.288,1869.89,1322,1869.89,2,1869.89,8,3,243,18,1,1.4,0.7,Time
,,199724,001,男,23,2025-06-04_13h43.57.663,Serial_Dependence_U,2023.2.3,Win32,89.92805755393564,,,,,,1869.89,314,8,1869.891,314,,,,1873.884,1874.3770000000002,1873.366,1873.884,1870.901,1873.366,1874.3770000000002,1874.8770000000002,1874.8770000000002,1876.507,1306,1876.507,2,1876.508,8,4,244,13,1,1.4,0.3,Time
,,199724,001,男,23,2025-06-04_13h43.57.663,Serial_Dependence_U,2023.2.3,Win32,89.92805755393564,,,,,,1876.508,239,8,1876.51,239,,,,1880.6570000000002,1881.1550000000002,1880.1570000000002,1880.6570000000002,1877.5130000000001,1880.1570000000002,1881.1550000000002,1881.6560000000002,1881.6560000000002,1883.5210000000002,1427,1883.5210000000002,2,1883.5220000000002,8,5,245,19,1,1.6,0.7,Time
,,199724,001,男,23,2025-06-04_13h43.57.663,Serial_Dependence_U,2023.2.3,Win32,89.92805755393564,,,,,,1883.5220000000002,309,8,1883.5220000000002,309,,,,1887.064,1887.567,1886.557,1887.064,1884.5240000000001,1886.557,1887.567,1888.066,1888.066,1889.691,1283,1889.691,4,1889.692,8,6,246,16,1,1,0.7,Time
,,199724,001,男,23,2025-06-04_13h43.57.663,Serial_Dependence_U,2023.2.3,Win32,89.92805755393564,,,,,,1889.692,19,8,1889.692,19,,,,1893.044,1893.544,1892.535,1893.044,1890.6970000000001,1892.535,1893.544,1894.044,1894.044,1895.461,1127,1895.461,5,1895.462,8,7,247,5,1,0.8,0.7,Time
,,199724,001,男,23,2025-06-04_13h43.57.663,Serial_Dependence_U,2023.2.3,Win32,89.92805755393564,,,,,,1895.462,6,8,1895.462,6,,,,1899.635,1900.132,1899.134,1899.635,1896.4720000000002,1899.134,1900.132,1900.633,1900.633,1902.459,1527,1902.459,3,1902.46,8,8,248,24,1,1.6,0.3,Time
,,199724,001,男,23,2025-06-04_13h43.57.663,Serial_Dependence_U,2023.2.3,Win32,89.92805755393564,,,,,,1902.46,9,8,1902.46,9,,,,1906.008,1906.5,1905.5020000000002,1906.008,1903.457,1905.5020000000002,1906.5,1907,1907,1908.585,1281,1908.585,4,1908.586,8,9,249,6,1,1,0.7,Time
,,199724,001,男,23,2025-06-04_13h43.57.663,Serial_Dependence_U,2023.2.3,Win32,89.92805755393564,,,,,,1908.587,261,8,1908.587,261,,,,1911.968,1912.4660000000001,1911.462,1911.968,1909.594,1911.462,1912.4660000000001,1912.967,1912.967,1914.584,1309,1914.584,5,1914.585,8,10,250,20,1,0.8,0.3,Time
,,199724,001,男,23,2025-06-04_13h43.57.663,Serial_Dependence_U,2023.2.3,Win32,89.92805755393564,,,,,,1914.585,116,8,1914.585,116,,,,1918.179,1918.6770000000001,1917.6680000000001,1918.179,1915.5900000000001,1917.6680000000001,1918.6770000000001,1919.1770000000001,1919.1770000000001,1920.872,1464,1920.872,5,1920.873,8,11,251,11,1,1,0.3,Time
,,199724,001,男,23,2025-06-04_13h43.57.663,Serial_Dependence_U,2023.2.3,Win32,89.92805755393564,,,,,,1920.873,341,8,1920.873,341,,,,1925.046,1925.545,1924.546,1925.046,1921.8680000000002,1924.545,1925.545,1926.044,1926.045,1927.7450000000001,1275,1927.7450000000001,2,1927.7450000000001,8,12,252,4,1,1.6,0.3,Time
,,199724,001,男,23,2025-06-04_13h43.57.663,Serial_Dependence_U,2023.2.3,Win32,89.92805755393564,,,,,,1927.747,28,8,1927.747,28,,,,1931.491,1931.989,1930.989,1931.491,1928.757,1930.989,1931.989,1932.488,1932.488,1934.028,1317,1934.028,4,1934.028,8,13,253,17,1,1.2,0.7,Time
,,199724,001,男,23,2025-06-04_13h43.57.663,Serial_Dependence_U,2023.2.3,Win32,89.92805755393564,,,,,,1934.028,346,8,1934.029,346,,,,1937.567,1938.067,1937.066,1937.567,1935.027,1937.066,1938.067,1938.566,1938.566,1940.269,1368,1940.269,5,1940.2700000000002,8,14,254,26,1,1,0.7,Time
,,199724,001,男,23,2025-06-04_13h43.57.663,Serial_Dependence_U,2023.2.3,Win32,89.92805755393564,,,,,,1940.2700000000002,266,8,1940.2700000000002,266,,,,1944.0680000000002,1944.566,1943.546,1944.0680000000002,1941.268,1943.546,1944.566,1945.066,1945.066,1946.727,1461,1946.727,4,1946.727,8,15,255,12,1,1.2,0.3,Time
,,199724,001,男,23,2025-06-04_13h43.57.663,Serial_Dependence_U,2023.2.3,Win32,89.92805755393564,,,,,,1946.727,38,8,1946.727,38,,,,1950.913,1951.41,1950.402,1950.913,1947.7230000000002,1950.402,1951.41,1951.911,1951.911,1953.546,1471,1953.546,2,1953.547,8,16,256,14,1,1.6,0.3,Time
,,199724,001,男,23,2025-06-04_13h43.57.663,Serial_Dependence_U,2023.2.3,Win32,89.92805755393564,,,,,,1953.547,343,8,1953.547,343,,,,1956.9460000000001,1957.4440000000002,1956.4260000000002,1956.9460000000001,1954.557,1956.4260000000002,1957.4440000000002,1957.9440000000002,1957.9440000000002,1959.623,1419,1959.623,5,1959.623,8,17,257,0,1,0.8,0.3,Time
,,199724,001,男,23,2025-06-04_13h43.57.663,Serial_Dependence_U,2023.2.3,Win32,89.92805755393564,,,,,,1959.624,207,8,1959.625,207,,,,1963.616,1964.111,1963.102,1963.616,1960.623,1963.102,1964.111,1964.611,1964.611,1966.307,1463,1966.307,3,1966.307,8,18,258,23,1,1.4,0.3,Time
,,199724,001,男,23,2025-06-04_13h43.57.663,Serial_Dependence_U,2023.2.3,Win32,89.92805755393564,,,,,,1966.307,171,8,1966.307,171,,,,1969.701,1970.199,1969.18,1969.701,1967.3020000000001,1969.18,1970.2,1970.7,1970.701,1972.419,1391,1972.419,5,1972.42,8,19,259,10,1,0.8,0.3,Time
,,199724,001,男,23,2025-06-04_13h43.57.663,Serial_Dependence_U,2023.2.3,Win32,89.92805755393564,,,,,,1972.42,33,8,1972.421,33,,,,1976.2230000000002,1976.7220000000002,1975.712,1976.2230000000002,1973.4340000000002,1975.712,1976.7220000000002,1977.2220000000002,1977.2220000000002,1978.904,1550,1978.904,4,1978.9050000000002,8,20,260,2,1,1.2,0.3,Time
,,199724,001,男,23,2025-06-04_13h43.57.663,Serial_Dependence_U,2023.2.3,Win32,89.92805755393564,,,,,,1978.9050000000002,107,8,1978.9050000000002,107,,,,1982.8500000000001,1983.344,1982.337,1982.8500000000001,1979.901,1982.337,1983.344,1983.844,1983.844,1985.5970000000002,1457,1985.5970000000002,3,1985.5970000000002,8,21,261,28,1,1.4,0.7,Time
,,199724,001,男,23,2025-06-04_13h43.57.663,Serial_Dependence_U,2023.2.3,Win32,89.92805755393564,,,,,,1985.5970000000002,342,8,1985.5970000000002,342,,,,1989.3570000000002,1989.856,1988.846,1989.3570000000002,1986.601,1988.846,1989.856,1990.356,1990.356,1992.116,1611,1992.116,5,1992.1180000000002,8,22,262,7,1,1.2,0.7,Time
,,199724,001,男,23,2025-06-04_13h43.57.663,Serial_Dependence_U,2023.2.3,Win32,89.92805755393564,,,,,,1992.1180000000002,22,8,1992.1180000000002,22,,,,1996.0890000000002,1996.5890000000002,1995.5790000000002,1996.0890000000002,1993.112,1995.5790000000002,1996.5890000000002,1997.0890000000002,1997.0890000000002,1998.683,1209,1998.683,2,1998.6840000000002,8,23,263,3,1,1.4,0.3,Time
,,199724,001,男,23,2025-06-04_13h43.57.663,Serial_Dependence_U,2023.2.3,Win32,89.92805755393564,,,,,,1998.6840000000002,246,8,1998.6840000000002,246,,,,2002.413,2002.911,2001.912,2002.413,1999.679,2001.912,2002.911,2003.411,2003.411,2005.2160000000001,1543,2005.2160000000001,4,2005.217,8,24,264,27,1,1.2,0.7,Time
,,199724,001,男,23,2025-06-04_13h43.57.663,Serial_Dependence_U,2023.2.3,Win32,89.92805755393564,,,,,,2005.217,99,8,2005.217,99,,,,2009.357,2009.855,2008.8450000000003,2009.357,2006.212,2008.8450000000003,2009.855,2010.355,2010.355,2012.19,1610,2012.19,3,2012.19,8,25,265,29,1,1.6,0.7,Time
,,199724,001,男,23,2025-06-04_13h43.57.663,Serial_Dependence_U,2023.2.3,Win32,89.92805755393564,,,,,,2012.1910000000003,158,8,2012.1910000000003,158,,,,2015.967,2016.467,2015.467,2015.967,2013.2020000000002,2015.467,2016.467,2016.967,2016.967,2018.899,1642,2018.899,5,2018.9,8,26,266,22,1,1.2,0.3,Time
,,199724,001,男,23,2025-06-04_13h43.57.663,Serial_Dependence_U,2023.2.3,Win32,89.92805755393564,,,,,,2018.9,332,8,2018.9,332,,,,2023.0460000000003,2023.5440000000003,2022.538,2023.0460000000003,2019.9050000000002,2022.538,2023.5440000000003,2024.045,2024.045,2025.9810000000002,1736,2025.9810000000002,4,2025.9810000000002,8,27,267,9,1,1.6,0.7,Time
,,199724,001,男,23,2025-06-04_13h43.57.663,Serial_Dependence_U,2023.2.3,Win32,89.92805755393564,,,,,,2025.982,130,8,2025.982,130,,,,2029.335,2029.833,2028.813,2029.335,2026.98,2028.813,2029.833,2030.333,2030.333,2031.951,1343,2031.9520000000002,5,2031.9520000000002,8,28,268,15,1,0.8,0.7,Time
,,199724,001,男,23,2025-06-04_13h43.57.663,Serial_Dependence_U,2023.2.3,Win32,89.92805755393564,,,,,,2031.953,155,8,2031.953,155,,,,2035.299,2035.8000000000002,2034.7910000000002,2035.299,2032.9590000000003,2034.7910000000002,2035.8000000000002,2036.3000000000002,2036.3000000000002,2037.8220000000001,1244,2037.8220000000001,5,2037.8230000000003,8,29,269,25,1,0.8,0.7,Time