Scale_setup.started,Scale_setup.stopped,participant,session,sex,age,date,expName,psychopyVersion,OS,frameRate,Intro.started,Intro.stopped,key_resp_2.keys,key_resp_2.rt,key_resp_2.duration,block.started,direction,Block_id,block.stopped,trial_direction,Block_resp_2.keys,Block_resp_2.rt,Block_resp_2.duration,ITI.started,ITI.stopped,Mask_2.started,Mask_2.stopped,encoding.started,encoding.stopped,Cue.started,Cue.stopped,Response.started,Response.stopped,keyDuration,Feedback_Time.started,FeedbackID_T,Feedback_Time.stopped,trials.thisRepN,trials.thisTrialN,trials.thisN,trials.thisIndex,trials.ran,TimeDur,Coherence1,TrialType
0.00040000009536100833,0.000799999713898103,199905,001,女,20,2025-06-02_15h46.18.397,Serial_Dependence_U,2023.2.3,Linux aarch64,60.01680470532965,,,,,,,,,,,,,,,,,,,,,,,,,,,,,,,,,,,
,,199905,001,女,20,2025-06-02_15h46.18.397,Serial_Dependence_U,2023.2.3,Linux aarch64,60.01680470532965,466.19,662.4702999997139,space,196.202,,,,,,,,,,,,,,,,,,,,,,,,,,,,,,,
,,199905,001,女,20,2025-06-02_15h46.18.397,Serial_Dependence_U,2023.2.3,Linux aarch64,60.01680470532965,,,,,,662.5204000000954,183,0,667.0356999998093,183,s,4.469599999904631,,671.0417999997139,671.5412999997139,670.5366999998092,671.0411999998092,668.0436999998093,670.5361999998092,671.542,672.0551999998092,672.0560999999046,686.3176999998093,138,686.3186999998093,1,687.3150999999046,0,0,0,23,1,1.4,0.3,Time
,,199905,001,女,20,2025-06-02_15h46.18.397,Serial_Dependence_U,2023.2.3,Linux aarch64,60.01680470532965,,,,,,687.3165999999046,15,0,687.3226999998093,15,,,,691.2982999997139,691.7924000000954,690.7860000000001,691.2976999998093,688.3261999998093,690.7855000000001,691.7925,692.2914000000953,692.2915999999046,695.4085,2058,695.4095,5,696.4195999999047,0,1,1,18,1,1.4,0.7,Time
,,199905,001,女,20,2025-06-02_15h46.18.397,Serial_Dependence_U,2023.2.3,Linux aarch64,60.01680470532965,,,,,,696.4224000000954,211,0,696.4235,211,,,,700.2112999997139,700.6995000000001,699.6985999999047,700.2109000000954,697.4270999999046,699.6984000000954,700.6996999998092,701.2002999997139,701.2005,702.7937999997139,1027,702.7944000000954,2,703.7901999998093,0,2,2,12,1,1.2,0.3,Time
,,199905,001,女,20,2025-06-02_15h46.18.397,Serial_Dependence_U,2023.2.3,Linux aarch64,60.01680470532965,,,,,,703.7915999999046,47,0,703.792,47,,,,707.7489000000954,708.2495999999046,707.2399000000954,707.7484000000953,704.801,707.2395,708.2496999998093,708.7499000000954,708.75,711.3245999999046,1978,711.3252999997139,5,712.324299999714,0,3,3,28,1,1.4,0.7,Time
,,199905,001,女,20,2025-06-02_15h46.18.397,Serial_Dependence_U,2023.2.3,Linux aarch64,60.01680470532965,,,,,,712.3261999998093,123,0,712.327,123,,,,716.1035,716.6,715.5924000000954,716.1030000000001,713.3360999999046,715.5919000000954,716.6001999998093,717.0995999999046,717.0997999997139,718.694799999714,1131,718.6955,2,719.6905999999046,0,4,4,7,1,1.2,0.7,Time
,,199905,001,女,20,2025-06-02_15h46.18.397,Serial_Dependence_U,2023.2.3,Linux aarch64,60.01680470532965,,,,,,719.6922999997139,332,0,719.6927999997139,332,,,,723.8774000000953,724.3736999998093,723.3725999999047,723.8771999998092,720.7197999997139,723.3719000000954,724.3736999998093,724.8740999999046,724.8741999998093,728.3656999998093,1842,728.3665,4,729.366,0,5,5,19,1,1.6,0.7,Time
,,199905,001,女,20,2025-06-02_15h46.18.397,Serial_Dependence_U,2023.2.3,Linux aarch64,60.01680470532965,,,,,,729.3676999998092,306,0,729.3685,306,,,,733.3802999997139,733.8832999997139,732.8650999999046,733.3799000000954,730.3930999999046,732.8645999999046,733.8834000000954,734.3835,734.3836999998093,737.2475000000001,2325,737.2485,5,738.2486999998093,0,6,6,13,1,1.4,0.3,Time
,,199905,001,女,20,2025-06-02_15h46.18.397,Serial_Dependence_U,2023.2.3,Linux aarch64,60.01680470532965,,,,,,738.2495999999046,311,0,738.2500999999047,311,,,,741.625,742.1169000000954,741.1085,741.6245,739.2671999998092,741.1081999998092,742.1171999998093,742.619,742.6191999998093,745.6195,2587,745.6202999997139,5,746.616,0,7,7,15,1,0.8,0.7,Time
,,199905,001,女,20,2025-06-02_15h46.18.397,Serial_Dependence_U,2023.2.3,Linux aarch64,60.01680470532965,,,,,,746.617,3,0,746.6175999999047,3,,,,750.0310999999047,750.5254000000954,749.5144000000954,750.0306999998093,747.6262999997139,749.5137999997139,750.5255,751.0251999998093,751.0254000000954,756.4685999999047,1431,756.4690999999046,5,757.4657999997139,0,8,8,20,1,0.8,0.3,Time
,,199905,001,女,20,2025-06-02_15h46.18.397,Serial_Dependence_U,2023.2.3,Linux aarch64,60.01680470532965,,,,,,757.4667999997139,10,0,757.4672999997139,10,,,,761.688,762.1832999997139,761.1720999999046,761.6875,758.4891999998093,761.1715999999046,762.1834000000954,762.6845999999047,762.684799999714,765.2926999998093,2107,765.2934000000954,5,766.2915999999046,0,9,9,14,1,1.6,0.3,Time
,,199905,001,女,20,2025-06-02_15h46.18.397,Serial_Dependence_U,2023.2.3,Linux aarch64,60.01680470532965,,,,,,766.2927999997139,236,0,766.2932999997139,236,,,,769.9070999999046,770.4004000000954,769.3950999999047,769.9067999997139,767.3015999999046,769.3945,770.4005,770.9010000000001,770.9011999998093,773.222,1909,773.2225999999047,5,774.2249000000954,0,10,10,11,1,1,0.3,Time
,,199905,001,女,20,2025-06-02_15h46.18.397,Serial_Dependence_U,2023.2.3,Linux aarch64,60.01680470532965,,,,,,774.2261999998093,85,0,774.2267999997139,85,,,,778.0244000000954,778.5255,777.5007999997139,778.0239000000954,775.2345999999046,777.5002999997139,778.5255999999047,779.0271999998092,779.0272999997139,780.2967999997139,856,780.2972999997139,2,781.2999000000954,0,11,11,17,1,1.2,0.7,Time
,,199905,001,女,20,2025-06-02_15h46.18.397,Serial_Dependence_U,2023.2.3,Linux aarch64,60.01680470532965,,,,,,781.301,207,0,781.3016999998093,207,,,,784.6610000000001,785.1505,784.1575,784.6605999999047,782.3109000000953,784.157,785.1505999999047,785.6510000000001,785.651299999714,787.5966999998093,841,787.5971999998093,4,788.5912999997139,0,12,12,5,1,0.8,0.7,Time
,,199905,001,女,20,2025-06-02_15h46.18.397,Serial_Dependence_U,2023.2.3,Linux aarch64,60.01680470532965,,,,,,788.5922999997139,147,0,788.5929000000954,147,,,,792.192,792.6926999998093,791.6737999997139,792.1912999997139,789.6005,791.6734000000954,792.6929000000954,793.1911999998093,793.1912999997139,794.4990999999046,1238,794.4999000000954,4,795.4999000000954,0,13,13,1,1,1,0.3,Time
,,199905,001,女,20,2025-06-02_15h46.18.397,Serial_Dependence_U,2023.2.3,Linux aarch64,60.01680470532965,,,,,,795.5007999997139,342,0,795.5011999998093,342,,,,799.6812999997139,800.1767999997139,799.1751999998093,799.6806999998092,796.5049000000954,799.1746999998093,800.1769000000954,800.6771999998093,800.6774000000954,802.8649000000954,1753,802.8655,4,803.8664000000954,0,14,14,24,1,1.6,0.3,Time
,,199905,001,女,20,2025-06-02_15h46.18.397,Serial_Dependence_U,2023.2.3,Linux aarch64,60.01680470532965,,,,,,803.8674000000954,349,0,803.8679000000953,349,,,,808.051,808.5420999999046,807.5314000000953,808.0506999998092,804.886799999714,807.5310999999047,808.5421999998093,809.0425999999046,809.0426999998093,811.2549000000954,1758,811.2557999997139,4,812.2499000000954,0,15,15,29,1,1.6,0.7,Time
,,199905,001,女,20,2025-06-02_15h46.18.397,Serial_Dependence_U,2023.2.3,Linux aarch64,60.01680470532965,,,,,,812.251,58,0,812.2515999999047,58,,,,815.8835,816.3757999997139,815.3591999998093,815.883,813.2754000000954,815.3586999998092,816.3759000000954,816.876,816.8761999998093,819.9124000000954,2607,819.914,5,820.9085,0,16,16,21,1,1,0.3,Time
,,199905,001,女,20,2025-06-02_15h46.18.397,Serial_Dependence_U,2023.2.3,Linux aarch64,60.01680470532965,,,,,,820.9095999999047,206,0,820.9101999998093,206,,,,824.3056999998092,824.800799999714,823.7914000000953,824.3051999998092,821.9222999997139,823.791,824.800799999714,825.300799999714,825.3009000000953,825.454299999714,81,825.4547999997139,1,826.4499000000953,0,17,17,10,1,0.8,0.3,Time
,,199905,001,女,20,2025-06-02_15h46.18.397,Serial_Dependence_U,2023.2.3,Linux aarch64,60.01680470532965,,,,,,826.4509000000954,274,0,826.4515999999046,274,,,,830.2606999998093,830.7510999999047,829.7526999998092,830.2601999998093,827.4762999997139,829.752299999714,830.7511999998093,831.2530999999046,831.2532999997139,833.8400999999046,2208,833.8405,5,834.8416999998093,0,18,18,2,1,1.2,0.3,Time
,,199905,001,女,20,2025-06-02_15h46.18.397,Serial_Dependence_U,2023.2.3,Linux aarch64,60.01680470532965,,,,,,834.8426999998093,134,0,834.8431999998093,134,,,,838.4305999999046,838.9197999997139,837.9235999999047,838.430299999714,835.8592999997139,837.9230999999047,838.9201999998093,839.4195999999047,839.4199000000954,842.3812999997139,1913,842.3819000000954,5,843.3841999998093,0,19,19,26,1,1,0.7,Time
,,199905,001,女,20,2025-06-02_15h46.18.397,Serial_Dependence_U,2023.2.3,Linux aarch64,60.01680470532965,,,,,,843.3851999998093,262,0,843.3856999998093,262,,,,847.3609000000954,847.8511999998093,846.8395999999046,847.3605,844.3857999997139,846.8390999999046,847.8514000000954,848.3499000000954,848.35,850.6754000000954,2030,850.6759000000953,5,851.6754000000954,0,20,20,8,1,1.4,0.7,Time
,,199905,001,女,20,2025-06-02_15h46.18.397,Serial_Dependence_U,2023.2.3,Linux aarch64,60.01680470532965,,,,,,851.6764000000954,60,0,851.6769000000954,60,,,,855.4491999998093,855.943,854.9427999997139,855.4486999998093,852.6944000000954,854.9424000000954,855.9430999999047,856.4440000000001,856.4441999998093,858.9797999997139,1949,858.9804000000954,5,859.9750999999046,0,21,21,27,1,1.2,0.7,Time
,,199905,001,女,20,2025-06-02_15h46.18.397,Serial_Dependence_U,2023.2.3,Linux aarch64,60.01680470532965,,,,,,859.9761999998093,353,0,859.9769000000954,353,,,,863.3819000000954,863.8775,862.8631999998092,863.3815000000001,860.9790999999046,862.862799999714,863.8775999999046,864.3766999998093,864.3770000000001,867.006799999714,2135,867.0070000000001,5,868.001,0,22,22,0,1,0.8,0.3,Time
,,199905,001,女,20,2025-06-02_15h46.18.397,Serial_Dependence_U,2023.2.3,Linux aarch64,60.01680470532965,,,,,,868.0015,29,0,868.001799999714,29,,,,871.5790000000001,872.0690999999047,871.0754000000954,871.5785,869.0185,871.074799999714,872.069299999714,872.5685999999047,872.5689000000954,875.3660999999047,2242,875.3664000000954,5,876.367299999714,0,23,23,6,1,1,0.7,Time
,,199905,001,女,20,2025-06-02_15h46.18.397,Serial_Dependence_U,2023.2.3,Linux aarch64,60.01680470532965,,,,,,876.3681999998092,330,0,876.3685,330,,,,880.5370999999046,881.035299999714,880.0306999998093,880.5365999999046,877.381799999714,880.0302999997139,881.0354000000954,881.535299999714,881.5355000000001,884.897,2820,884.8974000000953,5,885.893,0,24,24,9,1,1.6,0.7,Time
,,199905,001,女,20,2025-06-02_15h46.18.397,Serial_Dependence_U,2023.2.3,Linux aarch64,60.01680470532965,,,,,,885.8940999999046,257,0,885.8946999998093,257,,,,889.4432999997139,889.9346999998093,888.9405999999046,889.4429000000954,886.8995999999047,888.9401999998092,889.9346999998093,890.4354000000953,890.4355,892.8500999999046,1934,892.8506999998093,5,893.8509000000954,0,25,25,16,1,1,0.7,Time
,,199905,001,女,20,2025-06-02_15h46.18.397,Serial_Dependence_U,2023.2.3,Linux aarch64,60.01680470532965,,,,,,893.8519000000954,314,0,893.8524000000954,314,,,,897.8594000000954,898.3524000000954,897.3346999998092,897.8589000000953,894.8592999997139,897.3340999999047,898.352799999714,898.8552999997139,898.8556999998093,901.429,2056,901.4299000000954,5,902.4261999998092,0,26,26,3,1,1.4,0.3,Time
,,199905,001,女,20,2025-06-02_15h46.18.397,Serial_Dependence_U,2023.2.3,Linux aarch64,60.01680470532965,,,,,,902.4270999999046,234,0,902.4277999997139,234,,,,906.2437999997139,906.7347999997139,905.7180999999047,906.2431999998092,903.431,905.7175999999047,906.735,907.2355,907.2357999997139,909.697,1259,909.6976999998093,3,910.6930999999047,0,27,27,22,1,1.2,0.3,Time
,,199905,001,女,20,2025-06-02_15h46.18.397,Serial_Dependence_U,2023.2.3,Linux aarch64,60.01680470532965,,,,,,910.694299999714,0,0,910.695,0,,,,914.0767999997139,914.5775999999047,913.5525,914.0764000000954,911.6985,913.5520999999046,914.5776999998093,915.0769000000954,915.077,916.6654000000954,1163,916.6660999999046,5,917.668,0,28,28,25,1,0.8,0.7,Time
,,199905,001,女,20,2025-06-02_15h46.18.397,Serial_Dependence_U,2023.2.3,Linux aarch64,60.01680470532965,,,,,,917.669,262,0,917.6695,262,,,,921.8875,922.3856999998093,921.365,921.8870000000001,918.6885999999047,921.3645999999046,922.3857999997139,922.8860999999047,922.8861999998093,924.354,1178,924.3545,2,925.3511999998093,0,29,29,4,1,1.6,0.3,Time
,,199905,001,女,20,2025-06-02_15h46.18.397,Serial_Dependence_U,2023.2.3,Linux aarch64,60.01680470532965,,,,,,925.352,201,1,991.2041999998092,201,s,65.80160000038143,,994.7735999999046,995.2705,994.2586999998092,994.7729999999998,992.2056999998091,994.2584000000953,995.2706999998092,995.7715,995.7724999999999,998.2194999999998,1783,998.2200999999046,5,998.2405999999045,1,0,30,26,1,1,0.7,Time
,,199905,001,女,20,2025-06-02_15h46.18.397,Serial_Dependence_U,2023.2.3,Linux aarch64,60.01680470532965,,,,,,998.2417999997139,162,1,998.2470999999044,162,,,,1002.0139000000953,1002.5031999998092,1001.5080999999046,1002.0134000000952,999.2546999998091,1001.5074999999998,1002.5031999998092,1003.0034000000952,1003.0035999999046,1005.4696999998092,1794,1005.4705,5,1005.4720999999046,1,1,31,7,1,1.2,0.7,Time
,,199905,001,女,20,2025-06-02_15h46.18.397,Serial_Dependence_U,2023.2.3,Linux aarch64,60.01680470532965,,,,,,1005.4731999998093,249,1,1005.4739999999998,249,,,,1009.4526999998092,1009.9537999997139,1008.9497999997137,1009.4522999997138,1006.4792999997138,1008.9494000000954,1009.9539000000954,1010.4534000000953,1010.4535,1013.6470999999045,2575,1013.6475999999046,5,1013.6572999997137,1,2,32,23,1,1.4,0.3,Time
,,199905,001,女,20,2025-06-02_15h46.18.397,Serial_Dependence_U,2023.2.3,Linux aarch64,60.01680470532965,,,,,,1013.6579000000953,39,1,1013.6580999999045,39,,,,1017.8464000000953,1018.3465,1017.3304000000952,1017.8461999998091,1014.6649000000954,1017.3300999999045,1018.3465999999045,1018.8462999997138,1018.8465,1023.5505999999046,1915,1023.5511999998092,4,1023.5667999997139,1,3,33,24,1,1.6,0.3,Time
,,199905,001,女,20,2025-06-02_15h46.18.397,Serial_Dependence_U,2023.2.3,Linux aarch64,60.01680470532965,,,,,,1023.5675999999045,151,1,1023.5679999999999,151,,,,1027.7259000000954,1028.229,1027.2209000000953,1027.7254000000953,1024.5774000000954,1027.2204000000954,1028.2290999999047,1028.7286999998094,1028.7287999997138,1032.2465999999047,1759,1032.247299999714,4,1032.2686999998093,1,4,34,9,1,1.6,0.7,Time
,,199905,001,女,20,2025-06-02_15h46.18.397,Serial_Dependence_U,2023.2.3,Linux aarch64,60.01680470532965,,,,,,1032.269799999714,68,1,1032.2702999997139,68,,,,1035.6472999997138,1036.1455,1035.144299999714,1035.647,1033.283299999714,1035.1439000000953,1036.1456999998093,1036.6454000000954,1036.6455999999046,1038.8214000000953,1652,1038.8219000000954,5,1038.8379000000955,1,5,35,15,1,0.8,0.7,Time
,,199905,001,女,20,2025-06-02_15h46.18.397,Serial_Dependence_U,2023.2.3,Linux aarch64,60.01680470532965,,,,,,1038.8390999999046,259,1,1038.8395,259,,,,1042.812799999714,1043.3121999998093,1042.2979000000953,1042.8124000000953,1039.843,1042.2974000000954,1043.312299999714,1043.8129000000954,1043.8134000000955,1046.825,1608,1046.8256999998093,4,1046.8449000000953,1,6,36,18,1,1.4,0.7,Time
,,199905,001,女,20,2025-06-02_15h46.18.397,Serial_Dependence_U,2023.2.3,Linux aarch64,60.01680470532965,,,,,,1046.845799999714,161,1,1046.8460999999047,161,,,,1050.2050999999046,1050.704799999714,1049.702,1050.2045999999048,1047.8554000000954,1049.7015000000001,1050.704799999714,1051.2039000000955,1051.204,1057.038799999714,1801,1057.0391999998092,5,1057.0561999998092,1,7,37,5,1,0.8,0.7,Time
,,199905,001,女,20,2025-06-02_15h46.18.397,Serial_Dependence_U,2023.2.3,Linux aarch64,60.01680470532965,,,,,,1057.0571999998092,65,1,1057.0575999999046,65,,,,1060.6564000000953,1061.146,1060.1300999999046,1060.656,1058.060799999714,1060.1296999998092,1061.1461999998094,1061.6459000000955,1061.646,1071.2219000000953,1589,1071.2226999998093,5,1071.243799999714,1,8,38,11,1,1,0.3,Time
,,199905,001,女,20,2025-06-02_15h46.18.397,Serial_Dependence_U,2023.2.3,Linux aarch64,60.01680470532965,,,,,,1071.2446999998092,95,1,1071.2451999998093,95,,,,1074.6227999997138,1075.113,1074.1145999999046,1074.6224000000955,1072.2665,1074.1140999999047,1075.1130999999048,1075.6125,1075.6125999999047,1078.2284000000955,1804,1078.2291999998092,5,1078.2519000000955,1,9,39,25,1,0.8,0.7,Time
,,199905,001,女,20,2025-06-02_15h46.18.397,Serial_Dependence_U,2023.2.3,Linux aarch64,60.01680470532965,,,,,,1078.2529000000955,195,1,1078.2532999997138,195,,,,1082.0105999999046,1082.505,1081.5045,1082.0101999998092,1079.2611999998094,1081.5040999999046,1082.5050999999046,1083.0056999998094,1083.0059000000954,1086.2935,2585,1086.2941999998093,5,1086.3045,1,10,40,27,1,1.2,0.7,Time
,,199905,001,女,20,2025-06-02_15h46.18.397,Serial_Dependence_U,2023.2.3,Linux aarch64,60.01680470532965,,,,,,1086.3050999999045,292,1,1086.3054000000955,292,,,,1089.9075,1090.4045,1089.3934000000954,1089.907,1087.3120000000001,1089.3930999999047,1090.4046999998093,1090.9041999998092,1090.9044000000954,1094.3605,2470,1094.361,5,1094.3719000000954,1,11,41,21,1,1,0.3,Time
,,199905,001,女,20,2025-06-02_15h46.18.397,Serial_Dependence_U,2023.2.3,Linux aarch64,60.01680470532965,,,,,,1094.3725,120,1,1094.3727999997138,120,,,,1097.7645999999047,1098.2555,1097.2431999998093,1097.7640999999046,1095.3716999998094,1097.242799999714,1098.2555999999047,1098.756,1098.7566999998094,1101.9,2389,1101.9004000000955,5,1101.9109000000954,1,12,42,0,1,0.8,0.3,Time
,,199905,001,女,20,2025-06-02_15h46.18.397,Serial_Dependence_U,2023.2.3,Linux aarch64,60.01680470532965,,,,,,1101.9115,272,1,1101.9119000000953,272,,,,1106.085,1106.5882999997139,1105.5629000000954,1106.0845999999046,1102.9156999998092,1105.5624000000953,1106.5884000000954,1107.0881999998094,1107.0882999997139,1110.1656999998092,2647,1110.1662999997138,5,1110.177799999714,1,13,43,19,1,1.6,0.7,Time
,,199905,001,女,20,2025-06-02_15h46.18.397,Serial_Dependence_U,2023.2.3,Linux aarch64,60.01680470532965,,,,,,1110.1784000000953,178,1,1110.1785999999047,178,,,,1113.78,1114.2714000000954,1113.268,1113.7794000000954,1111.1971999998093,1113.2675,1114.2715,1114.7716999998092,1114.7719000000955,1118.3670999999047,2698,1118.3676999998092,5,1118.378799999714,1,14,44,1,1,1,0.3,Time
,,199905,001,女,20,2025-06-02_15h46.18.397,Serial_Dependence_U,2023.2.3,Linux aarch64,60.01680470532965,,,,,,1118.3795,304,1,1118.379799999714,304,,,,1122.579,1123.0724000000953,1122.0711999998093,1122.5786999998093,1119.3881999998093,1122.0705999999047,1123.0724000000953,1123.5721999998093,1123.572299999714,1127.4597999997138,2409,1127.4600999999047,5,1127.4705000000001,1,15,45,14,1,1.6,0.3,Time
,,199905,001,女,20,2025-06-02_15h46.18.397,Serial_Dependence_U,2023.2.3,Linux aarch64,60.01680470532965,,,,,,1127.471,98,1,1127.471299999714,98,,,,1131.2619000000955,1131.7557999997139,1130.7565999999047,1131.2615,1128.4855,1130.7557999997139,1131.7559000000954,1132.2546999998092,1132.2549000000954,1136.0385,2246,1136.0391999998092,5,1136.0512999997138,1,16,46,2,1,1.2,0.3,Time
,,199905,001,女,20,2025-06-02_15h46.18.397,Serial_Dependence_U,2023.2.3,Linux aarch64,60.01680470532965,,,,,,1136.0520999999046,220,1,1136.0524000000953,220,,,,1139.4335,1139.9221999998092,1138.9231999998092,1139.433,1137.055299999714,1138.9226999998093,1139.922299999714,1140.4214000000954,1140.4215999999046,1142.6000999999046,2066,1142.6009000000954,5,1142.6109000000954,1,17,47,10,1,0.8,0.3,Time
,,199905,001,女,20,2025-06-02_15h46.18.397,Serial_Dependence_U,2023.2.3,Linux aarch64,60.01680470532965,,,,,,1142.6115,323,1,1142.6116999998094,323,,,,1146.1604000000955,1146.646799999714,1145.657,1146.1599000000954,1143.6164000000954,1145.6565,1146.6469000000955,1147.1456999998093,1147.145799999714,1149.8256999998093,2390,1149.826299999714,5,1149.8372999997139,1,18,48,6,1,1,0.7,Time
,,199905,001,女,20,2025-06-02_15h46.18.397,Serial_Dependence_U,2023.2.3,Linux aarch64,60.01680470532965,,,,,,1149.8379000000955,65,1,1149.8381999998094,65,,,,1154.009299999714,1154.4979000000953,1153.4955,1154.008799999714,1150.8550999999047,1153.4951999998093,1154.498,1155.0056999998094,1155.006299999714,1158.6775,3284,1158.6780999999046,5,1158.696799999714,1,19,49,29,1,1.6,0.7,Time
,,199905,001,女,20,2025-06-02_15h46.18.397,Serial_Dependence_U,2023.2.3,Linux aarch64,60.01680470532965,,,,,,1158.6976999998092,131,1,1158.6980999999046,131,,,,1162.8894000000953,1163.3899000000954,1162.3864000000954,1162.8889000000954,1159.7029000000955,1162.3859000000955,1163.39,1163.8884000000953,1163.8885999999047,1167.307,2873,1167.308,5,1167.3201999998093,1,20,50,4,1,1.6,0.3,Time
,,199905,001,女,20,2025-06-02_15h46.18.397,Serial_Dependence_U,2023.2.3,Linux aarch64,60.01680470532965,,,,,,1167.320799999714,48,1,1167.3210999999046,48,,,,1171.093299999714,1171.581799999714,1170.5891999998094,1171.0929000000954,1168.3254000000954,1170.588799999714,1171.582,1172.0820999999046,1172.0824000000953,1175.8331999998093,3154,1175.8335,5,1175.8435,1,21,51,17,1,1.2,0.7,Time
,,199905,001,女,20,2025-06-02_15h46.18.397,Serial_Dependence_U,2023.2.3,Linux aarch64,60.01680470532965,,,,,,1175.8441999998092,83,1,1175.8444000000954,83,,,,1179.6600999999046,1180.155799999714,1179.1445,1179.6597999997139,1176.8611999998093,1179.1440999999047,1180.1562999997138,1180.6554000000954,1180.6556999998093,1184.2090999999045,2937,1184.2097999997138,5,1184.2205999999046,1,22,52,22,1,1.2,0.3,Time
,,199905,001,女,20,2025-06-02_15h46.18.397,Serial_Dependence_U,2023.2.3,Linux aarch64,60.01680470532965,,,,,,1184.2211999998092,22,1,1184.2215,22,,,,1187.6361999998094,1188.1306999998094,1187.1215,1187.6359000000955,1185.2424000000954,1187.121,1188.1311999998093,1188.6305,1188.6306999998094,1191.3361999998092,2305,1191.336799999714,5,1191.3495999999047,1,23,53,20,1,0.8,0.3,Time
,,199905,001,女,20,2025-06-02_15h46.18.397,Serial_Dependence_U,2023.2.3,Linux aarch64,60.01680470532965,,,,,,1191.350299999714,240,1,1191.3505999999047,240,,,,1195.3119000000954,1195.814299999714,1194.8015999999047,1195.3114000000953,1192.3584000000953,1194.8010999999046,1195.8144000000955,1196.3141999998093,1196.314299999714,1199.4101999998093,2677,1199.4104000000955,5,1199.4201999998093,1,24,54,28,1,1.4,0.7,Time
,,199905,001,女,20,2025-06-02_15h46.18.397,Serial_Dependence_U,2023.2.3,Linux aarch64,60.01680470532965,,,,,,1199.4206999998094,208,1,1199.421,208,,,,1203.4139000000953,1203.9145999999046,1202.9045999999046,1203.4135,1200.4391999998093,1202.9040999999047,1203.9146999998093,1204.4145,1204.415,1207.7160000000001,2740,1207.716299999714,5,1207.7265999999047,1,25,55,8,1,1.4,0.7,Time
,,199905,001,女,20,2025-06-02_15h46.18.397,Serial_Dependence_U,2023.2.3,Linux aarch64,60.01680470532965,,,,,,1207.727299999714,206,1,1207.7275,206,,,,1211.7242999997138,1212.2150999999046,1211.219,1211.723799999714,1208.733,1211.2185,1212.2151999998093,1212.7141999998094,1212.7144000000953,1215.991799999714,2742,1215.9925999999045,5,1216.0044000000953,1,26,56,13,1,1.4,0.3,Time
,,199905,001,女,20,2025-06-02_15h46.18.397,Serial_Dependence_U,2023.2.3,Linux aarch64,60.01680470532965,,,,,,1216.0051999998093,305,1,1216.0055999999047,305,,,,1220.0301999998094,1220.530799999714,1219.5080999999047,1220.029799999714,1217.0230999999046,1219.5075,1220.5309000000955,1221.0321999998093,1221.0324000000953,1224.0266999998094,2529,1224.0270999999047,5,1224.037799999714,1,27,57,3,1,1.4,0.3,Time
,,199905,001,女,20,2025-06-02_15h46.18.397,Serial_Dependence_U,2023.2.3,Linux aarch64,60.01680470532965,,,,,,1224.038299999714,270,1,1224.0385999999046,270,,,,1227.856,1228.3572999997139,1227.3315999999047,1227.8555000000001,1225.0471999998092,1227.3310999999046,1228.3575,1228.8580999999047,1228.8582999997138,1231.4351999998094,2542,1231.4364000000953,5,1231.4465,1,28,58,12,1,1.2,0.3,Time
,,199905,001,女,20,2025-06-02_15h46.18.397,Serial_Dependence_U,2023.2.3,Linux aarch64,60.01680470532965,,,,,,1231.4470999999046,25,1,1231.447299999714,25,,,,1235.0136999998092,1235.5144000000953,1234.506,1235.0131999998093,1232.4650999999046,1234.5055,1235.5145999999047,1236.0145,1236.0145999999047,1238.2711999998094,1667,1238.2719000000955,5,1238.2875,1,29,59,16,1,1,0.7,Time
,,199905,001,女,20,2025-06-02_15h46.18.397,Serial_Dependence_U,2023.2.3,Linux aarch64,60.01680470532965,,,,,,1238.2884000000954,331,2,1257.0339000000954,331,s,18.702700000286313,,1260.3911999998093,1260.8896999998092,1259.8830999999047,1260.3907999997139,1258.0419000000954,1259.8825999999046,1260.8899000000954,1261.390299999714,1261.3906999998094,1264.6029000000954,130,1264.6034000000955,1,1264.6136999998093,2,0,60,15,1,0.8,0.7,Time
,,199905,001,女,20,2025-06-02_15h46.18.397,Serial_Dependence_U,2023.2.3,Linux aarch64,60.01680470532965,,,,,,1264.6141999998092,237,2,1264.6176999998092,237,,,,1268.2079000000954,1268.7065,1267.6896999998094,1268.207299999714,1265.6176999998092,1267.689299999714,1268.7066999998092,1269.2065,1269.2069000000954,1275.5696999998092,1580,1275.5702999997138,5,1275.5845,2,1,61,11,1,1,0.3,Time
,,199905,001,女,20,2025-06-02_15h46.18.397,Serial_Dependence_U,2023.2.3,Linux aarch64,60.01680470532965,,,,,,1275.585299999714,296,2,1275.5856999998093,296,,,,1279.7589000000953,1280.2566999998094,1279.2474000000955,1279.758299999714,1276.588799999714,1279.2469000000954,1280.2567999997138,1280.7569000000954,1280.7570999999045,1284.6779000000954,2635,1284.678299999714,5,1284.6887999997139,2,2,62,19,1,1.6,0.7,Time
,,199905,001,女,20,2025-06-02_15h46.18.397,Serial_Dependence_U,2023.2.3,Linux aarch64,60.01680470532965,,,,,,1284.6894000000955,337,2,1284.6896999998094,337,,,,1288.099799999714,1288.5902999997138,1287.5881999998094,1288.0991999998093,1285.6964000000953,1287.5874000000954,1288.5905,1289.0899000000954,1289.09,1291.3210999999046,1755,1291.3215999999047,5,1291.3406999998092,2,3,63,10,1,0.8,0.3,Time
,,199905,001,女,20,2025-06-02_15h46.18.397,Serial_Dependence_U,2023.2.3,Linux aarch64,60.01680470532965,,,,,,1291.3415999999047,138,2,1291.342,138,,,,1295.520799999714,1296.0241999998093,1295.012,1295.5202999997139,1292.3485999999048,1295.0114000000954,1296.024299999714,1296.5239000000954,1296.5240999999046,1299.4832999997138,2455,1299.4835999999048,5,1299.494,2,4,64,9,1,1.6,0.7,Time
,,199905,001,女,20,2025-06-02_15h46.18.397,Serial_Dependence_U,2023.2.3,Linux aarch64,60.01680470532965,,,,,,1299.4946999998092,131,2,1299.4950000000001,131,,,,1303.5122999997138,1304.0149000000954,1302.9935,1303.511799999714,1300.5030999999046,1302.9930999999046,1304.0150999999046,1304.5151999998093,1304.515299999714,1307.0764000000954,2120,1307.076799999714,5,1307.0866999998093,2,5,65,13,1,1.4,0.3,Time
,,199905,001,女,20,2025-06-02_15h46.18.397,Serial_Dependence_U,2023.2.3,Linux aarch64,60.01680470532965,,,,,,1307.0874000000954,259,2,1307.0875999999046,259,,,,1311.0702999997138,1311.5665999999046,1310.5409000000955,1311.0699000000955,1308.0934000000955,1310.5404000000954,1311.566799999714,1312.0659000000953,1312.0660999999047,1315.5170999999048,2979,1315.5175999999046,5,1315.5284000000954,2,6,66,18,1,1.4,0.7,Time
,,199905,001,女,20,2025-06-02_15h46.18.397,Serial_Dependence_U,2023.2.3,Linux aarch64,60.01680470532965,,,,,,1315.5291999998092,333,2,1315.5295,333,,,,1318.8960999999047,1319.391,1318.3861999998094,1318.8955999999046,1316.5456999998094,1318.3856999998093,1319.3910999999046,1319.890299999714,1319.8906999998094,1322.7992999997139,2450,1322.8,5,1322.8147999997138,2,7,67,5,1,0.8,0.7,Time
,,199905,001,女,20,2025-06-02_15h46.18.397,Serial_Dependence_U,2023.2.3,Linux aarch64,60.01680470532965,,,,,,1322.8154000000955,209,2,1322.8156999998093,209,,,,1326.1920999999047,1326.691,1325.683,1326.1915,1323.8375,1325.6825000000001,1326.6910999999047,1327.1924000000954,1327.1925,1329.7366999998094,2149,1329.7374000000955,5,1329.7486999998093,2,8,68,25,1,0.8,0.7,Time
,,199905,001,女,20,2025-06-02_15h46.18.397,Serial_Dependence_U,2023.2.3,Linux aarch64,60.01680470532965,,,,,,1329.749299999714,141,2,1329.7495999999046,141,,,,1333.5465,1334.041799999714,1333.0421999998093,1333.546,1330.7512999997139,1333.0416999998092,1334.0419000000954,1334.5406999998092,1334.5409000000955,1336.9497999997138,2187,1336.9505999999046,5,1336.9626999998093,2,9,69,2,1,1.2,0.3,Time
,,199905,001,女,20,2025-06-02_15h46.18.397,Serial_Dependence_U,2023.2.3,Linux aarch64,60.01680470532965,,,,,,1336.9632999997139,263,2,1336.963799999714,263,,,,1340.369799999714,1340.8755,1339.853299999714,1340.3694000000953,1337.9685,1339.8529000000954,1340.8755999999046,1341.3741999998092,1341.3744000000954,1344.2299000000953,2782,1344.2301999998092,5,1344.2411999998094,2,10,70,20,1,0.8,0.3,Time
,,199905,001,女,20,2025-06-02_15h46.18.397,Serial_Dependence_U,2023.2.3,Linux aarch64,60.01680470532965,,,,,,1344.2419000000955,24,2,1344.2421999998094,24,,,,1348.4086999998092,1348.907799999714,1347.8924000000954,1348.4081999998093,1345.2461999998093,1347.892,1348.9079000000954,1349.4079000000954,1349.4080999999046,1352.3725999999047,2579,1352.373,5,1352.3835,2,11,71,29,1,1.6,0.7,Time
,,199905,001,女,20,2025-06-02_15h46.18.397,Serial_Dependence_U,2023.2.3,Linux aarch64,60.01680470532965,,,,,,1352.384299999714,228,2,1352.3845000000001,228,,,,1356.588,1357.0830999999046,1356.0719000000954,1356.5876999998093,1353.3904000000955,1356.0711999998093,1357.083299999714,1357.5825999999047,1357.5827999997139,1361.4986999998093,2975,1361.4990999999047,5,1361.509299999714,2,12,72,14,1,1.6,0.3,Time
,,199905,001,女,20,2025-06-02_15h46.18.397,Serial_Dependence_U,2023.2.3,Linux aarch64,60.01680470532965,,,,,,1361.5099000000953,278,2,1361.5101999998092,278,,,,1365.4930999999046,1365.9911999998094,1364.9597999997138,1365.4924000000954,1362.5195999999046,1364.9591999998092,1365.9912999997139,1366.492799999714,1366.4934000000953,1369.3119000000954,2344,1369.3121999998093,5,1369.3216999998092,2,13,73,8,1,1.4,0.7,Time
,,199905,001,女,20,2025-06-02_15h46.18.397,Serial_Dependence_U,2023.2.3,Linux aarch64,60.01680470532965,,,,,,1369.3224000000953,328,2,1369.3225999999047,328,,,,1373.0925999999047,1373.5925,1372.5789000000955,1373.0920999999046,1370.3331999998093,1372.5785,1373.5925,1374.0914000000953,1374.0916999998092,1376.9230999999047,2412,1376.923799999714,5,1376.9355,2,14,74,17,1,1.2,0.7,Time
,,199905,001,女,20,2025-06-02_15h46.18.397,Serial_Dependence_U,2023.2.3,Linux aarch64,60.01680470532965,,,,,,1376.9364000000953,15,2,1376.9366999998092,15,,,,1380.5446999998094,1381.0331999998093,1380.033799999714,1380.5444000000955,1377.950299999714,1380.0331999998093,1381.0334000000953,1381.5330000000001,1381.5331999998093,1384.3691999998093,2773,1384.3696999998092,5,1384.379,2,15,75,21,1,1,0.3,Time
,,199905,001,女,20,2025-06-02_15h46.18.397,Serial_Dependence_U,2023.2.3,Linux aarch64,60.01680470532965,,,,,,1384.3796999998092,142,2,1384.3799000000954,142,,,,1388.4091999998093,1388.9081999998093,1387.8825999999046,1388.408799999714,1385.4005,1387.8820999999045,1388.908299999714,1389.409,1389.4091999998093,1394.2831999998093,1382,1394.284,3,1394.3016999998092,2,16,76,23,1,1.4,0.3,Time
,,199905,001,女,20,2025-06-02_15h46.18.397,Serial_Dependence_U,2023.2.3,Linux aarch64,60.01680470532965,,,,,,1394.3025,214,2,1394.302799999714,214,,,,1398.1071999998094,1398.6081999998094,1397.587,1398.106799999714,1395.3084000000954,1397.5865999999046,1398.6084000000953,1399.108799999714,1399.1089000000954,1401.1662999997138,1931,1401.1669000000954,5,1401.1820999999047,2,17,77,22,1,1.2,0.3,Time
,,199905,001,女,20,2025-06-02_15h46.18.397,Serial_Dependence_U,2023.2.3,Linux aarch64,60.01680470532965,,,,,,1401.1829000000953,87,2,1401.1835999999046,87,,,,1404.7679000000953,1405.266299999714,1404.2399000000953,1404.7670999999048,1402.1936999998093,1404.2394000000954,1405.266299999714,1405.7675,1405.7677999997138,1408.7810999999047,2306,1408.7815999999048,5,1408.791,2,18,78,16,1,1,0.7,Time
,,199905,001,女,20,2025-06-02_15h46.18.397,Serial_Dependence_U,2023.2.3,Linux aarch64,60.01680470532965,,,,,,1408.7915999999047,352,2,1408.7919000000954,352,,,,1412.2045999999048,1412.7091999998092,1411.6984000000955,1412.2041999998094,1409.8031999998093,1411.6979000000954,1412.709299999714,1413.2097999997138,1413.2104000000954,1415.5675,1850,1415.5682999997139,5,1415.586299999714,2,19,79,0,1,0.8,0.3,Time
,,199905,001,女,20,2025-06-02_15h46.18.397,Serial_Dependence_U,2023.2.3,Linux aarch64,60.01680470532965,,,,,,1415.5871999998092,32,2,1415.587799999714,32,,,,1419.7880999999047,1420.2915,1419.2716999998092,1419.7875999999046,1416.5940999999048,1419.2711999998094,1420.291799999714,1420.794299999714,1420.7945,1423.354,2020,1423.3544000000954,4,1423.3680999999046,2,20,80,4,1,1.6,0.3,Time
,,199905,001,女,20,2025-06-02_15h46.18.397,Serial_Dependence_U,2023.2.3,Linux aarch64,60.01680470532965,,,,,,1423.369,39,2,1423.3692999997138,39,,,,1426.9425,1427.4416999998093,1426.4205999999047,1426.942,1424.369799999714,1426.4200999999046,1427.4419000000953,1427.9420999999047,1427.9421999998092,1430.8995,2270,1430.9,5,1430.9099000000954,2,21,81,26,1,1,0.7,Time
,,199905,001,女,20,2025-06-02_15h46.18.397,Serial_Dependence_U,2023.2.3,Linux aarch64,60.01680470532965,,,,,,1430.9104000000955,117,2,1430.9106999998094,117,,,,1434.8775999999048,1435.374799999714,1434.3519000000954,1434.877,1431.912,1434.351299999714,1435.375,1435.8764000000954,1435.8765999999046,1438.2601999998092,2197,1438.2609000000955,5,1438.2725,2,22,82,28,1,1.4,0.7,Time
,,199905,001,女,20,2025-06-02_15h46.18.397,Serial_Dependence_U,2023.2.3,Linux aarch64,60.01680470532965,,,,,,1438.273299999714,63,2,1438.2735999999047,63,,,,1442.0520999999046,1442.5505999999048,1441.5330999999046,1442.0514000000953,1439.2824000000953,1441.5329000000954,1442.5506999998092,1443.0502999997138,1443.0505,1446.0870999999047,2466,1446.087799999714,5,1446.0986999998092,2,23,83,7,1,1.2,0.7,Time
,,199905,001,女,20,2025-06-02_15h46.18.397,Serial_Dependence_U,2023.2.3,Linux aarch64,60.01680470532965,,,,,,1446.0992999997138,82,2,1446.0995,82,,,,1449.686799999714,1450.1846999998093,1449.1700999999046,1449.6864000000953,1447.112,1449.1696999998094,1450.184799999714,1450.6846999998093,1450.684799999714,1453.5620000000001,2422,1453.562299999714,5,1453.571799999714,2,24,84,6,1,1,0.7,Time
,,199905,001,女,20,2025-06-02_15h46.18.397,Serial_Dependence_U,2023.2.3,Linux aarch64,60.01680470532965,,,,,,1453.5725,246,2,1453.5727999997139,246,,,,1457.3631999998092,1457.8590999999046,1456.8520999999046,1457.3626999998094,1454.5811999998093,1456.8515999999047,1457.8600000000001,1458.3594000000953,1458.3595,1461.6125,2813,1461.613,5,1461.6241999998092,2,25,85,12,1,1.2,0.3,Time
,,199905,001,女,20,2025-06-02_15h46.18.397,Serial_Dependence_U,2023.2.3,Linux aarch64,60.01680470532965,,,,,,1461.624799999714,29,2,1461.6250999999047,29,,,,1465.2490999999047,1465.7426999998092,1464.7299000000953,1465.2485999999046,1462.651299999714,1464.7294000000954,1465.7430999999046,1466.2425,1466.2430999999046,1469.2865,2657,1469.2866999998093,5,1469.2967999997138,2,26,86,1,1,1,0.3,Time
,,199905,001,女,20,2025-06-02_15h46.18.397,Serial_Dependence_U,2023.2.3,Linux aarch64,60.01680470532965,,,,,,1469.2975000000001,139,2,1469.2976999998093,139,,,,1473.4725,1473.9770999999046,1472.9669000000954,1473.4719000000953,1470.3019000000954,1472.9666999998092,1473.9771999998093,1474.4755,1474.475799999714,1477.8616999998094,2953,1477.8620999999046,5,1477.8716999998094,2,27,87,24,1,1.6,0.3,Time
,,199905,001,女,20,2025-06-02_15h46.18.397,Serial_Dependence_U,2023.2.3,Linux aarch64,60.01680470532965,,,,,,1477.872299999714,104,2,1477.8725999999047,104,,,,1481.872299999714,1482.3695999999047,1481.3555999999046,1481.8717999997139,1478.884799999714,1481.3551999998092,1482.3696999998092,1482.8684000000953,1482.8685999999047,1486.523,3267,1486.5235,5,1486.5375999999046,2,28,88,3,1,1.4,0.3,Time
,,199905,001,女,20,2025-06-02_15h46.18.397,Serial_Dependence_U,2023.2.3,Linux aarch64,60.01680470532965,,,,,,1486.5385,358,2,1486.5389000000953,358,,,,1490.3109000000954,1490.8095999999045,1489.7930999999046,1490.3105,1487.5350999999046,1489.7926999998092,1490.809799999714,1491.3095,1491.31,1494.337799999714,2481,1494.3382999997139,5,1494.3486999998092,2,29,89,27,1,1.2,0.7,Time
,,199905,001,女,20,2025-06-02_15h46.18.397,Serial_Dependence_U,2023.2.3,Linux aarch64,60.01680470532965,,,,,,1494.3492999997138,129,3,1536.5219000000955,129,s,42.11649999999986,,1540.6845999999045,1541.1785,1540.1756999998092,1540.6841999998094,1537.5261999998093,1540.175,1541.1787999997139,1541.6779000000954,1541.678299999714,1546.6405,2038,1546.641,4,1546.651299999714,3,0,90,29,1,1.6,0.7,Time
,,199905,001,女,20,2025-06-02_15h46.18.397,Serial_Dependence_U,2023.2.3,Linux aarch64,60.01680470532965,,,,,,1546.6519000000953,49,3,1546.6552999997139,49,,,,1550.6109000000954,1551.1031999998092,1550.1065,1550.6104000000953,1547.6525,1550.1059000000953,1551.103299999714,1551.6025,1551.6026999998094,1554.5326999998092,2415,1554.5331999998093,5,1554.5445,3,1,91,8,1,1.4,0.7,Time
,,199905,001,女,20,2025-06-02_15h46.18.397,Serial_Dependence_U,2023.2.3,Linux aarch64,60.01680470532965,,,,,,1554.545,137,3,1554.545299999714,137,,,,1558.7436999998092,1559.2476999998094,1558.2365,1558.7431999998093,1555.5540999999046,1558.2361999998093,1559.2479000000953,1559.7430999999046,1559.7434000000953,1564.1360999999047,3369,1564.1369000000955,5,1564.1564000000953,3,2,92,14,1,1.6,0.3,Time
,,199905,001,女,20,2025-06-02_15h46.18.397,Serial_Dependence_U,2023.2.3,Linux aarch64,60.01680470532965,,,,,,1564.1574000000953,184,3,1564.1579000000954,184,,,,1567.9696999998093,1568.4709000000953,1567.464,1567.969299999714,1565.1655,1567.4635,1568.471,1568.9685999999047,1568.9687999997138,1572.0075999999046,2522,1572.0081999998092,5,1572.0185000000001,3,3,93,22,1,1.2,0.3,Time
,,199905,001,女,20,2025-06-02_15h46.18.397,Serial_Dependence_U,2023.2.3,Linux aarch64,60.01680470532965,,,,,,1572.0190999999047,274,3,1572.0194000000954,274,,,,1576.0125999999048,1576.5105999999046,1575.5085,1576.0121999998094,1573.0259000000954,1575.5080999999047,1576.510799999714,1577.0112999997139,1577.0114000000954,1580.5580999999047,3148,1580.558799999714,5,1580.5751999998092,3,4,94,3,1,1.4,0.3,Time
,,199905,001,女,20,2025-06-02_15h46.18.397,Serial_Dependence_U,2023.2.3,Linux aarch64,60.01680470532965,,,,,,1580.5760999999047,103,3,1580.5765000000001,103,,,,1583.955,1584.4440999999047,1583.4361999998093,1583.9545999999048,1581.5839000000954,1583.4356999998092,1584.4442999997138,1584.9440999999047,1584.9441999998094,1588.2065,2692,1588.2069000000954,5,1588.218,3,5,95,5,1,0.8,0.7,Time
,,199905,001,女,20,2025-06-02_15h46.18.397,Serial_Dependence_U,2023.2.3,Linux aarch64,60.01680470532965,,,,,,1588.2185999999047,48,3,1588.2187999997138,48,,,,1592.220299999714,1592.7105999999046,1591.699,1592.2197999997138,1589.2291999998092,1591.6987999997139,1592.7106999998093,1593.2105999999046,1593.210799999714,1596.714799999714,2292,1596.7152999997138,5,1596.725799999714,3,6,96,13,1,1.4,0.3,Time
,,199905,001,女,20,2025-06-02_15h46.18.397,Serial_Dependence_U,2023.2.3,Linux aarch64,60.01680470532965,,,,,,1596.7265,319,3,1596.7266999998092,319,,,,1600.4816999998093,1600.9774000000955,1599.972,1600.4811999998092,1597.7305999999046,1599.971299999714,1600.9775,1601.4776999998094,1601.4779000000954,1604.411299999714,2353,1604.412299999714,5,1604.4235,3,7,97,27,1,1.2,0.7,Time
,,199905,001,女,20,2025-06-02_15h46.18.397,Serial_Dependence_U,2023.2.3,Linux aarch64,60.01680470532965,,,,,,1604.4242999997139,345,3,1604.4245,345,,,,1608.239299999714,1608.736,1607.7191999998092,1608.2389000000953,1605.43,1607.7186999998094,1608.7360999999046,1609.2371999998093,1609.2376999998094,1612.5055,2762,1612.506299999714,5,1612.517,3,8,98,12,1,1.2,0.3,Time
,,199905,001,女,20,2025-06-02_15h46.18.397,Serial_Dependence_U,2023.2.3,Linux aarch64,60.01680470532965,,,,,,1612.5176999998093,98,3,1612.5180999999047,98,,,,1615.916799999714,1616.4215999999046,1615.4060999999047,1615.9164000000953,1613.539799999714,1615.4056999998093,1616.4216999998093,1616.9190999999046,1616.919299999714,1619.0177999997138,1668,1619.0185999999046,5,1619.0349000000954,3,9,99,25,1,0.8,0.7,Time
,,199905,001,女,20,2025-06-02_15h46.18.397,Serial_Dependence_U,2023.2.3,Linux aarch64,60.01680470532965,,,,,,1619.0356999998094,40,3,1619.0361999998092,40,,,,1622.4265999999047,1622.919299999714,1621.9225000000001,1622.4261999998093,1620.0435,1621.9220999999047,1622.9194000000955,1623.4191999998093,1623.4194000000955,1626.357799999714,2474,1626.358,5,1626.3585999999048,3,10,100,0,1,0.8,0.3,Time
,,199905,001,女,20,2025-06-02_15h46.18.397,Serial_Dependence_U,2023.2.3,Linux aarch64,60.01680470532965,,,,,,1626.3591999998093,187,3,1626.3594000000953,187,,,,1630.548799999714,1631.0534000000953,1630.0425999999047,1630.5484000000954,1627.3715,1630.0422999997138,1631.0535,1631.5536999998094,1631.5537999997139,1635.44,3330,1635.4406999998093,5,1635.4605,3,11,101,4,1,1.6,0.3,Time
,,199905,001,女,20,2025-06-02_15h46.18.397,Serial_Dependence_U,2023.2.3,Linux aarch64,60.01680470532965,,,,,,1635.4615000000001,286,3,1635.4619000000953,286,,,,1639.445799999714,1639.9361999998093,1638.9279000000954,1639.4454000000953,1636.4690999999048,1638.9274000000953,1639.9362999997138,1640.4366999998092,1640.4369000000954,1643.8586999998092,2961,1643.8592999997138,5,1643.8700999999046,3,12,102,28,1,1.4,0.7,Time
,,199905,001,女,20,2025-06-02_15h46.18.397,Serial_Dependence_U,2023.2.3,Linux aarch64,60.01680470532965,,,,,,1643.8706999998092,107,3,1643.8709000000954,107,,,,1647.4724000000954,1647.9699000000953,1646.9579000000954,1647.472,1644.884299999714,1646.9575,1647.97,1648.470299999714,1648.4704000000954,1651.4259000000955,2485,1651.4262999997138,5,1651.4369000000954,3,13,103,11,1,1,0.3,Time
,,199905,001,女,20,2025-06-02_15h46.18.397,Serial_Dependence_U,2023.2.3,Linux aarch64,60.01680470532965,,,,,,1651.4375,195,3,1651.4376999998092,195,,,,1655.038299999714,1655.537,1654.5160999999046,1655.037799999714,1652.4436999998093,1654.5155,1655.5370999999047,1656.0367999997138,1656.037299999714,1659.086299999714,2569,1659.0865999999046,5,1659.0971999998094,3,14,104,1,1,1,0.3,Time
,,199905,001,女,20,2025-06-02_15h46.18.397,Serial_Dependence_U,2023.2.3,Linux aarch64,60.01680470532965,,,,,,1659.0979000000955,243,3,1659.0980999999047,243,,,,1663.268299999714,1663.7615,1662.7525999999048,1663.2677999997138,1660.1027999997139,1662.7520999999047,1663.7615,1664.261799999714,1664.262,1667.7359000000954,2851,1667.736299999714,5,1667.7460999999046,3,15,105,19,1,1.6,0.7,Time
,,199905,001,女,20,2025-06-02_15h46.18.397,Serial_Dependence_U,2023.2.3,Linux aarch64,60.01680470532965,,,,,,1667.7465999999047,89,3,1667.7469000000954,89,,,,1671.528,1672.0284000000954,1671.023299999714,1671.5274000000954,1668.7605,1671.022799999714,1672.0285000000001,1672.5286999998093,1672.5289000000953,1676.0095000000001,2953,1676.01,5,1676.0239000000954,3,16,106,7,1,1.2,0.7,Time
,,199905,001,女,20,2025-06-02_15h46.18.397,Serial_Dependence_U,2023.2.3,Linux aarch64,60.01680470532965,,,,,,1676.0245,158,3,1676.0246999998092,158,,,,1679.5944000000954,1680.0865999999046,1679.0730999999046,1679.5939000000953,1677.0250999999046,1679.0726999998092,1680.086799999714,1680.5869000000953,1680.587,1683.6424000000954,2492,1683.6429000000953,5,1683.653799999714,3,17,107,6,1,1,0.7,Time
,,199905,001,女,20,2025-06-02_15h46.18.397,Serial_Dependence_U,2023.2.3,Linux aarch64,60.01680470532965,,,,,,1683.6545,58,3,1683.6546999998093,58,,,,1687.082299999714,1687.5799000000954,1686.5655999999046,1687.0819000000954,1684.675799999714,1686.5651999998092,1687.5800999999046,1688.0784000000954,1688.0786999998093,1690.8485999999048,2535,1690.8490999999046,5,1690.8592999997138,3,18,108,20,1,0.8,0.3,Time
,,199905,001,女,20,2025-06-02_15h46.18.397,Serial_Dependence_U,2023.2.3,Linux aarch64,60.01680470532965,,,,,,1690.8600000000001,130,3,1690.860299999714,130,,,,1694.4687999997138,1694.9705000000001,1693.9515000000001,1694.4684000000955,1691.865,1693.9510999999047,1694.9706999998093,1695.4709000000953,1695.4711999998092,1698.8129000000954,2517,1698.8134000000955,5,1698.8255,3,19,109,21,1,1,0.3,Time
,,199905,001,女,20,2025-06-02_15h46.18.397,Serial_Dependence_U,2023.2.3,Linux aarch64,60.01680470532965,,,,,,1698.8260999999047,294,3,1698.8264000000954,294,,,,1702.8131999998093,1703.3035,1702.2901999998094,1702.812799999714,1699.8404000000953,1702.2896999998093,1703.3037999997139,1703.804,1703.8047999997139,1706.4991999998092,2159,1706.4999000000953,5,1706.51,3,20,110,18,1,1.4,0.7,Time
,,199905,001,女,20,2025-06-02_15h46.18.397,Serial_Dependence_U,2023.2.3,Linux aarch64,60.01680470532965,,,,,,1706.5106999998093,203,3,1706.5109000000955,203,,,,1710.522799999714,1711.0129000000954,1710.0122999997138,1710.5222999997138,1707.519299999714,1710.0119000000955,1711.0130999999046,1711.5121999998094,1711.5122999997138,1715.2069000000954,3204,1715.207299999714,5,1715.2240999999046,3,21,111,23,1,1.4,0.3,Time
,,199905,001,女,20,2025-06-02_15h46.18.397,Serial_Dependence_U,2023.2.3,Linux aarch64,60.01680470532965,,,,,,1715.225,317,3,1715.225299999714,317,,,,1719.3909000000954,1719.8875,1718.8820999999045,1719.3904000000955,1716.2385,1718.8815999999047,1719.8876999998092,1720.3872999997138,1720.3874000000953,1724.131,3256,1724.1317999997138,5,1724.1481999998093,3,22,112,9,1,1.6,0.7,Time
,,199905,001,女,20,2025-06-02_15h46.18.397,Serial_Dependence_U,2023.2.3,Linux aarch64,60.01680470532965,,,,,,1724.1490000000001,150,3,1724.149299999714,150,,,,1727.716299999714,1728.2229000000955,1727.1946999998092,1727.7159000000954,1725.155,1727.1940999999047,1728.223,1728.7209000000953,1728.7211999998092,1731.296299999714,2082,1731.2966999998093,5,1731.3086999998093,3,23,113,26,1,1,0.7,Time
,,199905,001,女,20,2025-06-02_15h46.18.397,Serial_Dependence_U,2023.2.3,Linux aarch64,60.01680470532965,,,,,,1731.3092999997139,6,3,1731.3095999999045,6,,,,1734.885799999714,1735.3790999999046,1734.3737999997138,1734.8852999997139,1732.3285,1734.373299999714,1735.379299999714,1735.8801999998093,1735.8804000000953,1736.3171999998092,1,1736.3175999999046,1,1736.3284000000954,3,24,114,16,1,1,0.7,Time
,,199905,001,女,20,2025-06-02_15h46.18.397,Serial_Dependence_U,2023.2.3,Linux aarch64,60.01680470532965,,,,,,1736.329,340,3,1736.3291999998094,340,,,,1739.7421999998094,1740.2367999997139,1739.2365,1739.7416999998093,1737.3409000000954,1739.2360999999046,1740.237,1740.7365999999047,1740.7366999998094,1745.367,2939,1745.3674000000954,5,1745.3780999999046,3,25,115,10,1,0.8,0.3,Time
,,199905,001,女,20,2025-06-02_15h46.18.397,Serial_Dependence_U,2023.2.3,Linux aarch64,60.01680470532965,,,,,,1745.3786999998092,342,3,1745.3789000000954,342,,,,1748.7459000000954,1749.248299999714,1748.239799999714,1748.7455999999047,1746.3955,1748.2391999998092,1749.2485999999046,1749.7460999999046,1749.7465999999047,1752.880299999714,2716,1752.8809000000954,5,1752.8925999999046,3,26,116,15,1,0.8,0.7,Time
,,199905,001,女,20,2025-06-02_15h46.18.397,Serial_Dependence_U,2023.2.3,Linux aarch64,60.01680470532965,,,,,,1752.8931999998092,155,3,1752.8935000000001,155,,,,1756.6989000000954,1757.1970000000001,1756.191299999714,1756.6984000000955,1753.9069000000954,1756.1907999997138,1757.1971999998093,1757.6956999998092,1757.6956999998092,1761.0724000000953,2905,1761.073,5,1761.0837999997138,3,27,117,2,1,1.2,0.3,Time
,,199905,001,女,20,2025-06-02_15h46.18.397,Serial_Dependence_U,2023.2.3,Linux aarch64,60.01680470532965,,,,,,1761.0845,130,3,1761.0846999998093,130,,,,1764.851,1765.346,1764.3374000000954,1764.8505,1762.0936999998094,1764.3369000000953,1765.3460999999047,1765.8470999999047,1765.8472999997139,1769.0650999999048,2596,1769.0655999999046,5,1769.0759000000953,3,28,118,17,1,1.2,0.7,Time
,,199905,001,女,20,2025-06-02_15h46.18.397,Serial_Dependence_U,2023.2.3,Linux aarch64,60.01680470532965,,,,,,1769.0765000000001,15,3,1769.076799999714,15,,,,1773.2795,1773.7711999998094,1772.7694000000954,1773.2790999999047,1770.08,1772.769,1773.7715,1774.271799999714,1774.2720999999046,1777.1869000000954,2372,1777.1870999999046,5,1777.1965999999047,3,29,119,24,1,1.6,0.3,Time
,,199905,001,女,20,2025-06-02_15h46.18.397,Serial_Dependence_U,2023.2.3,Linux aarch64,60.01680470532965,,,,,,1777.197299999714,69,4,1805.725299999714,69,s,28.4718999996187,,1809.513,1810.0135999999047,1808.9975999999047,1809.5125999999048,1806.7245999999047,1808.9970999999045,1810.0136999998092,1810.5135,1810.513799999714,1813.3579000000955,2356,1813.3584000000953,5,1813.3685,4,0,120,22,1,1.2,0.3,Time
,,199905,001,女,20,2025-06-02_15h46.18.397,Serial_Dependence_U,2023.2.3,Linux aarch64,60.01680470532965,,,,,,1813.3691999998093,67,4,1813.372299999714,67,,,,1817.3709000000954,1817.863299999714,1816.855799999714,1817.3704000000953,1814.3807999997139,1816.855299999714,1817.8635999999046,1818.3635,1818.3637999997138,1821.8684000000953,3022,1821.8690999999046,5,1821.884799999714,4,1,121,3,1,1.4,0.3,Time
,,199905,001,女,20,2025-06-02_15h46.18.397,Serial_Dependence_U,2023.2.3,Linux aarch64,60.01680470532965,,,,,,1821.8856999998093,181,4,1821.8860999999047,181,,,,1825.2811999998094,1825.7722999997138,1824.758,1825.2806999998093,1822.9019000000953,1824.7574000000955,1825.7725,1826.2721999998093,1826.273,1829.1855,2444,1829.1860999999046,5,1829.1964000000953,4,2,122,25,1,0.8,0.7,Time
,,199905,001,女,20,2025-06-02_15h46.18.397,Serial_Dependence_U,2023.2.3,Linux aarch64,60.01680470532965,,,,,,1829.1970000000001,282,4,1829.197299999714,282,,,,1832.7560999999046,1833.2469000000954,1832.2484000000954,1832.7556999998094,1830.1986999998094,1832.248,1833.2470999999045,1833.7474000000955,1833.7475999999047,1836.3662999997139,2287,1836.3669000000955,5,1836.3776999998092,4,3,123,16,1,1,0.7,Time
,,199905,001,女,20,2025-06-02_15h46.18.397,Serial_Dependence_U,2023.2.3,Linux aarch64,60.01680470532965,,,,,,1836.3782999997138,197,4,1836.3785999999047,197,,,,1840.5480999999047,1841.0471999998092,1840.0315,1840.5479000000953,1837.3896999998092,1840.0312999997138,1841.0471999998092,1841.5466999998093,1841.5467999997138,1844.7339000000954,2766,1844.7342999997138,5,1844.744,4,4,124,19,1,1.6,0.7,Time
,,199905,001,女,20,2025-06-02_15h46.18.397,Serial_Dependence_U,2023.2.3,Linux aarch64,60.01680470532965,,,,,,1844.7445999999047,119,4,1844.744799999714,119,,,,1848.1750999999047,1848.6720999999047,1847.6540999999047,1848.1745999999046,1845.7655,1847.6536999998093,1848.672299999714,1849.1726999998093,1849.172799999714,1852.2606999998093,2690,1852.2612999997139,5,1852.271,4,5,125,0,1,0.8,0.3,Time
,,199905,001,女,20,2025-06-02_15h46.18.397,Serial_Dependence_U,2023.2.3,Linux aarch64,60.01680470532965,,,,,,1852.2715999999045,175,4,1852.272,175,,,,1856.4680999999046,1856.9581999998093,1855.948,1856.4675999999047,1853.278299999714,1855.9475999999047,1856.958299999714,1857.4560000000001,1857.4561999998093,1861.829,3260,1861.8295999999048,5,1861.8437999997138,4,6,126,24,1,1.6,0.3,Time
,,199905,001,女,20,2025-06-02_15h46.18.397,Serial_Dependence_U,2023.2.3,Linux aarch64,60.01680470532965,,,,,,1861.8445,272,4,1861.8447999997138,272,,,,1865.638799999714,1866.1315,1865.1339000000953,1865.6385,1862.8621999998093,1865.1335,1866.1315999999047,1866.6305,1866.6306999998094,1870.3265999999046,2715,1870.3271999998092,5,1870.3382999997139,4,7,127,12,1,1.2,0.3,Time
,,199905,001,女,20,2025-06-02_15h46.18.397,Serial_Dependence_U,2023.2.3,Linux aarch64,60.01680470532965,,,,,,1870.3389000000955,297,4,1870.3390999999046,297,,,,1873.9175999999047,1874.4060999999047,1873.4040999999047,1873.9171999998093,1871.352,1873.4035999999046,1874.4062999997138,1874.905799999714,1874.9060999999047,1878.2581999998092,2813,1878.2586999998093,5,1878.2694000000954,4,8,128,6,1,1,0.7,Time
,,199905,001,女,20,2025-06-02_15h46.18.397,Serial_Dependence_U,2023.2.3,Linux aarch64,60.01680470532965,,,,,,1878.2700999999047,291,4,1878.2702999997139,291,,,,1881.6670999999046,1882.1642999997139,1881.1564000000953,1881.6665,1879.290799999714,1881.1559000000955,1882.1644000000954,1882.6645999999046,1882.6650999999047,1885.1686999998092,2106,1885.1694000000955,5,1885.1801999998092,4,9,129,15,1,0.8,0.7,Time
,,199905,001,女,20,2025-06-02_15h46.18.397,Serial_Dependence_U,2023.2.3,Linux aarch64,60.01680470532965,,,,,,1885.1807999997138,70,4,1885.181,70,,,,1888.5565999999046,1889.0561999998092,1888.0437999997139,1888.5560999999047,1886.1836999998093,1888.042799999714,1889.056299999714,1889.557,1889.5571999998092,1892.1215,2143,1892.1219000000954,5,1892.1226999998094,4,10,130,5,1,0.8,0.7,Time
,,199905,001,女,20,2025-06-02_15h46.18.397,Serial_Dependence_U,2023.2.3,Linux aarch64,60.01680470532965,,,,,,1892.1235,294,4,1892.1237999997138,294,,,,1895.5205999999046,1896.0144000000953,1895.0112999997139,1895.5201999998094,1893.1407999997139,1895.0109000000955,1896.0145999999047,1896.5141999998093,1896.514299999714,1899.2945,2508,1899.2949000000954,5,1899.3060999999047,4,11,131,10,1,0.8,0.3,Time
,,199905,001,女,20,2025-06-02_15h46.18.397,Serial_Dependence_U,2023.2.3,Linux aarch64,60.01680470532965,,,,,,1899.3065999999046,225,4,1899.3067999997138,225,,,,1903.0811999998093,1903.5734000000955,1902.566299999714,1903.080799999714,1900.3124000000953,1902.5657999997138,1903.5735999999047,1904.076299999714,1904.0765000000001,1907.0685,2387,1907.069,5,1907.0800999999046,4,12,132,7,1,1.2,0.7,Time
,,199905,001,女,20,2025-06-02_15h46.18.397,Serial_Dependence_U,2023.2.3,Linux aarch64,60.01680470532965,,,,,,1907.0805999999047,69,4,1907.080799999714,69,,,,1911.0900999999046,1911.5896999998092,1910.5810999999046,1911.0895,1908.0881999998094,1910.5805999999047,1911.589799999714,1912.0900999999046,1912.0902999997138,1915.2971999998092,2790,1915.2976999998093,5,1915.3106999998092,4,13,133,13,1,1.4,0.3,Time
,,199905,001,女,20,2025-06-02_15h46.18.397,Serial_Dependence_U,2023.2.3,Linux aarch64,60.01680470532965,,,,,,1915.3112999997138,168,4,1915.3115999999047,168,,,,1919.2981999998092,1919.7984000000954,1918.7799000000955,1919.2976999998093,1916.3220999999046,1918.7795,1919.7985,1920.3012999997138,1920.3015,1924.0941999998092,3176,1924.0947999997138,5,1924.1109000000954,4,14,134,8,1,1.4,0.7,Time
,,199905,001,女,20,2025-06-02_15h46.18.397,Serial_Dependence_U,2023.2.3,Linux aarch64,60.01680470532965,,,,,,1924.1117999997139,242,4,1924.1121999998093,242,,,,1927.7160999999046,1928.2064000000953,1927.1870000000001,1927.7155,1925.128799999714,1927.1865,1928.2065999999047,1928.7085,1928.7090999999045,1932.8194000000954,2503,1932.82,5,1932.8305,4,15,135,26,1,1,0.7,Time
,,199905,001,女,20,2025-06-02_15h46.18.397,Serial_Dependence_U,2023.2.3,Linux aarch64,60.01680470532965,,,,,,1932.8311999998093,202,4,1932.8314000000953,202,,,,1937.0392999997139,1937.54,1936.5249000000954,1937.039,1933.854299999714,1936.5244000000953,1937.5400999999047,1938.0412999997138,1938.0415999999047,1942.5185999999046,2695,1942.519,5,1942.5296999998093,4,16,136,14,1,1.6,0.3,Time
,,199905,001,女,20,2025-06-02_15h46.18.397,Serial_Dependence_U,2023.2.3,Linux aarch64,60.01680470532965,,,,,,1942.5304000000954,102,4,1942.5306999998093,102,,,,1946.501,1946.9920999999047,1945.9731999998094,1946.5006999998093,1943.5330999999046,1945.9726999998093,1946.9922999997139,1947.4905,1947.4906999998093,1950.4017999997138,2570,1950.4021999998092,5,1950.412799999714,4,17,137,28,1,1.4,0.7,Time
,,199905,001,女,20,2025-06-02_15h46.18.397,Serial_Dependence_U,2023.2.3,Linux aarch64,60.01680470532965,,,,,,1950.413299999714,11,4,1950.4135999999046,11,,,,1954.0435999999047,1954.5419000000954,1953.5246999998092,1954.0430999999046,1951.4311999998092,1953.5240999999046,1954.542,1955.0420999999046,1955.0422999997138,1957.6780999999046,2170,1957.6787999997139,5,1957.689,4,18,138,21,1,1,0.3,Time
,,199905,001,女,20,2025-06-02_15h46.18.397,Serial_Dependence_U,2023.2.3,Linux aarch64,60.01680470532965,,,,,,1957.6895999999047,87,4,1957.6897999997138,87,,,,1961.4875,1961.9815999999046,1960.9845,1961.487,1958.695799999714,1960.984,1961.981799999714,1962.4851999998093,1962.4854000000953,1965.8914000000955,2907,1965.8917999997138,5,1965.901299999714,4,19,139,2,1,1.2,0.3,Time
,,199905,001,女,20,2025-06-02_15h46.18.397,Serial_Dependence_U,2023.2.3,Linux aarch64,60.01680470532965,,,,,,1965.9017999997138,306,4,1965.902,306,,,,1969.8704000000953,1970.3745999999046,1969.3489000000955,1969.8699000000954,1966.911,1969.3485,1970.3746999998093,1970.8745000000001,1970.8746999998093,1973.7329000000955,2456,1973.7331999998094,5,1973.7430999999046,4,20,140,18,1,1.4,0.7,Time
,,199905,001,女,20,2025-06-02_15h46.18.397,Serial_Dependence_U,2023.2.3,Linux aarch64,60.01680470532965,,,,,,1973.7436999998092,72,4,1973.7440999999046,72,,,,1977.3324000000953,1977.8335999999047,1976.8275,1977.332,1974.7576999998093,1976.827,1977.8335999999047,1978.3311999998093,1978.3315999999047,1982.1865,3747,1982.1869000000954,5,1982.1970999999046,4,21,141,11,1,1,0.3,Time
,,199905,001,女,20,2025-06-02_15h46.18.397,Serial_Dependence_U,2023.2.3,Linux aarch64,60.01680470532965,,,,,,1982.1975999999047,122,4,1982.1979000000954,122,,,,1986.2151999998093,1986.7075,1985.7006999998093,1986.2146999998092,1983.216299999714,1985.700299999714,1986.7075,1987.2071999998093,1987.2074000000953,1990.7475,1259,1990.748299999714,2,1990.7685000000001,4,22,142,23,1,1.4,0.3,Time
,,199905,001,女,20,2025-06-02_15h46.18.397,Serial_Dependence_U,2023.2.3,Linux aarch64,60.01680470532965,,,,,,1990.7695,336,4,1990.769799999714,336,,,,1994.9276999998092,1995.4156999998092,1994.4181999998093,1994.9270999999046,1991.7792999997139,1994.4176999998092,1995.415799999714,1995.9160999999046,1995.9162999997138,1998.773299999714,2422,1998.7735999999047,5,1998.7829000000954,4,23,143,29,1,1.6,0.7,Time
,,199905,001,女,20,2025-06-02_15h46.18.397,Serial_Dependence_U,2023.2.3,Linux aarch64,60.01680470532965,,,,,,1998.7835,354,4,1998.783799999714,354,,,,2002.1739000000953,2002.6746999998095,2001.6656999998092,2002.1734000000954,1999.7944000000955,2001.6650999999047,2002.6747999997137,2003.1746999998095,2003.1749000000955,2005.7619000000955,2137,2005.7622999997138,5,2005.7720999999046,4,24,144,20,1,0.8,0.3,Time
,,199905,001,女,20,2025-06-02_15h46.18.397,Serial_Dependence_U,2023.2.3,Linux aarch64,60.01680470532965,,,,,,2005.7726999998094,171,4,2005.7729000000954,171,,,,2009.9445,2010.4411999998092,2009.430299999714,2009.944,2006.7814000000953,2009.4297999997139,2010.441299999714,2010.9407999997138,2010.9409000000956,2014.5126999998092,3033,2014.5131999998093,5,2014.5314000000953,4,25,145,9,1,1.6,0.7,Time
,,199905,001,女,20,2025-06-02_15h46.18.397,Serial_Dependence_U,2023.2.3,Linux aarch64,60.01680470532965,,,,,,2014.5324000000955,239,4,2014.5329000000952,239,,,,2018.3079000000953,2018.8000000000002,2017.7925999999047,2018.307299999714,2015.5365999999049,2017.792299999714,2018.8000999999044,2019.2994000000954,2019.2995,2022.8710999999048,3089,2022.8717999997139,5,2022.8890999999048,4,26,146,17,1,1.2,0.7,Time
,,199905,001,女,20,2025-06-02_15h46.18.397,Serial_Dependence_U,2023.2.3,Linux aarch64,60.01680470532965,,,,,,2022.8899000000952,270,4,2022.8901999998093,270,,,,2026.5055999999045,2027.0007999997138,2025.9834999999998,2026.5050999999048,2023.897299999714,2025.9830000000002,2027.0007999997138,2027.5000999999047,2027.5005999999048,2031.6386999998094,3908,2031.6392999997138,5,2031.656299999714,4,27,147,1,1,1,0.3,Time
,,199905,001,女,20,2025-06-02_15h46.18.397,Serial_Dependence_U,2023.2.3,Linux aarch64,60.01680470532965,,,,,,2031.6570999999049,13,4,2031.6574000000955,13,,,,2035.8411999998093,2036.3416999998094,2035.3384000000956,2035.840799999714,2032.659,2035.3379000000955,2036.341799999714,2036.8410999999046,2036.8411999998093,2040.1485999999045,2869,2040.1490999999046,5,2040.1625,4,28,148,4,1,1.6,0.3,Time
,,199905,001,女,20,2025-06-02_15h46.18.397,Serial_Dependence_U,2023.2.3,Linux aarch64,60.01680470532965,,,,,,2040.1631999998094,288,4,2040.1634000000954,288,,,,2043.9410999999045,2044.4425999999048,2043.4317999997138,2043.9405999999049,2041.1761999998093,2043.4311999998095,2044.4427999997138,2044.9425999999048,2044.9427999997138,2048.3261999998094,2858,2048.327,5,2048.3391999998094,4,29,149,27,1,1.2,0.7,Time
,,199905,001,女,20,2025-06-02_15h46.18.397,Serial_Dependence_U,2023.2.3,Linux aarch64,60.01680470532965,,,,,,2048.3399000000954,58,5,2067.367299999714,58,s,18.9762000002861,,2070.934299999714,2071.433599999905,2070.4215999999046,2070.933599999905,2068.3765,2070.4210999999045,2071.4336999998095,2071.936099999905,2071.936299999714,2074.6184000000953,2225,2074.619099999905,5,2074.6290999999046,5,0,150,16,1,1,0.7,Time
,,199905,001,女,20,2025-06-02_15h46.18.397,Serial_Dependence_U,2023.2.3,Linux aarch64,60.01680470532965,,,,,,2074.629799999714,289,5,2074.633299999714,289,,,,2078.4215999999046,2078.916699999809,2077.9075999999045,2078.4210999999045,2075.635299999714,2077.907199999809,2078.916900000095,2079.418,2079.4184000000955,2082.9092999997138,3045,2082.91,5,2082.929699999809,5,1,151,12,1,1.2,0.3,Time
,,199905,001,女,20,2025-06-02_15h46.18.397,Serial_Dependence_U,2023.2.3,Linux aarch64,60.01680470532965,,,,,,2082.9312999997137,17,5,2082.9320000000002,17,,,,2086.551299999714,2087.0500999999044,2086.028199999809,2086.5506999998092,2083.9495,2086.027699999809,2087.050299999714,2087.5499000000955,2087.55,2090.630799999714,2645,2090.631299999714,5,2090.6421999998092,5,2,152,11,1,1,0.3,Time
,,199905,001,女,20,2025-06-02_15h46.18.397,Serial_Dependence_U,2023.2.3,Linux aarch64,60.01680470532965,,,,,,2090.642799999714,319,5,2090.6430999999047,319,,,,2094.6039000000956,2095.0925,2094.0961999998094,2094.6032999997137,2091.6554000000956,2094.0956999998093,2095.092699999809,2095.592,2095.5925,2098.6965999999047,2210,2098.697099999905,5,2098.7081999998095,5,3,153,28,1,1.4,0.7,Time
,,199905,001,女,20,2025-06-02_15h46.18.397,Serial_Dependence_U,2023.2.3,Linux aarch64,60.01680470532965,,,,,,2098.708799999714,104,5,2098.709,104,,,,2102.115199999809,2102.617199999809,2101.6029000000954,2102.114799999714,2099.715199999809,2101.6025,2102.617299999714,2103.1170999999044,2103.117299999714,2106.579299999714,2829,2106.5796999998092,5,2106.5890999999046,5,4,154,0,1,0.8,0.3,Time
,,199905,001,女,20,2025-06-02_15h46.18.397,Serial_Dependence_U,2023.2.3,Linux aarch64,60.01680470532965,,,,,,2106.5896999998095,67,5,2106.5899000000954,67,,,,2110.1799000000956,2110.6685999999045,2109.6725,2110.1791999998095,2107.6015999999045,2109.672299999714,2110.668699999809,2111.166900000095,2111.167,2114.0389000000955,2397,2114.039199999809,5,2114.049299999714,5,5,155,1,1,1,0.3,Time
,,199905,001,女,20,2025-06-02_15h46.18.397,Serial_Dependence_U,2023.2.3,Linux aarch64,60.01680470532965,,,,,,2114.0497999997137,236,5,2114.0500999999044,236,,,,2118.2154000000955,2118.708699999809,2117.7102999997137,2118.215,2115.0575999999046,2117.7099000000953,2118.708799999714,2119.2090999999045,2119.2091999998092,2122.995799999714,3259,2122.9961999998095,5,2123.010299999714,5,6,156,9,1,1.6,0.7,Time
,,199905,001,女,20,2025-06-02_15h46.18.397,Serial_Dependence_U,2023.2.3,Linux aarch64,60.01680470532965,,,,,,2123.0111999998094,289,5,2123.011599999905,289,,,,2126.8194000000954,2127.309,2126.2885,2126.8186999998093,2124.026799999714,2126.288,2127.309199999809,2127.809199999809,2127.809299999714,2130.360699999809,1926,2130.3610999999046,5,2130.3764000000956,5,7,157,7,1,1.2,0.7,Time
,,199905,001,女,20,2025-06-02_15h46.18.397,Serial_Dependence_U,2023.2.3,Linux aarch64,60.01680470532965,,,,,,2130.3775,240,5,2130.3779000000955,240,,,,2134.3999000000954,2134.893799999714,2133.8774000000953,2134.3994000000953,2131.3976999998094,2133.876799999714,2134.8939000000955,2135.3926999998093,2135.392799999714,2138.789,2823,2138.7896999998093,5,2138.8000999999044,5,8,158,3,1,1.4,0.3,Time
,,199905,001,女,20,2025-06-02_15h46.18.397,Serial_Dependence_U,2023.2.3,Linux aarch64,60.01680470532965,,,,,,2138.800799999714,97,5,2138.8010999999046,97,,,,2142.3751999998094,2142.8770999999047,2141.8614000000953,2142.3746999998093,2139.8135,2141.860799999714,2142.877299999714,2143.3759000000955,2143.3765,2146.8140999999046,2894,2146.8145999999047,5,2146.8256999998093,5,9,159,6,1,1,0.7,Time
,,199905,001,女,20,2025-06-02_15h46.18.397,Serial_Dependence_U,2023.2.3,Linux aarch64,60.01680470532965,,,,,,2146.826299999714,99,5,2146.826599999905,99,,,,2150.8335,2151.334,2150.3141999998093,2150.8331999998095,2147.8377999997138,2150.313799999714,2151.3340999999045,2151.8340999999045,2151.834299999714,2157.628699999809,2204,2157.6295,5,2157.64,5,10,160,23,1,1.4,0.3,Time
,,199905,001,女,20,2025-06-02_15h46.18.397,Serial_Dependence_U,2023.2.3,Linux aarch64,60.01680470532965,,,,,,2157.6405999999047,341,5,2157.6409000000954,341,,,,2161.042,2161.5429000000954,2160.521799999714,2161.0415,2158.6550999999045,2160.521299999714,2161.543,2162.043,2162.043099999905,2164.8835,2415,2164.8839000000953,5,2164.8930999999047,5,11,161,5,1,0.8,0.7,Time
,,199905,001,女,20,2025-06-02_15h46.18.397,Serial_Dependence_U,2023.2.3,Linux aarch64,60.01680470532965,,,,,,2164.893699999809,173,5,2164.893799999714,173,,,,2168.2819000000954,2168.7856999998094,2167.7785,2168.2815,2165.9014000000952,2167.7780999999045,2168.7856999998094,2169.2845,2169.284699999809,2179.949,1785,2179.949599999905,5,2179.9689000000953,5,12,162,10,1,0.8,0.3,Time
,,199905,001,女,20,2025-06-02_15h46.18.397,Serial_Dependence_U,2023.2.3,Linux aarch64,60.01680470532965,,,,,,2179.970400000095,171,5,2179.971,171,,,,2183.9435,2184.434799999714,2183.425,2183.943,2180.974799999714,2183.4245,2184.4349000000952,2184.935299999714,2184.9354000000953,2188.210599999905,2906,2188.2109000000955,5,2188.220799999714,5,13,163,8,1,1.4,0.7,Time
,,199905,001,女,20,2025-06-02_15h46.18.397,Serial_Dependence_U,2023.2.3,Linux aarch64,60.01680470532965,,,,,,2188.2215,202,5,2188.221699999809,202,,,,2191.6026999998094,2192.093,2191.0815999999045,2191.6021999998093,2189.231799999714,2191.081199999809,2192.0930999999046,2192.594799999714,2192.595,2195.6885,2658,2195.689,5,2195.6994000000955,5,14,164,15,1,0.8,0.7,Time
,,199905,001,女,20,2025-06-02_15h46.18.397,Serial_Dependence_U,2023.2.3,Linux aarch64,60.01680470532965,,,,,,2195.7,283,5,2195.7001999998092,283,,,,2199.508799999714,2200.010299999714,2198.989,2199.508299999714,2196.7085,2198.9886999998093,2200.010400000095,2200.510400000095,2200.5109000000953,2204.9815999999046,2249,2204.982,5,2204.9931999998093,5,15,165,22,1,1.2,0.3,Time
,,199905,001,女,20,2025-06-02_15h46.18.397,Serial_Dependence_U,2023.2.3,Linux aarch64,60.01680470532965,,,,,,2204.9937999997137,57,5,2204.994099999905,57,,,,2209.168799999714,2209.6709000000956,2208.6611999998095,2209.168299999714,2206.006799999714,2208.660799999714,2209.6710999999045,2210.1685999999045,2210.1691999998093,2213.2605999999046,2609,2213.2611999998094,5,2213.273099999905,5,16,166,19,1,1.6,0.7,Time
,,199905,001,女,20,2025-06-02_15h46.18.397,Serial_Dependence_U,2023.2.3,Linux aarch64,60.01680470532965,,,,,,2213.273799999714,205,5,2213.2740999999046,205,,,,2217.4705999999046,2217.9604000000954,2216.9506999998093,2217.4700999999045,2214.2814000000953,2216.950299999714,2217.9605,2218.4602999997137,2218.4605,2221.9065,2923,2221.9069000000954,5,2221.917299999714,5,17,167,14,1,1.6,0.3,Time
,,199905,001,女,20,2025-06-02_15h46.18.397,Serial_Dependence_U,2023.2.3,Linux aarch64,60.01680470532965,,,,,,2221.9179000000954,62,5,2221.918199999809,62,,,,2225.471299999714,2225.9600999999047,2224.9626999998095,2225.471,2222.9215999999046,2224.9624000000954,2225.9602999997137,2226.4600999999047,2226.4601999998094,2229.9889000000953,3011,2229.9891999998094,5,2229.999400000095,5,18,168,26,1,1,0.7,Time
,,199905,001,女,20,2025-06-02_15h46.18.397,Serial_Dependence_U,2023.2.3,Linux aarch64,60.01680470532965,,,,,,2230.0000999999047,342,5,2230.000299999714,342,,,,2234.2146999998095,2234.7102999997137,2233.6975,2234.2141999998094,2231.0254000000955,2233.697,2234.7104000000954,2235.2100999999047,2235.2102999997137,2238.2566999998094,2057,2238.2572999997137,4,2238.2680999999047,5,19,169,4,1,1.6,0.3,Time
,,199905,001,女,20,2025-06-02_15h46.18.397,Serial_Dependence_U,2023.2.3,Linux aarch64,60.01680470532965,,,,,,2238.268799999714,202,5,2238.2690999999045,202,,,,2241.860099999905,2242.353599999905,2241.351799999714,2241.8595,2239.269400000095,2241.351199999809,2242.353699999809,2242.8526999998094,2242.8529000000954,2246.3461999998094,3027,2246.346699999809,5,2246.3655999999046,5,20,170,21,1,1,0.3,Time
,,199905,001,女,20,2025-06-02_15h46.18.397,Serial_Dependence_U,2023.2.3,Linux aarch64,60.01680470532965,,,,,,2246.3666999998095,345,5,2246.367,345,,,,2249.739699999809,2250.2355000000002,2249.2281999998095,2249.7391999998094,2247.378900000095,2249.227799999714,2250.2355999999045,2250.7354000000955,2250.7355000000002,2253.7860999999048,2864,2253.7864000000955,5,2253.796299999714,5,21,171,25,1,0.8,0.7,Time
,,199905,001,女,20,2025-06-02_15h46.18.397,Serial_Dependence_U,2023.2.3,Linux aarch64,60.01680470532965,,,,,,2253.7970999999047,35,5,2253.7974000000954,35,,,,2257.192,2257.686799999714,2256.679099999905,2257.191400000095,2254.801299999714,2256.6786999998094,2257.687,2258.186199999809,2258.186799999714,2266.398099999905,2235,2266.3985999999045,5,2266.409099999905,5,22,172,20,1,0.8,0.3,Time
,,199905,001,女,20,2025-06-02_15h46.18.397,Serial_Dependence_U,2023.2.3,Linux aarch64,60.01680470532965,,,,,,2266.41,261,5,2266.4104000000953,261,,,,2270.646,2271.1451999998094,2270.12,2270.6456999998095,2267.422,2270.1194000000955,2271.145299999714,2271.6449000000953,2271.645,2275.9962999997138,3810,2275.997,5,2276.014,5,23,173,24,1,1.6,0.3,Time
,,199905,001,女,20,2025-06-02_15h46.18.397,Serial_Dependence_U,2023.2.3,Linux aarch64,60.01680470532965,,,,,,2276.014900000095,13,5,2276.0151999998093,13,,,,2279.8442999997137,2280.3444000000954,2279.316799999714,2279.843799999714,2277.0360999999048,2279.316400000095,2280.3445,2280.844599999905,2280.844799999714,2284.2014000000954,2697,2284.201799999714,5,2284.215699999809,5,24,174,2,1,1.2,0.3,Time
,,199905,001,女,20,2025-06-02_15h46.18.397,Serial_Dependence_U,2023.2.3,Linux aarch64,60.01680470532965,,,,,,2284.216299999714,152,5,2284.2165999999047,152,,,,2288.2215,2288.7194000000954,2287.7116999998093,2288.2209000000953,2285.2205999999046,2287.711199999809,2288.7195,2289.219799999714,2289.22,2298.148699999809,2442,2298.1491999998093,5,2298.160299999714,5,25,175,13,1,1.4,0.3,Time
,,199905,001,女,20,2025-06-02_15h46.18.397,Serial_Dependence_U,2023.2.3,Linux aarch64,60.01680470532965,,,,,,2298.161,176,5,2298.1611999998095,176,,,,2301.9376999998094,2302.427799999714,2301.427099999905,2301.9371999998093,2299.167799999714,2301.4266999998094,2302.427900000095,2302.9289000000954,2302.929,2306.1820999999045,2924,2306.1826999998093,5,2306.194,5,26,176,17,1,1.2,0.7,Time
,,199905,001,女,20,2025-06-02_15h46.18.397,Serial_Dependence_U,2023.2.3,Linux aarch64,60.01680470532965,,,,,,2306.1946999998095,66,5,2306.1949000000955,66,,,,2310.166,2310.6701999998095,2309.657900000095,2310.1655999999048,2307.2082999997137,2309.6575,2310.6704000000955,2311.1696999998094,2311.1699000000954,2314.9015,3240,2314.9020999999047,5,2314.9205,5,27,177,18,1,1.4,0.7,Time
,,199905,001,女,20,2025-06-02_15h46.18.397,Serial_Dependence_U,2023.2.3,Linux aarch64,60.01680470532965,,,,,,2314.9216999998093,276,5,2314.9220999999047,276,,,,2319.0922999997138,2319.5964000000954,2318.5710999999046,2319.0919000000954,2315.922,2318.570699999809,2319.5965,2320.094599999905,2320.095199999809,2327.2796999998095,3297,2327.2804000000956,5,2327.3039000000954,5,28,178,29,1,1.6,0.7,Time
,,199905,001,女,20,2025-06-02_15h46.18.397,Serial_Dependence_U,2023.2.3,Linux aarch64,60.01680470532965,,,,,,2327.3051999998092,202,5,2327.3055999999046,202,,,,2331.0765,2331.57,2330.566799999714,2331.0761999998094,2328.322900000095,2330.5665,2331.570099999905,2332.07,2332.070199999809,2335.6246999998093,2720,2335.6255,5,2335.637199999809,5,29,179,27,1,1.2,0.7,Time
,,199905,001,女,20,2025-06-02_15h46.18.397,Serial_Dependence_U,2023.2.3,Linux aarch64,60.01680470532965,,,,,,2335.6376999998092,131,6,2387.973299999714,131,s,52.27920000028644,,2391.9365999999045,2392.4295999999044,2391.4235,2391.936299999714,2388.978,2391.4230000000002,2392.429699999809,2392.9294000000955,2392.929699999809,2395.817699999809,2829,2395.8180999999045,5,2395.827400000095,6,0,180,18,1,1.4,0.7,Time
,,199905,001,女,20,2025-06-02_15h46.18.397,Serial_Dependence_U,2023.2.3,Linux aarch64,60.01680470532965,,,,,,2395.8280999999047,215,6,2395.8309000000954,215,,,,2399.5890999999046,2400.0891999998094,2399.0821999998093,2399.588799999714,2396.8349000000953,2399.081799999714,2400.089299999714,2400.587599999905,2400.5877999997138,2404.025799999714,3063,2404.0264000000952,5,2404.0449000000954,6,1,181,27,1,1.2,0.7,Time
,,199905,001,女,20,2025-06-02_15h46.18.397,Serial_Dependence_U,2023.2.3,Linux aarch64,60.01680470532965,,,,,,2404.0455999999044,331,6,2404.046,331,,,,2408.2797999997138,2408.7707999997137,2407.7624000000956,2408.279299999714,2405.065699999809,2407.762,2408.7709000000955,2409.2715,2409.2716999998092,2413.279,3472,2413.2796999998095,5,2413.2954000000955,6,2,182,24,1,1.6,0.3,Time
,,199905,001,女,20,2025-06-02_15h46.18.397,Serial_Dependence_U,2023.2.3,Linux aarch64,60.01680470532965,,,,,,2413.296299999714,242,6,2413.2966999998093,242,,,,2417.3171999998094,2417.8225999999045,2416.802900000095,2417.3166999998093,2414.320299999714,2416.8024000000955,2417.822799999714,2418.323,2418.3231999998093,2419.226299999714,354,2419.226799999714,1,2419.237099999905,6,3,183,23,1,1.4,0.3,Time
,,199905,001,女,20,2025-06-02_15h46.18.397,Serial_Dependence_U,2023.2.3,Linux aarch64,60.01680470532965,,,,,,2419.237699999809,164,6,2419.238,164,,,,2423.041900000095,2423.5385,2422.523299999714,2423.0415,2420.251299999714,2422.523,2423.538599999905,2424.039299999714,2424.0399000000953,2428.668900000095,4114,2428.6694000000953,5,2428.6805,6,4,184,22,1,1.2,0.3,Time
,,199905,001,女,20,2025-06-02_15h46.18.397,Serial_Dependence_U,2023.2.3,Linux aarch64,60.01680470532965,,,,,,2428.6810999999047,174,6,2428.6814000000954,174,,,,2432.6735,2433.174299999714,2432.1635,2432.6730999999045,2429.680299999714,2432.1630999999047,2433.1745,2433.671299999714,2433.6715,2437.969699999809,3083,2437.9705,5,2437.9880999999045,6,5,185,13,1,1.4,0.3,Time
,,199905,001,女,20,2025-06-02_15h46.18.397,Serial_Dependence_U,2023.2.3,Linux aarch64,60.01680470532965,,,,,,2437.989,181,6,2437.9892999997137,181,,,,2441.568199999809,2442.0715,2441.057199999809,2441.567699999809,2439.0045,2441.056799999714,2442.0715999999047,2442.572699999809,2442.572900000095,2445.7594000000954,1874,2445.760299999714,5,2445.777799999714,6,6,186,26,1,1,0.7,Time
,,199905,001,女,20,2025-06-02_15h46.18.397,Serial_Dependence_U,2023.2.3,Linux aarch64,60.01680470532965,,,,,,2445.7789000000953,290,6,2445.779299999714,290,,,,2449.9474000000955,2450.438199999809,2449.4394000000952,2449.947,2446.7905,2449.4389000000956,2450.4384000000955,2450.9405,2450.940699999809,2454.7270999999046,2678,2454.7276999998094,5,2454.737699999809,6,7,187,19,1,1.6,0.7,Time
,,199905,001,女,20,2025-06-02_15h46.18.397,Serial_Dependence_U,2023.2.3,Linux aarch64,60.01680470532965,,,,,,2454.738299999714,230,6,2454.7385999999046,230,,,,2458.126299999714,2458.6225999999047,2457.6105000000002,2458.1257999997138,2455.7619000000955,2457.6099000000954,2458.6225999999047,2459.1215999999044,2459.121699999809,2461.644199999809,1954,2461.6449000000953,5,2461.6625999999046,6,8,188,5,1,0.8,0.7,Time
,,199905,001,女,20,2025-06-02_15h46.18.397,Serial_Dependence_U,2023.2.3,Linux aarch64,60.01680470532965,,,,,,2461.663699999809,50,6,2461.664299999714,50,,,,2465.075799999714,2465.5649000000953,2464.5555,2465.075299999714,2462.668299999714,2464.5550999999045,2465.5651999998095,2466.0645999999047,2466.0646999998094,2468.7089000000956,2129,2468.709299999714,5,2468.718799999714,6,9,189,10,1,0.8,0.3,Time
,,199905,001,女,20,2025-06-02_15h46.18.397,Serial_Dependence_U,2023.2.3,Linux aarch64,60.01680470532965,,,,,,2468.7195,24,6,2468.719799999714,24,,,,2472.518799999714,2473.0135999999047,2472.0070999999048,2472.5182999997137,2469.726699999809,2472.0066999998094,2473.0136999998094,2473.514299999714,2473.514900000095,2476.9040999999047,2939,2476.905,5,2476.9146999998093,6,10,190,12,1,1.2,0.3,Time
,,199905,001,女,20,2025-06-02_15h46.18.397,Serial_Dependence_U,2023.2.3,Linux aarch64,60.01680470532965,,,,,,2476.915299999714,96,6,2476.9155,96,,,,2480.488799999714,2480.9800999999047,2479.9855000000002,2480.488400000095,2477.9145999999046,2479.985,2480.980299999714,2481.4801999998094,2481.4804000000954,2485.365299999714,3351,2485.3660999999047,5,2485.3860999999047,6,11,191,21,1,1,0.3,Time
,,199905,001,女,20,2025-06-02_15h46.18.397,Serial_Dependence_U,2023.2.3,Linux aarch64,60.01680470532965,,,,,,2485.387,257,6,2485.387299999714,257,,,,2489.5554000000952,2490.050299999714,2489.0496999998095,2489.555,2486.391799999714,2489.0491999998094,2490.0504000000956,2490.5466999998093,2490.546799999714,2494.177699999809,3224,2494.1781999998093,5,2494.1965999999047,6,12,192,9,1,1.6,0.7,Time
,,199905,001,女,20,2025-06-02_15h46.18.397,Serial_Dependence_U,2023.2.3,Linux aarch64,60.01680470532965,,,,,,2494.1975999999045,145,6,2494.1980999999046,145,,,,2497.9695,2498.4655,2497.4555999999047,2497.9691999998095,2495.2110999999045,2497.4551999998093,2498.4655999999045,2498.9639000000952,2498.9640999999046,2502.4210999999045,3049,2502.4215999999046,5,2502.4391999998093,6,13,193,7,1,1.2,0.7,Time
,,199905,001,女,20,2025-06-02_15h46.18.397,Serial_Dependence_U,2023.2.3,Linux aarch64,60.01680470532965,,,,,,2502.4404000000955,200,6,2502.440799999714,200,,,,2506.650699999809,2507.147,2506.1395,2506.6501999998095,2503.456799999714,2506.139099999905,2507.1470999999046,2507.6509000000956,2507.6511999998093,2510.9781999998095,2896,2510.9785,5,2510.987699999809,6,14,194,4,1,1.6,0.3,Time
,,199905,001,女,20,2025-06-02_15h46.18.397,Serial_Dependence_U,2023.2.3,Linux aarch64,60.01680470532965,,,,,,2510.988299999714,302,6,2510.9885999999046,302,,,,2514.5504000000956,2515.047799999714,2514.038699999809,2514.55,2511.998599999905,2514.038299999714,2515.0479000000955,2515.5496999998095,2515.5497999997137,2518.2104000000954,1859,2518.2110000000002,5,2518.226299999714,6,15,195,16,1,1,0.7,Time
,,199905,001,女,20,2025-06-02_15h46.18.397,Serial_Dependence_U,2023.2.3,Linux aarch64,60.01680470532965,,,,,,2518.227299999714,142,6,2518.2276999998094,142,,,,2522.2009000000953,2522.6992999997137,2521.677799999714,2522.2005,2519.237699999809,2521.6774000000955,2522.6994000000955,2523.1986999998094,2523.199099999905,2526.7701999998094,3049,2526.7706999998095,5,2526.7905,6,16,196,8,1,1.4,0.7,Time
,,199905,001,女,20,2025-06-02_15h46.18.397,Serial_Dependence_U,2023.2.3,Linux aarch64,60.01680470532965,,,,,,2526.7914000000956,12,6,2526.7921999998093,12,,,,2530.3960999999044,2530.8894000000955,2529.880099999905,2530.3955,2527.808299999714,2529.8795,2530.889699999809,2531.3901999998093,2531.3904000000953,2535.0479000000955,3129,2535.048299999714,5,2535.0621999998093,6,17,197,1,1,1,0.3,Time
,,199905,001,女,20,2025-06-02_15h46.18.397,Serial_Dependence_U,2023.2.3,Linux aarch64,60.01680470532965,,,,,,2535.063,343,6,2535.0634000000955,343,,,,2539.053299999714,2539.5562999997137,2538.528799999714,2539.052799999714,2536.079799999714,2538.528400000095,2539.5562999997137,2540.0565,2540.056699999809,2542.7426999998092,2266,2542.7429000000952,5,2542.7525,6,18,198,28,1,1.4,0.7,Time
,,199905,001,女,20,2025-06-02_15h46.18.397,Serial_Dependence_U,2023.2.3,Linux aarch64,60.01680470532965,,,,,,2542.753099999905,85,6,2542.753299999714,85,,,,2546.322099999905,2546.822299999714,2545.8135999999045,2546.3215999999047,2543.7700999999047,2545.813099999905,2546.8224000000955,2547.324799999714,2547.325,2550.307199999809,2396,2550.3076999998093,5,2550.317599999905,6,19,199,6,1,1,0.7,Time
,,199905,001,女,20,2025-06-02_15h46.18.397,Serial_Dependence_U,2023.2.3,Linux aarch64,60.01680470532965,,,,,,2550.318199999809,341,6,2550.3185,341,,,,2554.2989000000953,2554.800799999714,2553.7960999999045,2554.298400000095,2551.3195999999048,2553.7954000000955,2554.800900000095,2555.2985999999046,2555.2986999998093,2558.848299999714,3055,2558.8487999997137,5,2558.864599999905,6,20,200,3,1,1.4,0.3,Time
,,199905,001,女,20,2025-06-02_15h46.18.397,Serial_Dependence_U,2023.2.3,Linux aarch64,60.01680470532965,,,,,,2558.8655,172,6,2558.865799999714,172,,,,2562.278,2562.773299999714,2561.733799999714,2562.277799999714,2559.871699999809,2561.7334000000956,2562.7735000000002,2563.277,2563.2770999999047,2565.8575,1998,2565.8580999999044,5,2565.8729000000953,6,21,201,25,1,0.8,0.7,Time
,,199905,001,女,20,2025-06-02_15h46.18.397,Serial_Dependence_U,2023.2.3,Linux aarch64,60.01680470532965,,,,,,2565.8739000000955,113,6,2565.874299999714,113,,,,2569.6405,2570.131799999714,2569.1284000000956,2569.639900000095,2566.8730999999048,2569.128,2570.1319000000954,2570.631799999714,2570.632,2573.4529000000953,2601,2573.453299999714,5,2573.463199999809,6,22,202,17,1,1.2,0.7,Time
,,199905,001,女,20,2025-06-02_15h46.18.397,Serial_Dependence_U,2023.2.3,Linux aarch64,60.01680470532965,,,,,,2573.464,5,6,2573.4641999998094,5,,,,2577.6195999999045,2578.123,2577.110199999809,2577.619199999809,2574.4655,2577.1096999998094,2578.1230999999048,2578.624400000095,2578.625,2582.3590999999046,3412,2582.3595999999047,5,2582.3769000000952,6,23,203,29,1,1.6,0.7,Time
,,199905,001,女,20,2025-06-02_15h46.18.397,Serial_Dependence_U,2023.2.3,Linux aarch64,60.01680470532965,,,,,,2582.3777999997137,265,6,2582.378099999905,265,,,,2586.178799999714,2586.6730999999045,2585.6704000000955,2586.1784000000953,2583.390799999714,2585.6699000000954,2586.673199999809,2587.1736999998093,2587.173799999714,2590.6735,3321,2590.6741999998094,5,2590.693799999714,6,24,204,2,1,1.2,0.3,Time
,,199905,001,女,20,2025-06-02_15h46.18.397,Serial_Dependence_U,2023.2.3,Linux aarch64,60.01680470532965,,,,,,2590.6947999997137,132,6,2590.695199999809,132,,,,2594.1006999998094,2594.590099999905,2593.5895999999047,2594.100299999714,2591.7145999999047,2593.5891999998094,2594.590199999809,2595.090799999714,2595.0910999999046,2598.27,2650,2598.2705,5,2598.280799999714,6,25,205,20,1,0.8,0.3,Time
,,199905,001,女,20,2025-06-02_15h46.18.397,Serial_Dependence_U,2023.2.3,Linux aarch64,60.01680470532965,,,,,,2598.281299999714,326,6,2598.2815999999048,326,,,,2602.4679000000956,2602.958,2601.965199999809,2602.4672999997138,2599.2850999999046,2601.9646999998095,2602.958,2603.4575999999047,2603.4579000000954,2607.1739000000953,3081,2607.1745,5,2607.1930999999045,6,26,206,14,1,1.6,0.3,Time
,,199905,001,女,20,2025-06-02_15h46.18.397,Serial_Dependence_U,2023.2.3,Linux aarch64,60.01680470532965,,,,,,2607.1939000000953,127,6,2607.1941999998094,127,,,,2610.5570000000002,2611.0494000000954,2610.0364000000955,2610.556599999905,2608.1925,2610.036,2611.0495,2611.5499000000955,2611.55,2614.929799999714,2914,2614.9301999998092,5,2614.940599999905,6,27,207,15,1,0.8,0.7,Time
,,199905,001,女,20,2025-06-02_15h46.18.397,Serial_Dependence_U,2023.2.3,Linux aarch64,60.01680470532965,,,,,,2614.941199999809,164,6,2614.9415,164,,,,2618.3504000000953,2618.84,2617.829900000095,2618.35,2615.949599999905,2617.8295,2618.840199999809,2619.3405999999045,2619.340699999809,2622.2952999997137,2749,2622.296,5,2622.3069000000955,6,28,208,0,1,0.8,0.3,Time
,,199905,001,女,20,2025-06-02_15h46.18.397,Serial_Dependence_U,2023.2.3,Linux aarch64,60.01680470532965,,,,,,2622.3075999999046,277,6,2622.3079000000953,277,,,,2625.8849000000955,2626.3824000000955,2625.3805999999045,2625.8845,2623.312299999714,2625.380199999809,2626.3825,2626.883,2626.883400000095,2630.325799999714,2971,2630.3260999999047,5,2630.335699999809,6,29,209,11,1,1,0.3,Time
,,199905,001,女,20,2025-06-02_15h46.18.397,Serial_Dependence_U,2023.2.3,Linux aarch64,60.01680470532965,,,,,,2630.336400000095,249,7,2643.0295,249,s,12.635400000095615,,2646.400699999809,2646.8990999999046,2645.8901999998093,2646.4001999998095,2644.041900000095,2645.889699999809,2646.8991999998093,2647.399299999714,2647.3994000000953,2649.9024000000954,2227,2649.9029000000955,5,2649.9131999998094,7,0,210,5,1,0.8,0.7,Time
,,199905,001,女,20,2025-06-02_15h46.18.397,Serial_Dependence_U,2023.2.3,Linux aarch64,60.01680470532965,,,,,,2649.913799999714,109,7,2649.917,109,,,,2653.6969000000954,2654.199099999905,2653.18,2653.6965,2650.9201999998095,2653.1795,2654.1991999998095,2654.703,2654.703299999714,2658.4602999997137,3124,2658.460699999809,5,2658.4765,7,1,211,17,1,1.2,0.7,Time
,,199905,001,女,20,2025-06-02_15h46.18.397,Serial_Dependence_U,2023.2.3,Linux aarch64,60.01680470532965,,,,,,2658.4775,166,7,2658.477799999714,166,,,,2662.4390999999046,2662.932400000095,2661.9204000000955,2662.4385999999045,2659.476199999809,2661.9199000000954,2662.9325,2663.4344000000956,2663.4345999999045,2666.5814000000955,2842,2666.5821999998093,5,2666.5922999997138,7,2,212,18,1,1.4,0.7,Time
,,199905,001,女,20,2025-06-02_15h46.18.397,Serial_Dependence_U,2023.2.3,Linux aarch64,60.01680470532965,,,,,,2666.592799999714,151,7,2666.5930999999046,151,,,,2670.0027999997137,2670.5005,2669.480799999714,2670.0024000000953,2667.6049000000953,2669.4805,2670.500599999905,2670.9999000000953,2671.0000999999047,2673.777699999809,2156,2673.778199999809,5,2673.789299999714,7,3,213,10,1,0.8,0.3,Time
,,199905,001,女,20,2025-06-02_15h46.18.397,Serial_Dependence_U,2023.2.3,Linux aarch64,60.01680470532965,,,,,,2673.7899000000953,259,7,2673.7901999998094,259,,,,2677.590799999714,2678.0846999998093,2677.088,2677.590299999714,2674.806599999905,2677.0875,2678.084799999714,2678.5829000000954,2678.583,2681.7799000000955,2751,2681.7805,5,2681.7904000000954,7,4,214,22,1,1.2,0.3,Time
,,199905,001,女,20,2025-06-02_15h46.18.397,Serial_Dependence_U,2023.2.3,Linux aarch64,60.01680470532965,,,,,,2681.791099999905,75,7,2681.7915,75,,,,2685.384699999809,2685.8844000000954,2684.8764000000956,2685.384299999714,2682.795799999714,2684.8759000000955,2685.8845,2686.382799999714,2686.3840999999047,2689.3865,2565,2689.387099999905,5,2689.397,7,5,215,21,1,1,0.3,Time
,,199905,001,女,20,2025-06-02_15h46.18.397,Serial_Dependence_U,2023.2.3,Linux aarch64,60.01680470532965,,,,,,2689.3975,280,7,2689.3976999998094,280,,,,2692.801,2693.302199999809,2692.2979000000955,2692.8005999999045,2690.414299999714,2692.297599999905,2693.302199999809,2693.8004000000956,2693.8005999999045,2697.046400000095,2709,2697.0471999998094,5,2697.058,7,6,216,20,1,0.8,0.3,Time
,,199905,001,女,20,2025-06-02_15h46.18.397,Serial_Dependence_U,2023.2.3,Linux aarch64,60.01680470532965,,,,,,2697.0586999998095,224,7,2697.0589000000955,224,,,,2700.6274000000953,2701.1257999997138,2700.120299999714,2700.6269000000952,2698.0694000000954,2700.119900000095,2701.1259000000955,2701.6249000000953,2701.6250999999047,2704.589,2383,2704.5897999997137,5,2704.6001999998093,7,7,217,16,1,1,0.7,Time
,,199905,001,女,20,2025-06-02_15h46.18.397,Serial_Dependence_U,2023.2.3,Linux aarch64,60.01680470532965,,,,,,2704.600799999714,17,7,2704.601,17,,,,2707.964299999714,2708.459,2707.461299999714,2707.963799999714,2705.614,2707.460799999714,2708.4591999998092,2708.9582999997137,2708.9585,2712.171,2785,2712.171400000095,5,2712.181799999714,7,8,218,15,1,0.8,0.7,Time
,,199905,001,女,20,2025-06-02_15h46.18.397,Serial_Dependence_U,2023.2.3,Linux aarch64,60.01680470532965,,,,,,2712.182400000095,171,7,2712.1826999998093,171,,,,2715.7611999998094,2716.2590999999047,2715.2565,2715.760799999714,2713.1884000000955,2715.2560999999046,2716.2591999998094,2716.760799999714,2716.7609000000953,2719.788699999809,2581,2719.789,5,2719.7979000000955,7,9,219,6,1,1,0.7,Time
,,199905,001,女,20,2025-06-02_15h46.18.397,Serial_Dependence_U,2023.2.3,Linux aarch64,60.01680470532965,,,,,,2719.7985,197,7,2719.7986999998093,197,,,,2723.608299999714,2724.1015999999045,2723.085,2723.6079000000955,2720.8035,2723.0845,2724.1015999999045,2724.6000999999046,2724.600299999714,2728.331699999809,2587,2728.331900000095,5,2728.342,7,10,220,12,1,1.2,0.3,Time
,,199905,001,女,20,2025-06-02_15h46.18.397,Serial_Dependence_U,2023.2.3,Linux aarch64,60.01680470532965,,,,,,2728.3425999999045,321,7,2728.3429000000956,321,,,,2732.3574000000954,2732.8501999998093,2731.8434000000952,2732.3569000000953,2729.3500999999046,2731.8430999999046,2732.850299999714,2733.3505999999047,2733.351099999905,2737.3591999998093,3183,2737.3596999998094,5,2737.3760999999045,7,11,221,3,1,1.4,0.3,Time
,,199905,001,女,20,2025-06-02_15h46.18.397,Serial_Dependence_U,2023.2.3,Linux aarch64,60.01680470532965,,,,,,2737.3770999999047,211,7,2737.3775,211,,,,2741.1595,2741.6502999997138,2740.6376999998092,2741.159099999905,2738.387199999809,2740.637199999809,2741.6504000000955,2742.153299999714,2742.153299999714,2745.500299999714,2970,2745.5007999997138,5,2745.5136999998094,7,12,222,7,1,1.2,0.7,Time
,,199905,001,女,20,2025-06-02_15h46.18.397,Serial_Dependence_U,2023.2.3,Linux aarch64,60.01680470532965,,,,,,2745.5145,5,7,2745.5145999999045,5,,,,2749.1015,2749.599299999714,2748.59,2749.101299999714,2746.5185,2748.5896999998095,2749.599299999714,2750.1035,2750.103799999714,2753.6711999998092,3113,2753.672,5,2753.689299999714,7,13,223,1,1,1,0.3,Time
,,199905,001,女,20,2025-06-02_15h46.18.397,Serial_Dependence_U,2023.2.3,Linux aarch64,60.01680470532965,,,,,,2753.6902999997137,133,7,2753.690699999809,133,,,,2757.6604000000953,2758.1519000000953,2757.1406999998094,2757.659799999714,2754.6934000000956,2757.1404000000953,2758.152,2758.652699999809,2758.652699999809,2762.4675,3393,2762.4681999998093,5,2762.487099999905,7,14,224,28,1,1.4,0.7,Time
,,199905,001,女,20,2025-06-02_15h46.18.397,Serial_Dependence_U,2023.2.3,Linux aarch64,60.01680470532965,,,,,,2762.488299999714,109,7,2762.4885999999046,109,,,,2766.6766999998094,2767.1671999998093,2766.1520999999047,2766.6761999998093,2763.4971999998093,2766.1515,2767.1671999998093,2767.6675,2767.668,2771.0629000000954,3292,2771.0632999997138,5,2771.0809000000954,7,15,225,29,1,1.6,0.7,Time
,,199905,001,女,20,2025-06-02_15h46.18.397,Serial_Dependence_U,2023.2.3,Linux aarch64,60.01680470532965,,,,,,2771.081799999714,119,7,2771.0820999999046,119,,,,2774.6885,2775.1934000000956,2774.1786999998094,2774.688099999905,2772.096699999809,2774.1781999998093,2775.1935,2775.6945,2775.6946999998095,2778.8571999998094,2684,2778.8577999997137,5,2778.867299999714,7,16,226,11,1,1,0.3,Time
,,199905,001,女,20,2025-06-02_15h46.18.397,Serial_Dependence_U,2023.2.3,Linux aarch64,60.01680470532965,,,,,,2778.868,145,7,2778.868299999714,145,,,,2782.251199999809,2782.7420999999044,2781.7391999998094,2782.2507999997138,2779.8881999998093,2781.7386999998093,2782.7420999999044,2783.2425,2783.2430999999046,2786.1565999999048,2475,2786.157099999905,5,2786.168099999905,7,17,227,25,1,0.8,0.7,Time
,,199905,001,女,20,2025-06-02_15h46.18.397,Serial_Dependence_U,2023.2.3,Linux aarch64,60.01680470532965,,,,,,2786.168699999809,347,7,2786.169,347,,,,2789.9559000000954,2790.4591999998092,2789.436900000095,2789.955299999714,2787.169299999714,2789.4365999999045,2790.4594000000952,2790.959,2790.9591999998092,2794.3730999999048,3043,2794.373799999714,5,2794.3925999999046,7,18,228,2,1,1.2,0.3,Time
,,199905,001,女,20,2025-06-02_15h46.18.397,Serial_Dependence_U,2023.2.3,Linux aarch64,60.01680470532965,,,,,,2794.3934000000954,122,7,2794.393799999714,122,,,,2798.5614000000955,2799.0590999999044,2798.0581999998094,2798.561,2795.403799999714,2798.0576999998093,2799.059199999809,2799.5600999999047,2799.560299999714,2803.6200999999046,3421,2803.6205999999047,5,2803.6395999999045,7,19,229,19,1,1.6,0.7,Time
,,199905,001,女,20,2025-06-02_15h46.18.397,Serial_Dependence_U,2023.2.3,Linux aarch64,60.01680470532965,,,,,,2803.6405999999047,298,7,2803.6409000000954,298,,,,2807.8359000000955,2808.334799999714,2807.3236999998094,2807.8351999998094,2804.6509000000956,2807.3231999998093,2808.3349000000953,2808.8341999998092,2808.8344000000952,2812.9744000000956,3400,2812.974799999714,5,2812.987799999714,7,20,230,4,1,1.6,0.3,Time
,,199905,001,女,20,2025-06-02_15h46.18.397,Serial_Dependence_U,2023.2.3,Linux aarch64,60.01680470532965,,,,,,2812.9885,264,7,2812.9889000000953,264,,,,2816.5626999998094,2817.059,2816.0485999999046,2816.5621999998093,2814,2816.048199999809,2817.059,2817.559299999714,2817.5595,2820.813,2779,2820.8135999999045,5,2820.8241999998095,7,21,231,26,1,1,0.7,Time
,,199905,001,女,20,2025-06-02_15h46.18.397,Serial_Dependence_U,2023.2.3,Linux aarch64,60.01680470532965,,,,,,2820.824799999714,236,7,2820.8249000000956,236,,,,2825.061699999809,2825.551299999714,2824.537199999809,2825.061299999714,2821.8394000000953,2824.536699999809,2825.5514000000953,2826.051299999714,2826.0514000000953,2829.3906999998094,2639,2829.391099999905,5,2829.401299999714,7,22,232,14,1,1.6,0.3,Time
,,199905,001,女,20,2025-06-02_15h46.18.397,Serial_Dependence_U,2023.2.3,Linux aarch64,60.01680470532965,,,,,,2829.402,277,7,2829.4021999998095,277,,,,2833.3816999998094,2833.8775999999048,2832.8669000000955,2833.381299999714,2830.413,2832.866599999905,2833.8776999998095,2834.3769000000952,2834.3775,2837.0044000000953,2187,2837.0049000000954,5,2837.016099999905,7,23,233,8,1,1.4,0.7,Time
,,199905,001,女,20,2025-06-02_15h46.18.397,Serial_Dependence_U,2023.2.3,Linux aarch64,60.01680470532965,,,,,,2837.016699999809,95,7,2837.0169000000956,95,,,,2841.0134000000953,2841.51,2840.5007999997138,2841.012900000095,2838.0196999998093,2840.500299999714,2841.5100999999045,2842.010299999714,2842.010400000095,2844.9579000000954,2576,2844.9582999997137,5,2844.969,7,24,234,13,1,1.4,0.3,Time
,,199905,001,女,20,2025-06-02_15h46.18.397,Serial_Dependence_U,2023.2.3,Linux aarch64,60.01680470532965,,,,,,2844.969599999905,275,7,2844.969799999714,275,,,,2848.3486999998095,2848.8515999999045,2847.845199999809,2848.348299999714,2845.9717999997138,2847.8449000000955,2848.851699999809,2849.3529000000954,2849.3530999999048,2852.6250999999047,2788,2852.6255,5,2852.636599999905,7,25,235,0,1,0.8,0.3,Time
,,199905,001,女,20,2025-06-02_15h46.18.397,Serial_Dependence_U,2023.2.3,Linux aarch64,60.01680470532965,,,,,,2852.637199999809,249,7,2852.637799999714,249,,,,2856.416199999809,2856.9184000000955,2855.8929000000953,2856.4156999998095,2853.6445999999046,2855.8925,2856.9185,2857.4202999997137,2857.4205,2861.0849000000953,3221,2861.0854000000954,5,2861.101199999809,7,26,236,27,1,1.2,0.7,Time
,,199905,001,女,20,2025-06-02_15h46.18.397,Serial_Dependence_U,2023.2.3,Linux aarch64,60.01680470532965,,,,,,2861.102,96,7,2861.1025,96,,,,2865.2974000000954,2865.785299999714,2864.781299999714,2865.297,2862.1180999999046,2864.7809000000952,2865.785299999714,2866.2880999999047,2866.288299999714,2869.9225,3275,2869.9230000000002,5,2869.9421999998094,7,27,237,9,1,1.6,0.7,Time
,,199905,001,女,20,2025-06-02_15h46.18.397,Serial_Dependence_U,2023.2.3,Linux aarch64,60.01680470532965,,,,,,2869.943299999714,32,7,2869.9439000000953,32,,,,2874.167799999714,2874.6604000000953,2873.6491999998093,2874.1671999998093,2870.958099999905,2873.6485999999045,2874.6605,2875.1609000000954,2875.1610999999048,2878.9999000000953,3495,2879.0005,5,2879.02,7,28,238,24,1,1.6,0.3,Time
,,199905,001,女,20,2025-06-02_15h46.18.397,Serial_Dependence_U,2023.2.3,Linux aarch64,60.01680470532965,,,,,,2879.0209000000955,205,7,2879.021199999809,205,,,,2883.045,2883.5365,2882.5299000000955,2883.0445999999047,2880.0364000000955,2882.5295,2883.5365,2884.037799999714,2884.038299999714,2887.666,3194,2887.6665,5,2887.683299999714,7,29,239,23,1,1.4,0.3,Time
,,199905,001,女,20,2025-06-02_15h46.18.397,Serial_Dependence_U,2023.2.3,Linux aarch64,60.01680470532965,,,,,,2887.684299999714,331,8,2889.983799999714,331,s,2.2730999999048436,,2893.9885,2894.4784000000955,2893.4782999997137,2893.988,2890.9956999998094,2893.477799999714,2894.4785,2894.9782999997137,2894.9785,2899.6015,3501,2899.6020999999046,5,2899.617799999714,8,0,240,13,1,1.4,0.3,Time
,,199905,001,女,20,2025-06-02_15h46.18.397,Serial_Dependence_U,2023.2.3,Linux aarch64,60.01680470532965,,,,,,2899.6185999999047,315,8,2899.623,315,,,,2903.027799999714,2903.5261999998093,2902.5131999998093,2903.0272999997137,2900.639199999809,2902.5126999998092,2903.526299999714,2904.028799999714,2904.029,2906.533799999714,1367,2906.5342999997138,5,2906.5505999999045,8,1,241,20,1,0.8,0.3,Time
,,199905,001,女,20,2025-06-02_15h46.18.397,Serial_Dependence_U,2023.2.3,Linux aarch64,60.01680470532965,,,,,,2906.5515,143,8,2906.552099999905,143,,,,2910.735199999809,2911.2354000000955,2910.228799999714,2910.734799999714,2907.5699000000955,2910.2285,2911.2355999999045,2911.7355000000002,2911.735799999714,2914.6167999997137,2414,2914.6170999999044,5,2914.6269000000952,8,2,242,29,1,1.6,0.7,Time
,,199905,001,女,20,2025-06-02_15h46.18.397,Serial_Dependence_U,2023.2.3,Linux aarch64,60.01680470532965,,,,,,2914.6275,194,8,2914.6277999997137,194,,,,2918.8121999998093,2919.304099999905,2918.295,2918.811900000095,2915.634,2918.2945,2919.3042999997137,2919.802299999714,2919.8024000000955,2922.993,2704,2922.9935,5,2923.0054000000955,8,3,243,9,1,1.6,0.7,Time
,,199905,001,女,20,2025-06-02_15h46.18.397,Serial_Dependence_U,2023.2.3,Linux aarch64,60.01680470532965,,,,,,2923.0059000000956,246,8,2923.0061999998093,246,,,,2926.611299999714,2927.1021999998093,2926.0849000000953,2926.611,2924.007799999714,2926.0844000000952,2927.1024000000953,2927.606799999714,2927.607,2930.082,2047,2930.0826999998094,5,2930.0945,8,4,244,11,1,1,0.3,Time
,,199905,001,女,20,2025-06-02_15h46.18.397,Serial_Dependence_U,2023.2.3,Linux aarch64,60.01680470532965,,,,,,2930.095199999809,343,8,2930.095400000095,343,,,,2933.5070999999048,2934.0025,2932.9825,2933.5066999998094,2931.101199999809,2932.9821999998094,2934.0025999999048,2934.5025999999048,2934.5027999997137,2937.0444000000953,2017,2937.0449000000954,5,2937.0614000000955,8,5,245,0,1,0.8,0.3,Time
,,199905,001,女,20,2025-06-02_15h46.18.397,Serial_Dependence_U,2023.2.3,Linux aarch64,60.01680470532965,,,,,,2937.062299999714,358,8,2937.0625999999047,358,,,,2940.6150999999045,2941.110900000095,2940.110099999905,2940.614599999905,2938.070699999809,2940.1096999998094,2941.111,2941.6121999998095,2941.614,2944.394400000095,2349,2944.395,5,2944.3955,8,6,246,16,1,1,0.7,Time
,,199905,001,女,20,2025-06-02_15h46.18.397,Serial_Dependence_U,2023.2.3,Linux aarch64,60.01680470532965,,,,,,2944.3960999999044,159,8,2944.3964000000956,159,,,,2948.599299999714,2949.094699999809,2948.0825999999047,2948.5987999997137,2945.4014000000952,2948.082299999714,2949.094799999714,2949.596299999714,2949.5964000000954,2952.527799999714,2604,2952.528299999714,5,2952.538,8,7,247,24,1,1.6,0.3,Time
,,199905,001,女,20,2025-06-02_15h46.18.397,Serial_Dependence_U,2023.2.3,Linux aarch64,60.01680470532965,,,,,,2952.538599999905,165,8,2952.538799999714,165,,,,2956.287799999714,2956.7804000000956,2955.7835,2956.287299999714,2953.5395,2955.782900000095,2956.7805999999046,2957.278199999809,2957.278299999714,2960.800900000095,3192,2960.8011999998093,5,2960.8109000000954,8,8,248,7,1,1.2,0.7,Time
,,199905,001,女,20,2025-06-02_15h46.18.397,Serial_Dependence_U,2023.2.3,Linux aarch64,60.01680470532965,,,,,,2960.8115,206,8,2960.811799999714,206,,,,2964.828,2965.3196999998095,2964.3069000000955,2964.8275999999046,2961.820900000095,2964.3064000000954,2965.3197999997137,2965.820799999714,2965.820900000095,2969.628799999714,3340,2969.629299999714,5,2969.6464000000956,8,9,249,3,1,1.4,0.3,Time
,,199905,001,女,20,2025-06-02_15h46.18.397,Serial_Dependence_U,2023.2.3,Linux aarch64,60.01680470532965,,,,,,2969.647299999714,6,8,2969.6479000000954,6,,,,2973.8494000000956,2974.347199999809,2973.336199999809,2973.8489000000955,2970.655,2973.3359000000955,2974.347299999714,2974.845299999714,2974.8455999999046,2978.8025000000002,3499,2978.803,5,2978.8170999999047,8,10,250,4,1,1.6,0.3,Time
,,199905,001,女,20,2025-06-02_15h46.18.397,Serial_Dependence_U,2023.2.3,Linux aarch64,60.01680470532965,,,,,,2978.8180999999045,179,8,2978.8184000000956,179,,,,2982.3991999998093,2982.8949000000953,2981.8855999999046,2982.398799999714,2979.826799999714,2981.885199999809,2982.8949000000953,2983.3950999999047,2983.395299999714,2986.6755,2826,2986.6761999998093,5,2986.686699999809,8,11,251,26,1,1,0.7,Time
,,199905,001,女,20,2025-06-02_15h46.18.397,Serial_Dependence_U,2023.2.3,Linux aarch64,60.01680470532965,,,,,,2986.6875999999047,31,8,2986.6879000000954,31,,,,2990.6415999999044,2991.146299999714,2990.137,2990.6412999997137,2987.693299999714,2990.136599999905,2991.1464000000956,2991.644799999714,2991.6454000000954,2995.726,3558,2995.726299999714,5,2995.741,8,12,252,28,1,1.4,0.7,Time
