Scale_setup.started,Scale_setup.stopped,participant,session,sex,age,date,expName,psychopyVersion,OS,frameRate,Intro.started,Intro.stopped,key_resp_2.keys,key_resp_2.rt,key_resp_2.duration,block.started,direction,Block_id,block.stopped,trial_direction,Block_resp_2.keys,Block_resp_2.rt,Block_resp_2.duration,ITI.started,ITI.stopped,Mask_2.started,Mask_2.stopped,encoding.started,encoding.stopped,Cue.started,Cue.stopped,Response.started,Response.stopped,keyDuration,Feedback_Time.started,FeedbackID_T,Feedback_Time.stopped,trials.thisRepN,trials.thisTrialN,trials.thisN,trials.thisIndex,trials.ran,TimeDur,Coherence1,TrialType
0.0002000000001878277,0.0004000000003721027,228809,001,,,2025-06-04_13h25.15.697,Serial_Dependence_U,2023.2.3,Win32,59.880239520968516,,,,,,,,,,,,,,,,,,,,,,,,,,,,,,,,,,,
,,228809,001,,,2025-06-04_13h25.15.697,Serial_Dependence_U,2023.2.3,Win32,59.880239520968516,3.149400000000373,4.591299999999816,space,1.411099999999628,,,,,,,,,,,,,,,,,,,,,,,,,,,,,,,
,,228809,001,,,2025-06-04_13h25.15.697,Serial_Dependence_U,2023.2.3,Win32,59.880239520968516,,,,,,4.600799999999815,9,0,7.656600000000559,9,s,3.0370000000000026,,11.2225,11.721700000000187,10.70660000000056,11.222299999999812,8.673900000000373,10.706500000000002,11.721900000000371,12.221700000000187,12.221900000000371,14.604799999999813,751,14.605100000000562,2,15.60460000000056,0,0,0,26,1,1,0.7,Time
,,228809,001,,,2025-06-04_13h25.15.697,Serial_Dependence_U,2023.2.3,Win32,59.880239520968516,,,,,,15.6055,209,0,15.609799999999815,209,,,,19.569200000000187,20.0685,19.052700000000186,19.56910000000056,16.62110000000056,19.05260000000056,20.0685,20.568299999999816,20.568400000000373,21.301799999999815,618,21.301799999999815,1,22.30110000000056,0,1,1,28,1,1.4,0.7,Time
,,228809,001,,,2025-06-04_13h25.15.697,Serial_Dependence_U,2023.2.3,Win32,59.880239520968516,,,,,,22.301499999999997,131,0,22.30170000000019,131,,,,25.851999999999997,26.3495,25.35040000000037,25.851799999999812,23.317700000000187,25.350200000000186,26.349600000000557,26.849299999999815,26.849299999999815,28.284200000000183,394,28.284299999999817,1,29.281700000000185,0,2,2,6,1,1,0.7,Time
,,228809,001,,,2025-06-04_13h25.15.697,Serial_Dependence_U,2023.2.3,Win32,59.880239520968516,,,,,,29.28210000000056,182,0,29.282200000000188,182,,,,33.08079999999981,33.58,32.564400000000376,33.080700000000185,30.299799999999813,32.56429999999981,33.580100000000556,34.080400000000374,34.0805,35.812900000000376,735,35.813,1,36.81220000000019,0,3,3,12,1,1.2,0.3,Time
,,228809,001,,,2025-06-04_13h25.15.697,Serial_Dependence_U,2023.2.3,Win32,59.880239520968516,,,,,,36.81260000000056,331,0,36.812700000000184,331,,,,40.4115,40.91070000000018,39.89479999999981,40.41129999999981,37.828900000000374,39.89460000000056,40.91070000000018,41.41040000000037,41.4105,42.46040000000037,626,42.4605,1,43.459900000000374,0,4,4,21,1,1,0.3,Time
,,228809,001,,,2025-06-04_13h25.15.697,Serial_Dependence_U,2023.2.3,Win32,59.880239520968516,,,,,,43.46029999999981,357,0,43.4605,357,,,,47.22629999999981,47.72670000000018,46.70890000000037,47.22629999999981,44.4765,46.70890000000037,47.72670000000018,48.22470000000018,48.22470000000018,50.107600000000545,805,50.10770000000018,1,51.10679999999981,0,5,5,7,1,1.2,0.7,Time
,,228809,001,,,2025-06-04_13h25.15.697,Serial_Dependence_U,2023.2.3,Win32,59.880239520968516,,,,,,51.10720000000018,14,0,51.10729999999981,14,,,,55.305499999999995,55.805200000000184,54.79010000000055,55.305499999999995,52.12340000000036,54.7897999999998,55.805200000000184,56.3047999999998,56.30490000000036,58.10510000000055,919,58.10520000000018,1,59.103700000000174,0,6,6,14,1,1.6,0.3,Time
,,228809,001,,,2025-06-04_13h25.15.697,Serial_Dependence_U,2023.2.3,Win32,59.880239520968516,,,,,,59.104200000000176,328,0,59.10449999999999,328,,,,63.086100000000556,63.58579999999981,62.56990000000036,63.085900000000365,60.10490000000037,62.5697999999998,63.58579999999981,64.08579999999981,64.08579999999981,65.85210000000055,1296,65.85210000000055,2,66.85079999999981,0,7,7,13,1,1.4,0.3,Time
,,228809,001,,,2025-06-04_13h25.15.697,Serial_Dependence_U,2023.2.3,Win32,59.880239520968516,,,,,,66.85110000000056,108,0,66.85129999999981,108,,,,70.23760000000055,70.73940000000036,69.72420000000018,70.23740000000036,67.85190000000037,69.72410000000055,70.73940000000036,71.23899999999999,71.23899999999999,72.68970000000017,1133,72.6897999999998,5,73.68860000000055,0,8,8,10,1,0.8,0.3,Time
,,228809,001,,,2025-06-04_13h25.15.697,Serial_Dependence_U,2023.2.3,Win32,59.880239520968516,,,,,,73.6887999999998,63,0,73.68890000000036,63,,,,77.485,77.987,76.97140000000037,77.48490000000037,74.70249999999999,76.9712999999998,77.987,78.48610000000055,78.48610000000055,79.71449999999999,1189,79.71479999999981,3,80.70249999999999,0,9,9,22,1,1.2,0.3,Time
,,228809,001,,,2025-06-04_13h25.15.697,Serial_Dependence_U,2023.2.3,Win32,59.880239520968516,,,,,,80.70270000000018,329,0,80.70279999999981,329,,,,84.68540000000037,85.1797999999998,84.16820000000018,84.68529999999981,81.70310000000055,84.16810000000055,85.17990000000036,85.68390000000036,85.684,86.4015,228,86.40160000000056,1,87.39310000000056,0,10,10,3,1,1.4,0.3,Time
,,228809,001,,,2025-06-04_13h25.15.697,Serial_Dependence_U,2023.2.3,Win32,59.880239520968516,,,,,,87.39410000000055,257,0,87.39470000000019,257,,,,91.18270000000018,91.67470000000019,90.66720000000018,91.18260000000055,88.4165,90.66699999999999,91.67470000000019,92.16420000000018,92.16420000000018,93.43220000000018,1125,93.43229999999981,2,94.42370000000018,0,11,11,17,1,1.2,0.7,Time
,,228809,001,,,2025-06-04_13h25.15.697,Serial_Dependence_U,2023.2.3,Win32,59.880239520968516,,,,,,94.425,222,0,94.42629999999981,222,,,,98.04090000000036,98.53879999999981,97.52979999999981,98.04040000000036,95.44790000000036,97.52970000000018,98.53890000000037,99.029,99.02910000000055,100.7787999999998,1500,100.77890000000036,5,101.77099999999999,0,12,12,11,1,1,0.3,Time
,,228809,001,,,2025-06-04_13h25.15.697,Serial_Dependence_U,2023.2.3,Win32,59.880239520968516,,,,,,101.77129999999981,275,0,101.77160000000055,275,,,,105.76990000000036,106.2692999999998,105.25340000000037,105.76990000000036,102.78760000000055,105.25329999999981,106.2692999999998,106.76899999999999,106.76899999999999,108.53529999999981,1317,108.5355,2,109.53490000000036,0,13,13,23,1,1.4,0.3,Time
,,228809,001,,,2025-06-04_13h25.15.697,Serial_Dependence_U,2023.2.3,Win32,59.880239520968516,,,,,,109.53510000000055,347,0,109.53520000000017,347,,,,113.33420000000018,113.83379999999983,112.81720000000018,113.334,110.55129999999983,112.81710000000058,113.83390000000037,114.33279999999982,114.33279999999982,116.299,1441,116.29910000000058,4,117.3065,0,14,14,2,1,1.2,0.3,Time
,,228809,001,,,2025-06-04_13h25.15.697,Serial_Dependence_U,2023.2.3,Win32,59.880239520968516,,,,,,117.30710000000056,25,0,117.30729999999983,25,,,,121.26510000000056,121.75329999999983,120.75529999999983,121.2647000000002,118.32240000000039,120.7552000000002,121.75329999999983,122.24690000000038,122.24710000000056,124.3812000000002,1735,124.38160000000056,4,125.36910000000057,0,15,15,8,1,1.4,0.7,Time
,,228809,001,,,2025-06-04_13h25.15.697,Serial_Dependence_U,2023.2.3,Win32,59.880239520968516,,,,,,125.36940000000038,267,0,125.36940000000038,267,,,,129.52860000000058,130.0175,129.018,129.5282000000002,126.37029999999982,129.01790000000037,130.0175,130.5169000000004,130.5169000000004,131.1342000000002,233,131.1342000000002,1,132.1332000000002,0,16,16,19,1,1.6,0.7,Time
,,228809,001,,,2025-06-04_13h25.15.697,Serial_Dependence_U,2023.2.3,Win32,59.880239520968516,,,,,,132.1337000000002,252,0,132.1337999999998,252,,,,135.8987000000002,136.39179999999982,135.38310000000055,135.89860000000056,133.14479999999983,135.383,136.3919000000004,136.89779999999982,136.8979000000004,138.89779999999982,1515,138.89779999999982,4,139.89100000000002,0,17,17,27,1,1.2,0.7,Time
,,228809,001,,,2025-06-04_13h25.15.697,Serial_Dependence_U,2023.2.3,Win32,59.880239520968516,,,,,,139.89260000000056,254,0,139.89290000000037,254,,,,143.45679999999982,143.96140000000037,142.94679999999983,143.45640000000037,140.89379999999983,142.9467000000002,143.96140000000037,144.46140000000037,144.46140000000037,146.5879000000004,1601,146.58840000000038,5,147.59160000000057,0,18,18,16,1,1,0.7,Time
,,228809,001,,,2025-06-04_13h25.15.697,Serial_Dependence_U,2023.2.3,Win32,59.880239520968516,,,,,,147.59190000000038,211,0,147.592,211,,,,151.78679999999983,152.27520000000018,151.2767000000002,151.78640000000038,148.61110000000056,151.2767000000002,152.27520000000018,152.77460000000056,152.7747000000002,154.65860000000058,1498,154.65860000000058,2,155.6505,0,19,19,4,1,1.6,0.3,Time
,,228809,001,,,2025-06-04_13h25.15.697,Serial_Dependence_U,2023.2.3,Win32,59.880239520968516,,,,,,155.65190000000038,196,0,155.65270000000018,196,,,,159.02390000000037,159.51570000000018,158.51760000000056,159.02379999999982,156.65129999999982,158.5172999999998,159.51570000000018,160.00510000000057,160.0052000000002,161.9897000000002,1532,161.9897000000002,5,162.98929999999982,0,20,20,0,1,0.8,0.3,Time
,,228809,001,,,2025-06-04_13h25.15.697,Serial_Dependence_U,2023.2.3,Win32,59.880239520968516,,,,,,162.98960000000056,196,0,162.9897000000002,196,,,,166.35440000000037,166.84729999999982,165.8379000000004,166.35429999999982,164.0049000000004,165.8379000000004,166.8474000000004,167.35410000000056,167.3542000000002,169.0695,1366,169.06960000000058,5,170.06210000000056,0,21,21,5,1,0.8,0.7,Time
,,228809,001,,,2025-06-04_13h25.15.697,Serial_Dependence_U,2023.2.3,Win32,59.880239520968516,,,,,,170.06340000000037,263,0,170.06410000000056,263,,,,173.41510000000056,173.91040000000038,172.90200000000002,173.41510000000056,171.0695,172.90190000000038,173.9107000000002,174.40090000000038,174.40090000000038,176.3509000000004,1566,176.3509000000004,5,177.3422000000002,0,22,22,15,1,0.8,0.7,Time
,,228809,001,,,2025-06-04_13h25.15.697,Serial_Dependence_U,2023.2.3,Win32,59.880239520968516,,,,,,177.34310000000056,81,0,177.34370000000018,81,,,,181.49229999999983,181.99690000000038,180.97890000000038,181.4917999999998,178.34329999999983,180.97890000000038,181.997,182.4975,182.49760000000057,184.69710000000057,1699,184.69720000000018,4,185.69710000000057,0,23,23,9,1,1.6,0.7,Time
,,228809,001,,,2025-06-04_13h25.15.697,Serial_Dependence_U,2023.2.3,Win32,59.880239520968516,,,,,,185.69740000000039,278,0,185.69750000000002,278,,,,189.88890000000038,190.39429999999982,189.3782000000002,189.88860000000057,186.6962000000002,189.37810000000056,190.39429999999982,190.89350000000002,190.89350000000002,192.8442000000002,1567,192.84429999999983,3,193.83710000000056,0,24,24,24,1,1.6,0.3,Time
,,228809,001,,,2025-06-04_13h25.15.697,Serial_Dependence_U,2023.2.3,Win32,59.880239520968516,,,,,,193.8387000000002,250,0,193.839,250,,,,198.0084000000004,198.50710000000058,197.49229999999983,198.00829999999982,194.85990000000038,197.4922000000002,198.50720000000018,199.002,199.0022000000002,200.88429999999983,1786,200.88470000000018,4,201.8739000000004,0,25,25,29,1,1.6,0.7,Time
,,228809,001,,,2025-06-04_13h25.15.697,Serial_Dependence_U,2023.2.3,Win32,59.880239520968516,,,,,,201.8742000000002,174,0,201.87429999999983,174,,,,205.4664000000004,205.9714000000004,204.9582000000002,205.46590000000037,202.87310000000056,204.958,205.97150000000002,206.46870000000018,206.46870000000018,208.5049000000004,1698,208.505,5,209.4967000000002,0,26,26,1,1,1,0.3,Time
,,228809,001,,,2025-06-04_13h25.15.697,Serial_Dependence_U,2023.2.3,Win32,59.880239520968516,,,,,,209.4982000000002,27,0,209.49929999999983,27,,,,212.89729999999983,213.40240000000037,212.38190000000037,212.8967999999998,210.51610000000056,212.38160000000056,213.40240000000037,213.9022000000002,213.9022000000002,215.616,1413,215.616,5,216.6107999999998,0,27,27,20,1,0.8,0.3,Time
,,228809,001,,,2025-06-04_13h25.15.697,Serial_Dependence_U,2023.2.3,Win32,59.880239520968516,,,,,,216.61160000000058,128,0,216.6122000000002,128,,,,220.56679999999983,221.0652999999998,220.06229999999982,220.5667000000002,217.6282000000002,220.0617000000002,221.0652999999998,221.56510000000057,221.56510000000057,223.5755,1889,223.5759000000004,5,224.582,0,28,28,18,1,1.4,0.7,Time
,,228809,001,,,2025-06-04_13h25.15.697,Serial_Dependence_U,2023.2.3,Win32,59.880239520968516,,,,,,224.58240000000038,147,0,224.5825,147,,,,227.9427000000002,228.43960000000055,227.4282999999998,227.94260000000057,225.5935,227.4282000000002,228.43960000000055,228.92990000000037,228.93,230.85629999999983,1369,230.85660000000055,5,231.84579999999983,0,29,29,25,1,0.8,0.7,Time
,,228809,001,,,2025-06-04_13h25.15.697,Serial_Dependence_U,2023.2.3,Win32,59.880239520968516,,,,,,231.84610000000058,176,1,258.36170000000016,176,s,26.49729999999977,,262.1289000000004,262.6266000000005,261.6184999999999,262.1284000000004,259.38570000000016,261.6184000000004,262.62670000000014,263.13360000000057,263.13360000000057,265.33079999999984,1546,265.33079999999984,4,265.331,1,0,30,7,1,1.2,0.7,Time
,,228809,001,,,2025-06-04_13h25.15.697,Serial_Dependence_U,2023.2.3,Win32,59.880239520968516,,,,,,265.3312999999998,156,1,265.3325,156,,,,269.29279999999983,269.7975,268.77599999999995,269.29229999999984,266.3434000000003,268.7756000000005,269.7975,270.29049999999995,270.29049999999995,272.66410000000053,1824,272.66410000000053,5,272.66440000000034,1,1,31,28,1,1.4,0.7,Time
,,228809,001,,,2025-06-04_13h25.15.697,Serial_Dependence_U,2023.2.3,Win32,59.880239520968516,,,,,,272.6647999999998,168,1,272.66499999999996,168,,,,276.05679999999984,276.562,275.5456000000005,276.05629999999974,273.674,275.54549999999995,276.56210000000056,277.05470000000014,277.05470000000014,280.1451000000005,2350,280.1451000000005,5,280.1452999999998,1,2,32,20,1,0.8,0.3,Time
,,228809,001,,,2025-06-04_13h25.15.697,Serial_Dependence_U,2023.2.3,Win32,59.880239520968516,,,,,,280.14549999999997,317,1,280.14570000000015,317,,,,284.12620000000015,284.6184000000004,283.6102000000002,284.12620000000015,281.14360000000056,283.6102000000002,284.6184000000004,285.1079000000003,285.1079000000003,288.05870000000016,2319,288.05870000000016,5,288.05920000000015,1,3,33,23,1,1.4,0.3,Time
,,228809,001,,,2025-06-04_13h25.15.697,Serial_Dependence_U,2023.2.3,Win32,59.880239520968516,,,,,,288.0596000000005,53,1,288.05979999999977,53,,,,292.22349999999994,292.7154000000004,291.7067999999998,292.2234000000003,289.0717999999998,291.7067999999998,292.7155,293.2054000000004,293.2054000000004,296.2982000000002,2538,296.2985,5,296.3001000000005,1,4,34,19,1,1.6,0.7,Time
,,228809,001,,,2025-06-04_13h25.15.697,Serial_Dependence_U,2023.2.3,Win32,59.880239520968516,,,,,,296.3006000000005,305,1,296.30079999999975,305,,,,300.48140000000035,300.9789000000004,299.97090000000037,300.4807000000002,297.3042999999998,299.9707000000002,300.9789000000004,301.4686000000005,301.4687000000001,303.75199999999995,1882,303.7521000000005,4,303.75229999999976,1,5,35,14,1,1.6,0.3,Time
,,228809,001,,,2025-06-04_13h25.15.697,Serial_Dependence_U,2023.2.3,Win32,59.880239520968516,,,,,,303.75249999999994,103,1,303.7527000000001,103,,,,307.13460000000055,307.6331000000006,306.6181000000005,307.13440000000037,304.7521000000005,306.61799999999994,307.6331000000006,308.1295,308.1295,318.097,1749,318.097,5,318.0972999999998,1,6,36,10,1,0.8,0.3,Time
,,228809,001,,,2025-06-04_13h25.15.697,Serial_Dependence_U,2023.2.3,Win32,59.880239520968516,,,,,,318.09749999999997,325,1,318.09749999999997,325,,,,321.8889000000004,322.3935,321.3794000000004,321.8884000000004,319.096,321.37929999999983,322.3935,322.894,322.894,325.86060000000055,2599,325.8607000000002,5,325.86090000000036,1,7,37,12,1,1.2,0.3,Time
,,228809,001,,,2025-06-04_13h25.15.697,Serial_Dependence_U,2023.2.3,Win32,59.880239520968516,,,,,,325.86110000000053,243,1,325.86120000000017,243,,,,329.6422000000001,330.1347999999998,329.1262999999998,329.6421000000005,326.8542000000002,329.1262999999998,330.1347999999998,330.6244000000004,330.6244000000004,333.5007999999998,2449,333.5011000000005,5,333.50249999999994,1,8,38,2,1,1.2,0.3,Time
,,228809,001,,,2025-06-04_13h25.15.697,Serial_Dependence_U,2023.2.3,Win32,59.880239520968516,,,,,,333.50299999999993,348,1,333.5031000000006,348,,,,337.48379999999975,337.98779999999977,336.96720000000016,337.4832000000001,334.50090000000034,336.9667000000002,337.9879000000003,338.4812999999998,338.48140000000035,341.43760000000054,2458,341.43760000000054,5,341.4377999999998,1,9,39,3,1,1.4,0.3,Time
,,228809,001,,,2025-06-04_13h25.15.697,Serial_Dependence_U,2023.2.3,Win32,59.880239520968516,,,,,,341.438,357,1,341.43820000000017,357,,,,345.0197999999998,345.5119000000003,344.5152999999998,345.0197999999998,342.4482999999998,344.51520000000016,345.5119000000003,346.01800000000003,346.01800000000003,348.71210000000053,2286,348.7126000000005,5,348.71370000000013,1,10,40,11,1,1,0.3,Time
,,228809,001,,,2025-06-04_13h25.15.697,Serial_Dependence_U,2023.2.3,Win32,59.880239520968516,,,,,,348.71399999999994,237,1,348.7141000000005,237,,,,352.2614000000003,352.74910000000057,351.75010000000054,352.26090000000033,349.71320000000014,351.75,352.7492000000002,353.249,353.24910000000057,355.94979999999975,2299,355.94979999999975,5,355.94999999999993,1,11,41,26,1,1,0.7,Time
,,228809,001,,,2025-06-04_13h25.15.697,Serial_Dependence_U,2023.2.3,Win32,59.880239520968516,,,,,,355.9502000000001,175,1,355.95029999999974,175,,,,359.731,360.22299999999996,359.22640000000035,359.7307999999998,356.95899999999995,359.226,360.22299999999996,360.7127999999998,360.7127999999998,363.3967000000001,2163,363.3967000000001,5,363.39679999999976,1,12,42,22,1,1.2,0.3,Time
,,228809,001,,,2025-06-04_13h25.15.697,Serial_Dependence_U,2023.2.3,Win32,59.880239520968516,,,,,,363.3971000000006,226,1,363.3971000000006,226,,,,367.5891000000005,368.0936000000005,367.0777999999998,367.58870000000013,364.40940000000035,367.0777999999998,368.0937000000001,368.58660000000054,368.58660000000054,371.69260000000054,2594,371.6927000000002,5,371.693,1,13,43,24,1,1.6,0.3,Time
,,228809,001,,,2025-06-04_13h25.15.697,Serial_Dependence_U,2023.2.3,Win32,59.880239520968516,,,,,,371.69320000000016,60,1,371.6932999999998,60,,,,375.05229999999983,375.557,374.5414999999999,375.0519000000004,372.7031000000005,374.5414999999999,375.557,376.057,376.057,379.5675,3009,379.5677999999998,5,379.5687999999998,1,14,44,25,1,0.8,0.7,Time
,,228809,001,,,2025-06-04_13h25.15.697,Serial_Dependence_U,2023.2.3,Win32,59.880239520968516,,,,,,379.56899999999996,339,1,379.5691000000005,339,,,,383.7322999999998,384.22060000000056,383.22190000000035,383.73199999999997,380.5839000000003,383.2217999999998,384.22060000000056,384.7204000000004,384.7205,388.03779999999983,2692,388.03779999999983,5,388.0382000000002,1,15,45,29,1,1.6,0.7,Time
,,228809,001,,,2025-06-04_13h25.15.697,Serial_Dependence_U,2023.2.3,Win32,59.880239520968516,,,,,,388.0387000000002,175,1,388.0387999999998,175,,,,391.79599999999994,392.2845,391.2864000000003,391.7956000000005,389.0482999999998,391.28629999999976,392.2845,392.7842999999998,392.7842999999998,395.88379999999984,2581,395.88379999999984,5,395.8842000000002,1,16,46,27,1,1.2,0.7,Time
,,228809,001,,,2025-06-04_13h25.15.697,Serial_Dependence_U,2023.2.3,Win32,59.880239520968516,,,,,,395.88460000000055,32,1,395.8847000000002,32,,,,399.8607999999998,400.3581000000005,399.3502000000002,399.86040000000037,396.89410000000055,399.35,400.35829999999976,400.8477999999998,400.8477999999998,403.8307000000002,2461,403.8307000000002,5,403.8309000000004,1,17,47,18,1,1.4,0.7,Time
,,228809,001,,,2025-06-04_13h25.15.697,Serial_Dependence_U,2023.2.3,Win32,59.880239520968516,,,,,,403.831,293,1,403.8312000000002,293,,,,407.6095,408.106,407.09560000000056,407.6094000000004,404.8472999999998,407.0955,408.1062000000002,408.6047000000002,408.6047000000002,411.2914999999999,2162,411.2914999999999,5,411.2917000000002,1,18,48,17,1,1.2,0.7,Time
,,228809,001,,,2025-06-04_13h25.15.697,Serial_Dependence_U,2023.2.3,Win32,59.880239520968516,,,,,,411.29200000000003,50,1,411.29200000000003,50,,,,415.4432999999998,415.9354000000003,414.93810000000053,415.4432999999998,412.3047999999998,414.9377999999998,415.9354000000003,416.42499999999995,416.42499999999995,418.82579999999984,1926,418.82579999999984,4,418.82610000000057,1,19,49,9,1,1.6,0.7,Time
,,228809,001,,,2025-06-04_13h25.15.697,Serial_Dependence_U,2023.2.3,Win32,59.880239520968516,,,,,,418.82629999999983,344,1,418.8265,344,,,,422.41890000000035,422.91599999999994,421.9077000000002,422.4185,419.83529999999985,421.9077000000002,422.91599999999994,423.40520000000015,423.40520000000015,426.523,2365,426.52310000000057,5,426.5234000000004,1,20,50,21,1,1,0.3,Time
,,228809,001,,,2025-06-04_13h25.15.697,Serial_Dependence_U,2023.2.3,Win32,59.880239520968516,,,,,,426.5237999999998,324,1,426.524,324,,,,429.9046000000005,430.40390000000036,429.4042000000002,429.9045,427.53260000000057,429.40410000000054,430.40390000000036,430.89629999999977,430.89649999999995,433.49640000000034,2182,433.4967999999998,5,433.49829999999974,1,21,51,0,1,0.8,0.3,Time
,,228809,001,,,2025-06-04_13h25.15.697,Serial_Dependence_U,2023.2.3,Win32,59.880239520968516,,,,,,433.4987000000002,209,1,433.4989000000004,209,,,,437.052,437.55099999999993,436.5457000000001,437.052,434.50279999999975,436.5454000000003,437.5511000000006,438.04529999999977,438.0454000000003,440.93310000000054,2515,440.93320000000017,5,440.93340000000035,1,22,52,6,1,1,0.7,Time
,,228809,001,,,2025-06-04_13h25.15.697,Serial_Dependence_U,2023.2.3,Win32,59.880239520968516,,,,,,440.9336000000005,336,1,440.93370000000016,336,,,,444.29860000000053,444.7914000000004,443.7769000000003,444.2985,441.9446000000005,443.77649999999994,444.7916000000006,445.29079999999976,445.29079999999976,447.7975,2174,447.7975,5,447.7977000000002,1,23,53,15,1,0.8,0.7,Time
,,228809,001,,,2025-06-04_13h25.15.697,Serial_Dependence_U,2023.2.3,Win32,59.880239520968516,,,,,,447.79790000000037,111,1,447.798,111,,,,451.9791000000006,452.4715,451.47349999999994,451.9789999999999,448.80790000000036,451.47299999999996,452.4715,452.96110000000056,452.96110000000056,453.27199999999993,72,453.2724000000004,1,453.274,1,24,54,4,1,1.6,0.3,Time
,,228809,001,,,2025-06-04_13h25.15.697,Serial_Dependence_U,2023.2.3,Win32,59.880239520968516,,,,,,453.27460000000053,308,1,453.2747999999998,308,,,,456.6612000000001,457.1601000000005,456.1395,456.6611000000005,454.2964000000004,456.139,457.16020000000015,457.65279999999984,457.65279999999984,461.05920000000015,2835,461.0592999999998,5,461.0594000000003,1,25,55,5,1,0.8,0.7,Time
,,228809,001,,,2025-06-04_13h25.15.697,Serial_Dependence_U,2023.2.3,Win32,59.880239520968516,,,,,,461.0596000000005,39,1,461.05970000000013,39,,,,464.6417000000001,465.1397999999998,464.1355,464.6417000000001,462.06929999999977,464.135,465.1397999999998,465.6332000000002,465.6332000000002,468.66679999999974,2514,468.6672000000002,5,468.66860000000054,1,26,56,1,1,1,0.3,Time
,,228809,001,,,2025-06-04_13h25.15.697,Serial_Dependence_U,2023.2.3,Win32,59.880239520968516,,,,,,468.669,118,1,468.66920000000016,118,,,,472.23849999999993,472.7305,471.72220000000016,472.23849999999993,469.68310000000054,471.7221000000005,472.7305,473.2207999999998,473.2207999999998,476.3539000000004,2782,476.3539999999999,5,476.3542000000002,1,27,57,16,1,1,0.7,Time
,,228809,001,,,2025-06-04_13h25.15.697,Serial_Dependence_U,2023.2.3,Win32,59.880239520968516,,,,,,476.3546000000006,180,1,476.3547000000002,180,,,,480.32929999999976,480.8275,479.8182999999998,480.3289000000003,477.3531000000005,479.81820000000016,480.8275,481.3177000000002,481.3177999999998,483.55049999999994,1882,483.5506000000005,5,483.5507000000001,1,28,58,13,1,1.4,0.3,Time
,,228809,001,,,2025-06-04_13h25.15.697,Serial_Dependence_U,2023.2.3,Win32,59.880239520968516,,,,,,483.55099999999993,294,1,483.5511000000006,294,,,,487.51599999999996,488.0081000000006,486.9997999999998,487.51590000000033,484.56100000000004,486.9997000000002,488.0081000000006,488.5085,488.5087000000002,490.59770000000015,1759,490.59770000000015,4,490.5979000000003,1,29,59,8,1,1.4,0.7,Time
,,228809,001,,,2025-06-04_13h25.15.697,Serial_Dependence_U,2023.2.3,Win32,59.880239520968516,,,,,,490.59820000000013,84,2,521.6197000000002,84,s,31.005099999999686,,525.8182000000002,526.3167999999998,525.3012000000002,525.8182000000002,522.6299000000004,525.3011000000006,526.3169000000004,526.8174000000004,526.8175,529.5332000000002,2161,529.5332999999998,5,529.5335,2,0,60,24,1,1.6,0.3,Time
,,228809,001,,,2025-06-04_13h25.15.697,Serial_Dependence_U,2023.2.3,Win32,59.880239520968516,,,,,,529.5337000000002,73,2,529.5346000000005,73,,,,533.6925,534.1906000000006,533.1759000000004,533.692,530.532,533.1755,534.1906000000006,534.6812999999999,534.6814000000004,537.3244000000004,2220,537.3246000000006,5,537.3256000000006,2,1,61,9,1,1.6,0.7,Time
,,228809,001,,,2025-06-04_13h25.15.697,Serial_Dependence_U,2023.2.3,Win32,59.880239520968516,,,,,,537.326,253,2,537.3261000000006,253,,,,541.5119000000004,542.0044000000004,541.0067000000001,541.5117999999998,538.3407999999998,541.006,542.0044000000004,542.4942999999998,542.4942999999998,545.6275,2411,545.6275,5,545.6277999999999,2,2,62,4,1,1.6,0.3,Time
,,228809,001,,,2025-06-04_13h25.15.697,Serial_Dependence_U,2023.2.3,Win32,59.880239520968516,,,,,,545.6282000000002,92,2,545.6282999999999,92,,,,549.0266000000006,549.5181000000006,548.5104000000003,549.0266000000006,546.6377999999999,548.5102999999998,549.5181000000006,550.0239000000004,550.0239000000004,553.2082999999998,2410,553.2082999999998,5,553.2085,2,3,63,10,1,0.8,0.3,Time
,,228809,001,,,2025-06-04_13h25.15.697,Serial_Dependence_U,2023.2.3,Win32,59.880239520968516,,,,,,553.2087999999998,72,2,553.2089000000004,72,,,,557.3559000000004,557.8545,556.8406000000006,557.3559000000004,554.2067000000002,556.8405,557.8545,558.3544000000004,558.3544000000004,561.4545,2499,561.4545,5,561.4547000000002,2,4,64,29,1,1.6,0.7,Time
,,228809,001,,,2025-06-04_13h25.15.697,Serial_Dependence_U,2023.2.3,Win32,59.880239520968516,,,,,,561.455,256,2,561.4551000000006,256,,,,565.2137000000002,565.702,564.6972000000002,565.2134000000004,562.4642000000002,564.6967999999998,565.702,566.1951000000006,566.1951000000006,569.4852999999998,2652,569.4854000000004,5,569.4856000000005,2,5,65,27,1,1.2,0.7,Time
,,228809,001,,,2025-06-04_13h25.15.697,Serial_Dependence_U,2023.2.3,Win32,59.880239520968516,,,,,,569.4859000000004,171,2,569.486,171,,,,573.0664000000004,573.5652999999999,572.5507000000002,573.0664000000004,570.4842000000002,572.5507000000002,573.5654000000004,574.0651000000006,574.0651000000006,576.9921000000006,2238,576.9925000000001,5,576.9936000000006,2,6,66,1,1,1,0.3,Time
,,228809,001,,,2025-06-04_13h25.15.697,Serial_Dependence_U,2023.2.3,Win32,59.880239520968516,,,,,,576.9941000000006,293,2,576.9941000000006,293,,,,580.3477000000001,580.8395,579.8316000000005,580.3477000000001,577.9984000000004,579.8315,580.8396000000006,581.3457000000002,581.3457000000002,584.9127000000002,2466,584.9127999999998,5,584.913,2,7,67,25,1,0.8,0.7,Time
,,228809,001,,,2025-06-04_13h25.15.697,Serial_Dependence_U,2023.2.3,Win32,59.880239520968516,,,,,,584.9132000000002,317,2,584.9134000000004,317,,,,588.8944000000004,589.3929000000004,588.3777000000002,588.8942999999998,585.9122999999998,588.3776000000006,589.3929000000004,589.8925,589.8925,593.0599000000004,2736,593.0600000000001,5,593.0602999999999,2,8,68,13,1,1.4,0.3,Time
,,228809,001,,,2025-06-04_13h25.15.697,Serial_Dependence_U,2023.2.3,Win32,59.880239520968516,,,,,,593.0605,129,2,593.0606000000006,129,,,,596.6589000000004,597.1501000000005,596.1354000000003,596.6587000000002,594.0722999999998,596.135,597.1501000000005,597.6569000000004,597.6569000000004,600.9064000000004,2865,600.9065,5,600.9067999999999,2,9,69,11,1,1,0.3,Time
,,228809,001,,,2025-06-04_13h25.15.697,Serial_Dependence_U,2023.2.3,Win32,59.880239520968516,,,,,,600.907,86,2,600.9071000000006,86,,,,604.2992999999998,604.7876000000006,603.7885,604.2989000000003,601.9224000000004,603.7884000000004,604.7876000000006,605.2867999999999,605.2869000000004,607.8872000000002,2299,607.8872000000002,5,607.8874000000004,2,10,70,20,1,0.8,0.3,Time
,,228809,001,,,2025-06-04_13h25.15.697,Serial_Dependence_U,2023.2.3,Win32,59.880239520968516,,,,,,607.8876000000006,291,2,607.8877999999999,291,,,,612.052,612.5507000000002,611.5355,612.0519000000004,608.9029000000004,611.5354000000004,612.5507000000002,613.0441000000005,613.0442000000002,615.5177000000002,2060,615.5177999999999,4,615.5182000000002,2,11,71,19,1,1.6,0.7,Time
,,228809,001,,,2025-06-04_13h25.15.697,Serial_Dependence_U,2023.2.3,Win32,59.880239520968516,,,,,,615.5185,252,2,615.5187000000002,252,,,,619.2929000000004,619.7915,618.7827999999998,619.2926000000006,616.517,618.7827999999998,619.7915,620.2812000000002,620.2812000000002,622.8977000000002,2266,622.8977000000002,5,622.8979000000004,2,12,72,2,1,1.2,0.3,Time
,,228809,001,,,2025-06-04_13h25.15.697,Serial_Dependence_U,2023.2.3,Win32,59.880239520968516,,,,,,622.8981000000006,357,2,622.8982000000002,357,,,,626.8905,627.3786000000006,626.3796000000006,626.8901000000005,623.9112000000002,626.3795,627.3786000000006,627.878,627.878,630.6724000000004,2269,630.6727999999998,5,630.6739000000003,2,13,73,23,1,1.4,0.3,Time
,,228809,001,,,2025-06-04_13h25.15.697,Serial_Dependence_U,2023.2.3,Win32,59.880239520968516,,,,,,630.6742000000002,158,2,630.6744000000003,158,,,,634.4372000000002,634.9252999999998,633.9267999999998,634.4369000000004,631.6785,633.9267000000002,634.9252999999998,635.4252000000002,635.4252999999998,638.6589000000004,2765,638.6589000000004,5,638.6591000000005,2,14,74,7,1,1.2,0.7,Time
,,228809,001,,,2025-06-04_13h25.15.697,Serial_Dependence_U,2023.2.3,Win32,59.880239520968516,,,,,,638.6594000000003,69,2,638.6595,69,,,,642.0191000000005,642.5227999999998,641.5077000000002,642.0185,639.6752999999998,641.5076000000006,642.5227999999998,643.0227000000002,643.0227000000002,646.0062999999998,2333,646.0062999999998,5,646.0066000000006,2,15,75,15,1,0.8,0.7,Time
,,228809,001,,,2025-06-04_13h25.15.697,Serial_Dependence_U,2023.2.3,Win32,59.880239520968516,,,,,,646.0070000000001,187,2,646.0072999999999,187,,,,649.9485,650.4362999999998,649.4375,649.9481000000005,647.0061000000005,649.4374000000004,650.4362999999998,650.9364000000004,650.9364000000004,653.7629000000004,2455,653.7634000000004,5,653.7647999999998,2,16,76,18,1,1.4,0.7,Time
,,228809,001,,,2025-06-04_13h25.15.697,Serial_Dependence_U,2023.2.3,Win32,59.880239520968516,,,,,,653.7651000000005,333,2,653.7652999999998,333,,,,657.7122000000002,658.2164000000004,657.2015,657.7117000000002,654.7689000000004,657.2014000000004,658.2164000000004,658.7101000000006,658.7101000000006,661.2012000000002,2116,661.2012999999998,5,661.2015,2,17,77,8,1,1.4,0.7,Time
,,228809,001,,,2025-06-04_13h25.15.697,Serial_Dependence_U,2023.2.3,Win32,59.880239520968516,,,,,,661.2019000000004,298,2,661.202,298,,,,664.9592999999999,665.4469000000004,664.4494000000004,664.9589000000004,662.2002999999999,664.4492999999998,665.4469000000004,665.9474000000004,665.9474000000004,668.7642000000002,2366,668.7642999999998,5,668.7646000000005,2,18,78,17,1,1.2,0.7,Time
,,228809,001,,,2025-06-04_13h25.15.697,Serial_Dependence_U,2023.2.3,Win32,59.880239520968516,,,,,,668.7649000000004,356,2,668.7651000000005,356,,,,672.3231000000005,672.8217999999998,671.8126000000005,672.3227000000002,669.7804000000003,671.8126000000005,672.8217999999998,673.3274000000004,673.3275,676.7107999999998,3023,676.7107999999998,5,676.7111000000006,2,19,79,26,1,1,0.7,Time
,,228809,001,,,2025-06-04_13h25.15.697,Serial_Dependence_U,2023.2.3,Win32,59.880239520968516,,,,,,676.7112999999998,239,2,676.7114000000004,239,,,,680.2934000000004,680.7867999999999,679.7767000000002,680.2932999999998,677.7104000000004,679.7767000000002,680.787,681.291,681.291,684.4584000000003,2727,684.4584000000003,5,684.4586000000006,2,20,80,21,1,1,0.3,Time
,,228809,001,,,2025-06-04_13h25.15.697,Serial_Dependence_U,2023.2.3,Win32,59.880239520968516,,,,,,684.4587999999998,65,2,684.4589000000004,65,,,,688.4172000000002,688.9154000000004,687.9072000000002,688.4167000000002,685.4677999999998,687.9071000000006,688.9154000000004,689.4051000000005,689.4051000000005,692.1554000000003,2349,692.1554000000003,5,692.1556000000006,2,21,81,28,1,1.4,0.7,Time
,,228809,001,,,2025-06-04_13h25.15.697,Serial_Dependence_U,2023.2.3,Win32,59.880239520968516,,,,,,692.1557999999998,200,2,692.1559000000004,200,,,,695.9367999999998,696.4291000000005,695.4216000000006,695.9367000000002,693.1547000000002,695.4215,696.4291000000005,696.9291000000005,696.9291000000005,700.2019000000004,2913,700.2019000000004,5,700.202,2,22,82,12,1,1.2,0.3,Time
,,228809,001,,,2025-06-04_13h25.15.697,Serial_Dependence_U,2023.2.3,Win32,59.880239520968516,,,,,,700.2022000000002,274,2,700.2024000000004,274,,,,703.984,704.4826000000006,703.481,703.9839000000004,701.2129000000003,703.4809000000004,704.4826000000006,704.9822999999998,704.9822999999998,707.4261000000006,2090,707.4262999999999,5,707.4279000000004,2,23,83,22,1,1.2,0.3,Time
,,228809,001,,,2025-06-04_13h25.15.697,Serial_Dependence_U,2023.2.3,Win32,59.880239520968516,,,,,,707.4285,57,2,707.4287000000002,57,,,,710.9647999999999,711.4635,710.4644000000004,710.9647999999999,708.4315,710.4642999999999,711.4635,711.9631000000006,711.9631000000006,714.4134000000004,2133,714.4134000000004,5,714.4135,2,24,84,6,1,1,0.7,Time
,,228809,001,,,2025-06-04_13h25.15.697,Serial_Dependence_U,2023.2.3,Win32,59.880239520968516,,,,,,714.4137999999998,86,2,714.4139000000004,86,,,,717.806,718.2937000000002,717.2954000000004,717.8056000000006,715.4236000000005,717.2952999999998,718.2937000000002,718.7945,718.7945,721.7872999999998,2600,721.7875,5,721.7886000000005,2,25,85,0,1,0.8,0.3,Time
,,228809,001,,,2025-06-04_13h25.15.697,Serial_Dependence_U,2023.2.3,Win32,59.880239520968516,,,,,,721.7894000000003,307,2,721.7895,307,,,,725.9885,726.4844000000004,725.47,725.9882999999999,722.7937999999998,725.4697000000002,726.4844000000004,726.9739000000004,726.9739000000004,730.2072999999998,2785,730.2072999999998,5,730.2076000000005,2,26,86,14,1,1.6,0.3,Time
,,228809,001,,,2025-06-04_13h25.15.697,Serial_Dependence_U,2023.2.3,Win32,59.880239520968516,,,,,,730.2079000000003,352,2,730.208,352,,,,733.7735,734.2715000000001,733.2729000000004,733.7735,731.2185000000001,733.2729000000004,734.2715000000001,734.771,734.771,737.4987000000002,2416,737.4992000000002,5,737.5001000000005,2,27,87,16,1,1,0.7,Time
,,228809,001,,,2025-06-04_13h25.15.697,Serial_Dependence_U,2023.2.3,Win32,59.880239520968516,,,,,,737.5004000000004,225,2,737.5006000000005,225,,,,741.4874000000004,741.9787999999999,740.986,741.4872999999998,738.5216000000006,740.986,741.979,742.4681000000006,742.4681000000006,744.7282000000002,1907,744.7284000000004,5,744.7297999999998,2,28,88,3,1,1.4,0.3,Time
,,228809,001,,,2025-06-04_13h25.15.697,Serial_Dependence_U,2023.2.3,Win32,59.880239520968516,,,,,,744.7306000000005,146,2,744.7306000000005,146,,,,748.0840000000001,748.5832000000001,747.5836000000006,748.0840000000001,745.746,747.5835,748.5832000000001,749.0822000000002,749.0822000000002,751.7992999999998,2230,751.7992999999998,5,751.7995,2,29,89,5,1,0.8,0.7,Time
,,228809,001,,,2025-06-04_13h25.15.697,Serial_Dependence_U,2023.2.3,Win32,59.880239520968516,,,,,,751.7996000000005,76,3,788.27,76,s,36.454600000000596,,792.4502000000002,792.9426000000005,791.9457999999998,792.4502000000002,789.2792000000002,791.9456000000006,792.9426000000005,793.4321000000006,793.4322999999998,795.9094000000003,2084,795.9097000000002,5,795.9109000000004,3,0,90,14,1,1.6,0.3,Time
,,228809,001,,,2025-06-04_13h25.15.697,Serial_Dependence_U,2023.2.3,Win32,59.880239520968516,,,,,,795.9114000000004,320,3,795.9124000000004,320,,,,799.9096000000005,800.4142999999998,799.3975,799.9089000000004,796.9315,799.3975,800.4142999999998,800.9062999999999,800.9062999999999,803.6962999999998,2299,803.6962999999998,5,803.6966000000006,3,1,91,3,1,1.4,0.3,Time
,,228809,001,,,2025-06-04_13h25.15.697,Serial_Dependence_U,2023.2.3,Win32,59.880239520968516,,,,,,803.6969000000004,39,3,803.697,39,,,,807.4555,807.9435,806.945,807.4549000000004,804.7061000000006,806.9449000000004,807.9435,808.4367000000002,808.4367999999998,810.7201000000006,1937,810.7204000000004,5,810.7214000000004,3,2,92,17,1,1.2,0.7,Time
,,228809,001,,,2025-06-04_13h25.15.697,Serial_Dependence_U,2023.2.3,Win32,59.880239520968516,,,,,,810.7222000000002,281,3,810.7224000000003,281,,,,814.3066000000006,814.8017999999998,813.8057999999999,814.3065,811.7427000000002,813.8057000000002,814.8019000000004,815.2902000000001,815.2902000000001,817.791,1965,817.7911000000006,5,817.7912000000002,3,3,93,1,1,1,0.3,Time
,,228809,001,,,2025-06-04_13h25.15.697,Serial_Dependence_U,2023.2.3,Win32,59.880239520968516,,,,,,817.7914000000004,38,3,817.7915,38,,,,821.9344000000003,822.4379000000004,821.4227999999998,821.9339000000003,818.791,821.4227999999998,822.4379000000004,822.9382000000002,822.9382000000002,825.7211000000005,2415,825.7212000000002,5,825.7214000000004,3,4,94,9,1,1.6,0.7,Time
,,228809,001,,,2025-06-04_13h25.15.697,Serial_Dependence_U,2023.2.3,Win32,59.880239520968516,,,,,,825.7216000000005,264,3,825.7216000000005,264,,,,829.6801000000006,830.1784000000004,829.1697999999998,829.6797999999998,826.731,829.1697999999998,830.1784000000004,830.6687000000002,830.6687999999998,833.4351000000006,2383,833.4351000000006,5,833.4352999999999,3,5,95,28,1,1.4,0.7,Time
,,228809,001,,,2025-06-04_13h25.15.697,Serial_Dependence_U,2023.2.3,Win32,59.880239520968516,,,,,,833.4356000000006,46,3,833.4356000000006,46,,,,836.9841000000006,837.4827999999998,836.4777000000001,836.984,834.4451000000006,836.4772999999998,837.4827999999998,837.9757999999998,837.9759000000004,841.1917999999998,2851,841.1921000000006,5,841.194,3,6,96,26,1,1,0.7,Time
,,228809,001,,,2025-06-04_13h25.15.697,Serial_Dependence_U,2023.2.3,Win32,59.880239520968516,,,,,,841.1944000000004,217,3,841.1945000000001,217,,,,844.7581000000006,845.2464000000003,844.2472000000002,844.7576000000006,842.2089000000004,844.2471000000006,845.2464000000003,845.7392000000002,845.7394000000004,849.1074000000003,2608,849.1075,5,849.1077999999998,3,7,97,6,1,1,0.7,Time
,,228809,001,,,2025-06-04_13h25.15.697,Serial_Dependence_U,2023.2.3,Win32,59.880239520968516,,,,,,849.1081000000006,202,3,849.1082999999999,202,,,,852.4455,852.9427999999998,851.9442999999998,852.4454000000004,850.1089000000004,851.9442999999998,852.9427999999998,853.4434000000003,853.4434000000003,856.3767999999998,2513,856.3767999999998,5,856.3771000000006,3,8,98,5,1,0.8,0.7,Time
,,228809,001,,,2025-06-04_13h25.15.697,Serial_Dependence_U,2023.2.3,Win32,59.880239520968516,,,,,,856.3774000000004,47,3,856.3776000000006,47,,,,860.5522999999998,861.0565,860.0417000000002,860.5516000000006,857.3764000000003,860.0416000000006,861.0565,861.556,861.5561000000006,865.2726000000006,3348,865.2726000000006,5,865.2727999999998,3,9,99,4,1,1.6,0.3,Time
,,228809,001,,,2025-06-04_13h25.15.697,Serial_Dependence_U,2023.2.3,Win32,59.880239520968516,,,,,,865.2731000000006,210,3,865.2732000000002,210,,,,869.221,869.7136000000006,868.7047999999999,869.221,866.2724000000004,868.7047999999999,869.7136000000006,870.2206000000006,870.2206000000006,872.9032999999998,2313,872.9034000000004,5,872.9037000000002,3,10,100,8,1,1.4,0.7,Time
,,228809,001,,,2025-06-04_13h25.15.697,Serial_Dependence_U,2023.2.3,Win32,59.880239520968516,,,,,,872.9039000000004,33,3,872.9041000000005,33,,,,876.4974000000004,877.001,875.9811000000005,876.4971000000006,873.9134000000004,875.9809000000004,877.001,877.5009000000003,877.5009000000003,880.6446000000005,3040,880.6447999999998,5,880.6459000000003,3,11,101,11,1,1,0.3,Time
,,228809,001,,,2025-06-04_13h25.15.697,Serial_Dependence_U,2023.2.3,Win32,59.880239520968516,,,,,,880.6462999999998,251,3,880.6466000000006,251,,,,884.0327999999998,884.5311000000006,883.5156000000005,884.0327999999998,881.6535,883.5155,884.5311000000006,884.9976000000006,884.9977000000002,886.6652999999998,183,886.6652999999998,1,886.6655,3,12,102,10,1,0.8,0.3,Time
,,228809,001,,,2025-06-04_13h25.15.697,Serial_Dependence_U,2023.2.3,Win32,59.880239520968516,,,,,,886.6657999999999,262,3,886.666,262,,,,890.0585,890.5625,889.5474000000004,890.0582000000002,887.6816000000006,889.5472999999998,890.5626000000005,891.0621000000006,891.0621000000006,894.1637000000002,2733,894.1637999999998,5,894.1642999999998,3,13,103,0,1,0.8,0.3,Time
,,228809,001,,,2025-06-04_13h25.15.697,Serial_Dependence_U,2023.2.3,Win32,59.880239520968516,,,,,,894.1646000000005,329,3,894.1647999999998,329,,,,897.7449000000004,898.2422000000001,897.223,897.7447999999998,895.1774000000004,897.2229000000004,898.2422000000001,898.7426000000006,898.7426000000006,901.9262000000002,2833,901.9262000000002,5,901.9262999999999,3,14,104,16,1,1,0.7,Time
,,228809,001,,,2025-06-04_13h25.15.697,Serial_Dependence_U,2023.2.3,Win32,59.880239520968516,,,,,,901.9266000000006,127,3,901.9267000000002,127,,,,906.0911000000006,906.583,905.5847999999999,906.091,902.9394000000004,905.5844000000004,906.583,907.0727999999998,907.0727999999998,910.522,3146,910.5221000000006,5,910.5222000000002,3,15,105,29,1,1.6,0.7,Time
,,228809,001,,,2025-06-04_13h25.15.697,Serial_Dependence_U,2023.2.3,Win32,59.880239520968516,,,,,,910.5224000000004,357,3,910.5226000000006,357,,,,913.8872000000002,914.3865,913.3817000000001,913.8871000000006,911.5355,913.3814000000003,914.3865,914.8861000000005,914.8861000000005,918.4627000000002,3272,918.463,5,918.4644000000004,3,16,106,25,1,0.8,0.7,Time
,,228809,001,,,2025-06-04_13h25.15.697,Serial_Dependence_U,2023.2.3,Win32,59.880239520968516,,,,,,918.4649000000004,169,3,918.4652000000002,169,,,,922.6284000000004,923.1167999999998,922.1187000000002,922.628,919.486,922.1186000000006,923.1169000000003,923.616,923.616,927.7090000000001,3685,927.7094000000004,5,927.7105,3,17,107,19,1,1.6,0.7,Time
,,228809,001,,,2025-06-04_13h25.15.697,Serial_Dependence_U,2023.2.3,Win32,59.880239520968516,,,,,,927.7111000000006,221,3,927.7112000000002,221,,,,931.0607000000002,931.5577999999998,930.559,931.0606000000006,928.7259000000004,930.5585,931.5577999999998,932.0467000000002,932.0467999999998,935.1464000000004,2632,935.1464000000004,5,935.1467000000002,3,18,108,15,1,0.8,0.7,Time
,,228809,001,,,2025-06-04_13h25.15.697,Serial_Dependence_U,2023.2.3,Win32,59.880239520968516,,,,,,935.147,303,3,935.1471000000006,303,,,,938.9387000000002,939.4267999999998,938.4286000000005,938.9382999999998,936.163,938.4284000000004,939.4267999999998,939.9204000000004,939.9205000000001,943.0946000000006,2316,943.0946000000006,5,943.0947999999999,3,19,109,22,1,1.2,0.3,Time
,,228809,001,,,2025-06-04_13h25.15.697,Serial_Dependence_U,2023.2.3,Win32,59.880239520968516,,,,,,943.0952000000002,225,3,943.0952999999998,225,,,,947.3024000000004,947.8037999999998,946.7921000000006,947.302,944.1094000000004,946.792,947.8037999999998,948.3074000000004,948.3074000000004,951.2570000000001,2549,951.2570000000001,5,951.2571000000006,3,20,110,24,1,1.6,0.3,Time
,,228809,001,,,2025-06-04_13h25.15.697,Serial_Dependence_U,2023.2.3,Win32,59.880239520968516,,,,,,951.2574000000004,171,3,951.2575,171,,,,955.039,955.5327000000002,954.5192999999998,955.0389000000004,952.2572999999999,954.5192999999998,955.5327999999998,956.0227999999998,956.0227999999998,959.8534000000004,3501,959.8535,5,959.8536000000006,3,21,111,12,1,1.2,0.3,Time
,,228809,001,,,2025-06-04_13h25.15.697,Serial_Dependence_U,2023.2.3,Win32,59.880239520968516,,,,,,959.8537999999999,194,3,959.8539000000004,194,,,,963.6197999999998,964.1172999999998,963.1022999999998,963.6197999999998,960.8652000000002,963.1022999999998,964.1172999999998,964.6174000000004,964.6174000000004,966.7777000000002,1851,966.7779000000004,5,966.7791000000005,3,22,112,27,1,1.2,0.7,Time
,,228809,001,,,2025-06-04_13h25.15.697,Serial_Dependence_U,2023.2.3,Win32,59.880239520968516,,,,,,966.78,278,3,966.7801000000005,278,,,,970.177,970.6757000000002,969.667,970.1766000000006,967.7975,969.6669000000004,970.6757000000002,971.1645,971.1645,973.7322000000001,2199,973.7322999999998,5,973.7325,3,23,113,20,1,0.8,0.3,Time
,,228809,001,,,2025-06-04_13h25.15.697,Serial_Dependence_U,2023.2.3,Win32,59.880239520968516,,,,,,973.7326000000006,331,3,973.7327000000002,331,,,,977.7269000000003,978.2295,977.2135,977.7267999999998,974.7487000000002,977.2135,978.2296000000006,978.7291000000006,978.7291000000006,981.1289000000004,1945,981.129,5,981.1292000000002,3,24,114,13,1,1.4,0.3,Time
,,228809,001,,,2025-06-04_13h25.15.697,Serial_Dependence_U,2023.2.3,Win32,59.880239520968516,,,,,,981.1295,9,3,981.1296000000006,9,,,,984.7442999999998,985.2369000000003,984.2297999999998,984.7442000000002,982.1447999999998,984.2296000000006,985.2371000000005,985.7265,985.7265,988.5694000000004,2336,988.5697000000002,5,988.5712000000002,3,25,115,21,1,1,0.3,Time
,,228809,001,,,2025-06-04_13h25.15.697,Serial_Dependence_U,2023.2.3,Win32,59.880239520968516,,,,,,988.5717999999998,131,3,988.572,131,,,,992.3417000000002,992.8336000000006,991.836,992.3417000000002,989.5879000000003,991.8354000000004,992.8336000000006,993.3226000000005,993.3227000000002,997.323,2499,997.323,5,997.3232000000002,3,26,116,7,1,1.2,0.7,Time
,,228809,001,,,2025-06-04_13h25.15.697,Serial_Dependence_U,2023.2.3,Win32,59.880239520968516,,,,,,997.3235,150,3,997.3235,150,,,,1001.3055,1001.7967000000002,1000.8050000000001,1001.3054000000004,998.3377999999998,1000.8050000000001,1001.7967999999998,1002.3032999999998,1002.3034000000004,1004.9487000000001,2299,1004.9489000000004,5,1004.9496000000006,3,27,117,23,1,1.4,0.3,Time
,,228809,001,,,2025-06-04_13h25.15.697,Serial_Dependence_U,2023.2.3,Win32,59.880239520968516,,,,,,1004.9502000000002,130,3,1004.9504000000004,130,,,,1008.7476000000006,1009.25,1008.2364000000005,1008.7472000000002,1005.9526000000005,1008.2362999999998,1009.2501000000007,1009.7504000000004,1009.7504000000004,1012.4436000000005,2385,1012.4439000000004,5,1012.4452000000001,3,28,118,2,1,1.2,0.3,Time
,,228809,001,,,2025-06-04_13h25.15.697,Serial_Dependence_U,2023.2.3,Win32,59.880239520968516,,,,,,1012.4459000000004,100,3,1012.4461000000006,100,,,,1016.4095,1016.8977000000002,1015.8997999999999,1016.4092000000003,1013.4667000000002,1015.8997000000002,1016.8977000000002,1017.3982999999998,1017.3982999999998,1020.2311000000007,2499,1020.2311000000007,5,1020.2312999999999,3,29,119,18,1,1.4,0.7,Time
,,228809,001,,,2025-06-04_13h25.15.697,Serial_Dependence_U,2023.2.3,Win32,59.880239520968516,,,,,,1020.2315000000001,331,4,1022.4299000000003,331,s,2.1835000000000946,,1026.5722000000003,1027.0707000000002,1026.0622999999998,1026.5719000000004,1023.4304999999999,1026.0622999999998,1027.0707000000002,1027.5704000000003,1027.5704000000003,1030.1767000000002,2268,1030.1767999999997,5,1030.177,4,0,120,19,1,1.6,0.7,Time
,,228809,001,,,2025-06-04_13h25.15.697,Serial_Dependence_U,2023.2.3,Win32,59.880239520968516,,,,,,1030.1772,230,4,1030.1782000000003,230,,,,1034.1712999999997,1034.675,1033.6591000000005,1034.1712000000002,1031.1935,1033.6591000000005,1034.675,1035.1737000000003,1035.1737999999998,1037.7911000000006,2259,1037.7912000000001,5,1037.7912999999999,4,1,121,3,1,1.4,0.3,Time
,,228809,001,,,2025-06-04_13h25.15.697,Serial_Dependence_U,2023.2.3,Win32,59.880239520968516,,,,,,1037.7915,250,4,1037.7916000000005,250,,,,1041.5892999999999,1042.0879000000004,1041.0727000000002,1041.5892000000001,1038.8007999999998,1041.0726000000006,1042.0879000000004,1042.5882000000001,1042.5883,1045.0715,2377,1045.0715,5,1045.0717000000002,4,2,122,12,1,1.2,0.3,Time
,,228809,001,,,2025-06-04_13h25.15.697,Serial_Dependence_U,2023.2.3,Win32,59.880239520968516,,,,,,1045.0719000000004,121,4,1045.0719000000004,121,,,,1048.4337000000003,1048.9291000000005,1047.931,1048.4336000000005,1046.0829000000003,1047.9306000000006,1048.9291000000005,1049.4189000000003,1049.419,1051.9787999999999,2262,1051.9792000000002,5,1051.9804000000004,4,3,123,25,1,0.8,0.7,Time
,,228809,001,,,2025-06-04_13h25.15.697,Serial_Dependence_U,2023.2.3,Win32,59.880239520968516,,,,,,1051.9811000000007,210,4,1051.9813,210,,,,1055.7607999999998,1056.2492999999997,1055.2507000000003,1055.7605,1052.9985,1055.2507000000003,1056.2492999999997,1056.7432000000001,1056.7432999999999,1059.3757000000003,2222,1059.3762000000002,5,1059.3775,4,4,124,17,1,1.2,0.7,Time
,,228809,001,,,2025-06-04_13h25.15.697,Serial_Dependence_U,2023.2.3,Win32,59.880239520968516,,,,,,1059.3782999999999,249,4,1059.3785,249,,,,1063.562,1064.0567,1063.0479000000005,1063.562,1060.3766000000005,1063.0477999999998,1064.0567,1064.5467999999998,1064.5467999999998,1067.208,2315,1067.2082000000003,5,1067.2084000000004,4,5,125,14,1,1.6,0.3,Time
,,228809,001,,,2025-06-04_13h25.15.697,Serial_Dependence_U,2023.2.3,Win32,59.880239520968516,,,,,,1067.2086000000006,37,4,1067.2087000000001,37,,,,1070.8117999999997,1071.3038,1070.2952000000002,1070.8117999999997,1068.2237999999998,1070.2952000000002,1071.3039000000003,1071.7927999999997,1071.7927999999997,1074.4605,2376,1074.4605,5,1074.4607,4,6,126,21,1,1,0.3,Time
,,228809,001,,,2025-06-04_13h25.15.697,Serial_Dependence_U,2023.2.3,Win32,59.880239520968516,,,,,,1074.4607999999998,290,4,1074.4609000000005,290,,,,1078.4527999999998,1078.9575,1077.9424000000004,1078.4524000000004,1075.4705,1077.9423,1078.9575,1079.4507999999998,1079.4507999999998,1081.9679000000003,2164,1081.9682999999998,5,1081.9695,4,7,127,23,1,1.4,0.3,Time
,,228809,001,,,2025-06-04_13h25.15.697,Serial_Dependence_U,2023.2.3,Win32,59.880239520968516,,,,,,1081.9699000000003,119,4,1081.97,119,,,,1085.3507000000002,1085.8567000000003,1084.8392999999999,1085.3501000000006,1082.9739000000004,1084.8392999999999,1085.8567000000003,1086.3547,1086.3547999999998,1089.4047000000003,2198,1089.4047000000003,5,1089.405,4,8,128,0,1,0.8,0.3,Time
,,228809,001,,,2025-06-04_13h25.15.697,Serial_Dependence_U,2023.2.3,Win32,59.880239520968516,,,,,,1089.4054000000003,223,4,1089.4054000000003,223,,,,1093.3976000000005,1093.8953,1092.8817000000001,1093.3972999999999,1090.415,1092.8812000000003,1093.8953,1094.3847999999998,1094.3849000000005,1097.4524000000004,2247,1097.4524000000004,5,1097.4525,4,9,129,13,1,1.4,0.3,Time
,,228809,001,,,2025-06-04_13h25.15.697,Serial_Dependence_U,2023.2.3,Win32,59.880239520968516,,,,,,1097.4527000000003,84,4,1097.4527000000003,84,,,,1101.0112000000001,1101.5152999999998,1100.5001000000007,1101.0107999999998,1098.4617000000003,1100.5001000000007,1101.5152999999998,1102.009,1102.0091000000007,1106.0483,2714,1106.0484000000004,5,1106.0486000000005,4,10,130,16,1,1,0.7,Time
,,228809,001,,,2025-06-04_13h25.15.697,Serial_Dependence_U,2023.2.3,Win32,59.880239520968516,,,,,,1106.0487999999998,302,4,1106.049,302,,,,1110.2079000000003,1110.7057000000002,1109.6967000000002,1110.207,1107.0584000000003,1109.6966000000007,1110.7057000000002,1111.1955,1111.1955,1113.4455,1910,1113.4455,4,1113.4457000000002,4,11,131,29,1,1.6,0.7,Time
,,228809,001,,,2025-06-04_13h25.15.697,Serial_Dependence_U,2023.2.3,Win32,59.880239520968516,,,,,,1113.4459000000004,53,4,1113.446,53,,,,1116.8054000000004,1117.31,1116.295,1116.8044000000004,1114.4416000000006,1116.2949000000003,1117.31,1117.8032000000003,1117.8032999999998,1120.3596000000005,2015,1120.3597000000002,5,1120.3597999999997,4,12,132,5,1,0.8,0.7,Time
,,228809,001,,,2025-06-04_13h25.15.697,Serial_Dependence_U,2023.2.3,Win32,59.880239520968516,,,,,,1120.36,190,4,1120.3601000000006,190,,,,1123.9027999999998,1124.4067000000002,1123.3917999999999,1123.9022999999997,1121.3545,1123.3917000000001,1124.4067000000002,1124.9007000000001,1124.9008,1127.457,2099,1127.457,5,1127.4572999999998,4,13,133,6,1,1,0.7,Time
,,228809,001,,,2025-06-04_13h25.15.697,Serial_Dependence_U,2023.2.3,Win32,59.880239520968516,,,,,,1127.4576000000006,254,4,1127.4578,254,,,,1130.8528,1131.3479000000004,1130.3331000000005,1130.8527000000001,1128.4671000000005,1130.3328,1131.3479000000004,1131.8414000000005,1131.8414000000005,1134.2213,2075,1134.2213,5,1134.2216000000005,4,14,134,10,1,0.8,0.3,Time
,,228809,001,,,2025-06-04_13h25.15.697,Serial_Dependence_U,2023.2.3,Win32,59.880239520968516,,,,,,1134.2219000000005,150,4,1134.222,150,,,,1137.9662000000003,1138.4617000000003,1137.4637000000002,1137.9661000000006,1135.2202999999997,1137.4633,1138.4617999999998,1138.9617000000003,1138.9617000000003,1141.2957000000001,1986,1141.2961000000005,5,1141.2971000000005,4,15,135,7,1,1.2,0.7,Time
,,228809,001,,,2025-06-04_13h25.15.697,Serial_Dependence_U,2023.2.3,Win32,59.880239520968516,,,,,,1141.2975,100,4,1141.2976000000006,100,,,,1145.0605,1145.5499000000004,1144.5502999999999,1145.0601000000006,1142.3174000000004,1144.5502000000001,1145.55,1146.0486000000005,1146.0486000000005,1148.2332999999999,1867,1148.2334000000003,5,1148.2337000000002,4,16,136,27,1,1.2,0.7,Time
,,228809,001,,,2025-06-04_13h25.15.697,Serial_Dependence_U,2023.2.3,Win32,59.880239520968516,,,,,,1148.2341000000006,153,4,1148.2342,153,,,,1152.0309000000004,1152.5232,1151.5142000000003,1152.0307999999998,1149.2494000000004,1151.5142000000003,1152.5232,1153.0129000000004,1153.013,1155.6297000000002,2282,1155.6299000000004,5,1155.6302000000003,4,17,137,22,1,1.2,0.3,Time
,,228809,001,,,2025-06-04_13h25.15.697,Serial_Dependence_U,2023.2.3,Win32,59.880239520968516,,,,,,1155.6305,328,4,1155.6306000000006,328,,,,1159.5887999999998,1160.0869000000005,1159.0787999999998,1159.5885,1156.6287999999997,1159.0787999999998,1160.0869000000005,1160.5764000000004,1160.5764000000004,1162.794,1845,1162.794,5,1162.7942999999998,4,18,138,18,1,1.4,0.7,Time
,,228809,001,,,2025-06-04_13h25.15.697,Serial_Dependence_U,2023.2.3,Win32,59.880239520968516,,,,,,1162.7945,26,4,1162.7946000000006,26,,,,1166.986,1167.4746000000005,1166.4696000000006,1166.9857000000002,1163.8039000000003,1166.4691000000005,1167.4746000000005,1167.9742,1167.9742999999999,1170.5406000000005,2199,1170.5407000000002,5,1170.5409000000004,4,19,139,24,1,1.6,0.3,Time
,,228809,001,,,2025-06-04_13h25.15.697,Serial_Dependence_U,2023.2.3,Win32,59.880239520968516,,,,,,1170.5411000000006,74,4,1170.5412999999999,74,,,,1174.4892000000002,1174.9813,1173.9725,1174.4891000000005,1171.5405,1173.9725,1174.9813,1175.4705,1175.4706000000006,1177.2214000000004,1459,1177.2214000000004,3,1177.2216000000005,4,20,140,28,1,1.4,0.7,Time
,,228809,001,,,2025-06-04_13h25.15.697,Serial_Dependence_U,2023.2.3,Win32,59.880239520968516,,,,,,1177.2219000000005,135,4,1177.2221000000006,135,,,,1180.5866000000005,1181.0855,1180.0702,1180.5865000000001,1178.2319000000005,1180.0702,1181.0855,1181.5789000000004,1181.5789000000004,1184.2527999999998,2326,1184.2529000000004,5,1184.2532999999999,4,21,141,15,1,0.8,0.7,Time
,,228809,001,,,2025-06-04_13h25.15.697,Serial_Dependence_U,2023.2.3,Win32,59.880239520968516,,,,,,1184.2537999999997,189,4,1184.254,189,,,,1188.0344000000005,1188.5327000000002,1187.5179000000003,1188.0344000000005,1185.2517000000003,1187.5177999999999,1188.5327000000002,1189.0262000000002,1189.0265,1191.5342999999998,2066,1191.5342999999998,5,1191.5349000000003,4,22,142,2,1,1.2,0.3,Time
,,228809,001,,,2025-06-04_13h25.15.697,Serial_Dependence_U,2023.2.3,Win32,59.880239520968516,,,,,,1191.5356000000006,271,4,1191.5359000000003,271,,,,1195.6812000000002,1196.1797000000001,1195.165,1195.6812000000002,1192.5302000000001,1195.1649000000004,1196.1797000000001,1196.6792999999998,1196.6794000000004,1199.7316000000005,2777,1199.7316000000005,5,1199.732,4,23,143,9,1,1.6,0.7,Time
,,228809,001,,,2025-06-04_13h25.15.697,Serial_Dependence_U,2023.2.3,Win32,59.880239520968516,,,,,,1199.7325,166,4,1199.7327999999998,166,,,,1203.6956000000005,1204.1869000000004,1203.1785,1203.6954000000003,1200.7397999999998,1203.1784000000005,1204.1869000000004,1204.6764000000003,1204.6765,1207.294,2265,1207.2941000000005,5,1207.2945,4,24,144,8,1,1.4,0.7,Time
,,228809,001,,,2025-06-04_13h25.15.697,Serial_Dependence_U,2023.2.3,Win32,59.880239520968516,,,,,,1207.2948,190,4,1207.2951000000005,190,,,,1211.4724000000003,1211.9672999999998,1210.9694000000004,1211.4724000000003,1208.3036000000006,1210.969,1211.9674000000005,1212.4572999999998,1212.4572999999998,1214.924,2133,1214.924,5,1214.9242000000002,4,25,145,4,1,1.6,0.3,Time
,,228809,001,,,2025-06-04_13h25.15.697,Serial_Dependence_U,2023.2.3,Win32,59.880239520968516,,,,,,1214.9244000000003,64,4,1214.9244000000003,64,,,,1218.5062000000003,1218.998,1217.9896000000006,1218.5061000000005,1215.9236000000005,1217.9895,1218.9981000000005,1219.5041000000006,1219.5042,1222.6,2770,1222.6001000000006,5,1222.6005,4,26,146,11,1,1,0.3,Time
,,228809,001,,,2025-06-04_13h25.15.697,Serial_Dependence_U,2023.2.3,Win32,59.880239520968516,,,,,,1222.6009000000004,137,4,1222.601,137,,,,1225.9981000000005,1226.5013,1225.4801000000007,1225.9976000000006,1223.6145,1225.4797999999998,1226.5013,1227.0016000000005,1227.0016000000005,1229.7447000000002,2246,1229.7450000000001,5,1229.746,4,27,147,20,1,0.8,0.3,Time
,,228809,001,,,2025-06-04_13h25.15.697,Serial_Dependence_U,2023.2.3,Win32,59.880239520968516,,,,,,1229.7469000000003,57,4,1229.7471000000005,57,,,,1233.311,1233.7989000000005,1232.8007999999998,1233.3105,1230.7682999999997,1232.8007000000002,1233.7989000000005,1234.2984000000004,1234.2985,1236.5836000000006,1966,1236.5837000000001,5,1236.584,4,28,148,26,1,1,0.7,Time
,,228809,001,,,2025-06-04_13h25.15.697,Serial_Dependence_U,2023.2.3,Win32,59.880239520968516,,,,,,1236.5844000000004,124,4,1236.5846000000006,124,,,,1240.1746000000005,1240.6632999999997,1239.6647000000003,1240.1742000000002,1237.5924000000005,1239.6647000000003,1240.6632999999997,1241.1626000000006,1241.1626000000006,1243.6462999999999,2299,1243.6462999999999,5,1243.6464000000003,4,29,149,1,1,1,0.3,Time
,,228809,001,,,2025-06-04_13h25.15.697,Serial_Dependence_U,2023.2.3,Win32,59.880239520968516,,,,,,1243.6467000000002,263,5,1245.9724000000003,263,s,2.3042000000002645,,1249.7437999999997,1250.239,1249.2274000000004,1249.7437999999997,1246.9726000000005,1249.2272999999998,1250.239,1250.7425,1250.7425,1253.3766000000005,2236,1253.3766000000005,5,1253.377,5,0,150,17,1,1.2,0.7,Time
,,228809,001,,,2025-06-04_13h25.15.697,Serial_Dependence_U,2023.2.3,Win32,59.880239520968516,,,,,,1253.3774000000003,272,5,1253.3787999999997,272,,,,1257.5681000000006,1258.0565,1257.0581000000006,1257.5676000000005,1254.3861000000006,1257.0581000000006,1258.0565,1258.5564000000004,1258.5564000000004,1261.1731000000007,2232,1261.1732000000002,5,1261.1734000000004,5,1,151,4,1,1.6,0.3,Time
,,228809,001,,,2025-06-04_13h25.15.697,Serial_Dependence_U,2023.2.3,Win32,59.880239520968516,,,,,,1261.1736000000005,158,5,1261.1737000000003,158,,,,1264.9822000000001,1265.4713,1264.4717999999998,1264.9817000000003,1262.1891000000005,1264.4717000000003,1265.4714000000004,1265.9697,1265.9697,1268.6211000000005,2279,1268.6212000000003,5,1268.6212000000003,5,2,152,2,1,1.2,0.3,Time
,,228809,001,,,2025-06-04_13h25.15.697,Serial_Dependence_U,2023.2.3,Win32,59.880239520968516,,,,,,1268.6215,227,5,1268.6216000000006,227,,,,1272.7626000000005,1273.2621000000006,1272.2517999999998,1272.7622000000001,1269.616,1272.2517999999998,1273.2622000000001,1273.7672999999998,1273.7672999999998,1276.4294000000004,2264,1276.4296000000006,5,1276.4301000000005,5,3,153,29,1,1.6,0.7,Time
,,228809,001,,,2025-06-04_13h25.15.697,Serial_Dependence_U,2023.2.3,Win32,59.880239520968516,,,,,,1276.4307000000001,79,5,1276.4309000000003,79,,,,1279.9989000000003,1280.4914000000003,1279.4832000000001,1279.9987999999998,1277.4441000000006,1279.4831000000006,1280.4914000000003,1280.9819000000005,1280.982,1283.5652999999998,2142,1283.5654000000004,5,1283.5657,5,4,154,26,1,1,0.7,Time
,,228809,001,,,2025-06-04_13h25.15.697,Serial_Dependence_U,2023.2.3,Win32,59.880239520968516,,,,,,1283.5662000000002,50,5,1283.5662999999997,50,,,,1287.56,1288.0614000000003,1287.0464000000004,1287.5599000000004,1284.5806000000005,1287.0462999999997,1288.0614000000003,1288.5615,1288.5615,1291.2952999999998,2345,1291.2954000000004,5,1291.2956000000006,5,5,155,3,1,1.4,0.3,Time
,,228809,001,,,2025-06-04_13h25.15.697,Serial_Dependence_U,2023.2.3,Win32,59.880239520968516,,,,,,1291.2959000000003,148,5,1291.296,148,,,,1295.4927999999998,1295.9917999999998,1294.9709000000005,1295.4927000000002,1292.3065,1294.9704000000004,1295.9917999999998,1296.4852999999998,1296.4854000000005,1299.2092000000002,2233,1299.2092999999998,5,1299.2096000000006,5,6,156,24,1,1.6,0.3,Time
,,228809,001,,,2025-06-04_13h25.15.697,Serial_Dependence_U,2023.2.3,Win32,59.880239520968516,,,,,,1299.2099000000003,129,5,1299.2101000000005,129,,,,1302.8012999999999,1303.3057999999999,1302.2912999999999,1302.801,1300.2078,1302.2912000000001,1303.3057999999999,1303.8052999999998,1303.8052999999998,1306.5391000000006,2312,1306.5392000000002,5,1306.5394000000003,5,7,157,1,1,1,0.3,Time
,,228809,001,,,2025-06-04_13h25.15.697,Serial_Dependence_U,2023.2.3,Win32,59.880239520968516,,,,,,1306.5396000000005,135,5,1306.5397000000003,135,,,,1310.0825,1310.5866000000005,1309.5714000000003,1310.082,1307.5337000000002,1309.5714000000003,1310.5866000000005,1311.0797999999998,1311.0797999999998,1313.7382000000002,2265,1313.7382000000002,5,1313.7385,5,8,158,6,1,1,0.7,Time
,,228809,001,,,2025-06-04_13h25.15.697,Serial_Dependence_U,2023.2.3,Win32,59.880239520968516,,,,,,1313.7389000000003,270,5,1313.7391000000005,270,,,,1317.1351000000006,1317.6337999999998,1316.619,1317.1351000000006,1314.7465,1316.619,1317.6339000000003,1318.134,1318.134,1321.2507999999998,2732,1321.2507999999998,5,1321.251,5,9,159,20,1,0.8,0.3,Time
,,228809,001,,,2025-06-04_13h25.15.697,Serial_Dependence_U,2023.2.3,Win32,59.880239520968516,,,,,,1321.2512000000002,131,5,1321.2512000000002,131,,,,1325.0434000000005,1325.5312000000001,1324.532,1325.0431000000005,1322.2635,1324.5319000000004,1325.5312000000001,1326.031,1326.031,1329.4112000000002,2896,1329.4112999999998,5,1329.4115,5,10,160,12,1,1.2,0.3,Time
,,228809,001,,,2025-06-04_13h25.15.697,Serial_Dependence_U,2023.2.3,Win32,59.880239520968516,,,,,,1329.4117,164,5,1329.4119000000003,164,,,,1333.6122999999998,1334.1111000000005,1333.0902999999998,1333.6122000000003,1330.4246000000005,1333.0897000000002,1334.1112000000003,1334.6112999999998,1334.6114000000005,1337.4106000000006,2432,1337.4106000000006,5,1337.4107000000001,5,11,161,14,1,1.6,0.3,Time
,,228809,001,,,2025-06-04_13h25.15.697,Serial_Dependence_U,2023.2.3,Win32,59.880239520968516,,,,,,1337.411,163,5,1337.411,163,,,,1341.3569000000005,1341.8515,1340.8536000000006,1341.3567999999998,1338.4101000000005,1340.8532000000002,1341.8515,1342.3512000000003,1342.3512999999998,1345.1752999999999,2562,1345.1752999999999,5,1345.1755,5,12,162,8,1,1.4,0.7,Time
,,228809,001,,,2025-06-04_13h25.15.697,Serial_Dependence_U,2023.2.3,Win32,59.880239520968516,,,,,,1345.1757000000002,16,5,1345.1757000000002,16,,,,1349.1332999999997,1349.6221000000005,1348.6242999999997,1349.133,1346.1914000000004,1348.6242000000002,1349.6221000000005,1350.1221000000005,1350.1221000000005,1352.8222999999998,2383,1352.8222999999998,5,1352.8226000000006,5,13,163,18,1,1.4,0.7,Time
,,228809,001,,,2025-06-04_13h25.15.697,Serial_Dependence_U,2023.2.3,Win32,59.880239520968516,,,,,,1352.8228,100,5,1352.823,100,,,,1356.1807000000001,1356.6688,1355.6707999999999,1356.1802999999998,1353.8316000000007,1355.6707000000001,1356.6688,1357.1627,1357.1627999999998,1360.0855,2597,1360.0855,5,1360.0857,5,14,164,25,1,0.8,0.7,Time
,,228809,001,,,2025-06-04_13h25.15.697,Serial_Dependence_U,2023.2.3,Win32,59.880239520968516,,,,,,1360.086,91,5,1360.0861000000007,91,,,,1363.878,1364.3662000000002,1363.3627000000001,1363.8776000000005,1361.096,1363.3622999999998,1364.3662000000002,1364.8672000000001,1364.8673,1367.8167999999998,2557,1367.8167999999998,5,1367.817,5,15,165,22,1,1.2,0.3,Time
,,228809,001,,,2025-06-04_13h25.15.697,Serial_Dependence_U,2023.2.3,Win32,59.880239520968516,,,,,,1367.8173,275,5,1367.8174000000004,275,,,,1371.7915,1372.2796000000005,1371.2756000000006,1371.7911000000006,1368.8129000000004,1371.2752999999998,1372.2796000000005,1372.7806000000005,1372.7807000000003,1375.2797999999998,2116,1375.2797999999998,5,1375.28,5,16,166,23,1,1.4,0.3,Time
,,228809,001,,,2025-06-04_13h25.15.697,Serial_Dependence_U,2023.2.3,Win32,59.880239520968516,,,,,,1375.2802000000001,65,5,1375.2804000000003,65,,,,1379.0279000000003,1379.5267999999999,1378.5115,1379.0277999999998,1376.2796000000005,1378.5114000000003,1379.5267999999999,1380.0203,1380.0204000000003,1382.9533,2604,1382.9535,5,1382.9547000000002,5,17,167,7,1,1.2,0.7,Time
,,228809,001,,,2025-06-04_13h25.15.697,Serial_Dependence_U,2023.2.3,Win32,59.880239520968516,,,,,,1382.9557000000002,215,5,1382.9557999999997,215,,,,1386.3202999999999,1386.8187000000003,1385.8087999999998,1386.32,1383.9702999999997,1385.8087999999998,1386.8187999999998,1387.3076000000005,1387.3076000000005,1389.1415,1526,1389.1417000000001,5,1389.1419000000003,5,18,168,5,1,0.8,0.7,Time
,,228809,001,,,2025-06-04_13h25.15.697,Serial_Dependence_U,2023.2.3,Win32,59.880239520968516,,,,,,1389.1422000000002,96,5,1389.1422999999998,96,,,,1392.72,1393.2221000000006,1392.2187000000001,1392.72,1390.1527999999998,1392.2185,1393.2221000000006,1393.722,1393.722,1395.7227999999998,1709,1395.7227999999998,5,1395.7231000000006,5,19,169,21,1,1,0.3,Time
,,228809,001,,,2025-06-04_13h25.15.697,Serial_Dependence_U,2023.2.3,Win32,59.880239520968516,,,,,,1395.7232999999999,274,5,1395.7232999999999,274,,,,1399.3159000000003,1399.8128,1398.804,1399.3156000000006,1396.7387,1398.804,1399.8129000000004,1400.3128,1400.3129000000004,1403.3528,2649,1403.3528,5,1403.353,5,20,170,11,1,1,0.3,Time
,,228809,001,,,2025-06-04_13h25.15.697,Serial_Dependence_U,2023.2.3,Win32,59.880239520968516,,,,,,1403.3532000000002,302,5,1403.3532999999998,302,,,,1407.1118,1407.6004000000005,1406.6018,1407.1114000000005,1404.3522999999998,1406.6017000000002,1407.6004000000005,1408.0937999999999,1408.0939000000003,1410.9335,2581,1410.9335,5,1410.9337000000003,5,21,171,27,1,1.2,0.7,Time
,,228809,001,,,2025-06-04_13h25.15.697,Serial_Dependence_U,2023.2.3,Win32,59.880239520968516,,,,,,1410.9339000000004,11,5,1410.934,11,,,,1414.8763,1415.3646000000006,1414.3644000000004,1414.8757999999998,1411.9321000000007,1414.3644000000004,1415.3647,1415.8635,1415.8635,1419.1075,2844,1419.1077000000002,5,1419.1086000000005,5,22,172,28,1,1.4,0.7,Time
,,228809,001,,,2025-06-04_13h25.15.697,Serial_Dependence_U,2023.2.3,Win32,59.880239520968516,,,,,,1419.109,242,5,1419.1092,242,,,,1422.5074000000004,1423.0101000000006,1421.9929000000004,1422.507,1420.1232999999997,1421.9927999999998,1423.0102000000002,1423.51,1423.51,1426.3416000000007,2196,1426.3417000000002,5,1426.3419000000004,5,23,173,0,1,0.8,0.3,Time
,,228809,001,,,2025-06-04_13h25.15.697,Serial_Dependence_U,2023.2.3,Win32,59.880239520968516,,,,,,1426.3421000000005,252,5,1426.3422999999998,252,,,,1429.7362000000003,1430.2246000000005,1429.2259000000004,1429.7359000000004,1427.3602000000003,1429.2257999999997,1430.2247000000002,1430.7185,1430.7186000000006,1433.1244000000004,2115,1433.1245,5,1433.1247000000003,5,24,174,10,1,0.8,0.3,Time
,,228809,001,,,2025-06-04_13h25.15.697,Serial_Dependence_U,2023.2.3,Win32,59.880239520968516,,,,,,1433.1249000000005,91,5,1433.125,91,,,,1437.1169000000004,1437.6057000000003,1436.6018,1437.1164000000003,1434.1345000000001,1436.6017000000002,1437.6057000000003,1438.0996000000005,1438.0997000000002,1440.889,2465,1440.889,5,1440.8892999999998,5,25,175,13,1,1.4,0.3,Time
,,228809,001,,,2025-06-04_13h25.15.697,Serial_Dependence_U,2023.2.3,Win32,59.880239520968516,,,,,,1440.8896000000007,165,5,1440.8897000000002,165,,,,1444.2672999999998,1444.7687,1443.7544000000005,1444.2671000000005,1441.9047000000003,1443.7542999999998,1444.7687999999998,1445.2682000000002,1445.2682000000002,1448.369,2815,1448.369,5,1448.3692999999998,5,26,176,15,1,0.8,0.7,Time
,,228809,001,,,2025-06-04_13h25.15.697,Serial_Dependence_U,2023.2.3,Win32,59.880239520968516,,,,,,1448.3695,185,5,1448.3696000000007,185,,,,1452.5282999999997,1453.0329000000004,1452.0172999999998,1452.5279000000003,1449.3857000000003,1452.0172999999998,1453.0329000000004,1453.526,1453.5261000000005,1456.0832000000003,2243,1456.0832000000003,5,1456.0834000000004,5,27,177,9,1,1.6,0.7,Time
,,228809,001,,,2025-06-04_13h25.15.697,Serial_Dependence_U,2023.2.3,Win32,59.880239520968516,,,,,,1456.0836000000006,36,5,1456.0837000000001,36,,,,1459.6316000000006,1460.1234000000004,1459.1311000000005,1459.6316000000006,1457.0925,1459.131,1460.1234000000004,1460.6297000000002,1460.6297000000002,1463.1966000000007,2264,1463.1967999999997,5,1463.1970000000001,5,28,178,16,1,1,0.7,Time
,,228809,001,,,2025-06-04_13h25.15.697,Serial_Dependence_U,2023.2.3,Win32,59.880239520968516,,,,,,1463.1972000000003,63,5,1463.1974000000005,63,,,,1467.3554000000004,1467.8616000000006,1466.8456000000006,1467.355,1464.2072000000003,1466.8455,1467.8616000000006,1468.3542999999997,1468.3545,1470.546,1931,1470.546,4,1470.5462999999997,5,29,179,19,1,1.6,0.7,Time
,,228809,001,,,2025-06-04_13h25.15.697,Serial_Dependence_U,2023.2.3,Win32,59.880239520968516,,,,,,1470.5467,72,6,1475.9762000000003,72,s,5.416399999999385,,1479.7187000000001,1480.2157999999997,1479.2072000000003,1479.7184000000004,1476.9751000000006,1479.2072000000003,1480.2157999999997,1480.7217999999998,1480.7217999999998,1482.6399000000004,1565,1482.64,5,1482.6404000000005,6,0,180,27,1,1.2,0.7,Time
,,228809,001,,,2025-06-04_13h25.15.697,Serial_Dependence_U,2023.2.3,Win32,59.880239520968516,,,,,,1482.6406000000006,228,6,1482.6417999999999,228,,,,1485.9984000000004,1486.5032,1485.4877999999999,1485.9979000000003,1483.6522000000002,1485.4877999999999,1486.5032,1486.9968,1486.9968,1489.4032999999997,1599,1489.4032999999997,5,1489.4035,6,1,181,5,1,0.8,0.7,Time
,,228809,001,,,2025-06-04_13h25.15.697,Serial_Dependence_U,2023.2.3,Win32,59.880239520968516,,,,,,1489.4037999999998,359,6,1489.4037999999998,359,,,,1493.3954000000003,1493.8847000000003,1492.8851000000006,1493.395,1490.4204000000004,1492.8851000000006,1493.8847000000003,1494.3834000000004,1494.3834000000004,1496.8672000000001,1949,1496.8672000000001,5,1496.8674000000003,6,2,182,3,1,1.4,0.3,Time
,,228809,001,,,2025-06-04_13h25.15.697,Serial_Dependence_U,2023.2.3,Win32,59.880239520968516,,,,,,1496.8676000000005,257,6,1496.8676000000005,257,,,,1500.2599000000005,1500.7479000000003,1499.7492000000002,1500.2595000000001,1497.8772000000001,1499.7491000000005,1500.7479000000003,1501.2477000000001,1501.2477999999999,1504.3655,2516,1504.3655,5,1504.3657999999998,6,3,183,10,1,0.8,0.3,Time
,,228809,001,,,2025-06-04_13h25.15.697,Serial_Dependence_U,2023.2.3,Win32,59.880239520968516,,,,,,1504.366,35,6,1504.3661000000006,35,,,,1508.1577000000002,1508.6612000000002,1507.6462999999999,1508.1572999999999,1505.3742999999997,1507.6462000000001,1508.6612000000002,1509.1619000000003,1509.1619000000003,1512.6614000000004,3060,1512.6615,5,1512.6617,6,4,184,22,1,1.2,0.3,Time
,,228809,001,,,2025-06-04_13h25.15.697,Serial_Dependence_U,2023.2.3,Win32,59.880239520968516,,,,,,1512.6619000000003,252,6,1512.6619000000003,252,,,,1516.6261000000006,1517.1185,1516.1097000000002,1516.6261000000006,1513.6711000000005,1516.1097000000002,1517.1185,1517.6249000000005,1517.6249000000005,1520.6919000000005,2316,1520.692,5,1520.6923,6,5,185,8,1,1.4,0.7,Time
,,228809,001,,,2025-06-04_13h25.15.697,Serial_Dependence_U,2023.2.3,Win32,59.880239520968516,,,,,,1520.6926000000005,75,6,1520.6927000000003,75,,,,1524.8734000000004,1525.3653,1524.3571000000006,1524.8732999999997,1521.6917999999998,1524.357,1525.3653,1525.8551000000007,1525.8552000000002,1529.1222999999998,2832,1529.1224000000004,5,1529.1227999999999,6,6,186,14,1,1.6,0.3,Time
,,228809,001,,,2025-06-04_13h25.15.697,Serial_Dependence_U,2023.2.3,Win32,59.880239520968516,,,,,,1529.1231000000005,213,6,1529.1232999999997,213,,,,1532.8702999999998,1533.3624000000004,1532.3675,1532.8702000000003,1530.1317999999999,1532.3674000000003,1533.3624000000004,1533.8519000000003,1533.8519000000003,1536.0696000000005,1816,1536.0696000000005,5,1536.0699000000004,6,7,187,17,1,1.2,0.7,Time
,,228809,001,,,2025-06-04_13h25.15.697,Serial_Dependence_U,2023.2.3,Win32,59.880239520968516,,,,,,1536.0701000000006,331,6,1536.0702,331,,,,1539.6615,1540.1497000000002,1539.151,1539.6611000000005,1537.079,1539.1509000000003,1540.1497000000002,1540.6492999999998,1540.6492999999998,1542.9662999999998,2032,1542.9664000000005,5,1542.9665,6,8,188,11,1,1,0.3,Time
,,228809,001,,,2025-06-04_13h25.15.697,Serial_Dependence_U,2023.2.3,Win32,59.880239520968516,,,,,,1542.9668,355,6,1542.9669000000004,355,,,,1546.5487000000003,1547.0404000000003,1546.0322999999999,1546.5486000000005,1543.9832000000001,1546.0322999999999,1547.0404000000003,1547.5307000000003,1547.5307000000003,1549.6146000000006,1650,1549.6146000000006,5,1549.6149000000005,6,9,189,16,1,1,0.7,Time
,,228809,001,,,2025-06-04_13h25.15.697,Serial_Dependence_U,2023.2.3,Win32,59.880239520968516,,,,,,1549.615,324,6,1549.6152000000002,324,,,,1553.0142000000003,1553.5048,1552.4971000000005,1553.0141000000006,1550.6244000000004,1552.497,1553.5049000000004,1553.9941000000006,1553.9941000000006,1556.7282000000002,2282,1556.7282000000002,5,1556.7284000000004,6,10,190,20,1,0.8,0.3,Time
,,228809,001,,,2025-06-04_13h25.15.697,Serial_Dependence_U,2023.2.3,Win32,59.880239520968516,,,,,,1556.7286000000006,40,6,1556.7287000000001,40,,,,1560.9041000000007,1561.3922000000002,1560.3932000000002,1560.9037000000003,1557.7392000000002,1560.3931000000005,1561.3922000000002,1561.8915,1561.8915,1563.9752999999998,1708,1563.9752999999998,4,1563.9756000000007,6,11,191,9,1,1.6,0.7,Time
,,228809,001,,,2025-06-04_13h25.15.697,Serial_Dependence_U,2023.2.3,Win32,59.880239520968516,,,,,,1563.9759000000004,236,6,1563.976,236,,,,1568.1376000000005,1568.6395,1567.6174000000003,1568.1376000000005,1564.9747000000002,1567.6171000000006,1568.6395,1569.1387999999997,1569.1389000000004,1571.3229000000003,1865,1571.3229000000003,4,1571.3231000000005,6,12,192,19,1,1.6,0.7,Time
,,228809,001,,,2025-06-04_13h25.15.697,Serial_Dependence_U,2023.2.3,Win32,59.880239520968516,,,,,,1571.3232999999998,140,6,1571.3234000000004,140,,,,1575.1012000000003,1575.6028,1574.5871000000006,1575.1011000000005,1572.3385,1574.587,1575.6028,1576.1031000000005,1576.1032000000002,1578.5199000000005,1866,1578.52,5,1578.5202000000002,6,13,193,7,1,1.2,0.7,Time
,,228809,001,,,2025-06-04_13h25.15.697,Serial_Dependence_U,2023.2.3,Win32,59.880239520968516,,,,,,1578.5204000000003,302,6,1578.5205,302,,,,1582.5186000000006,1583.0102000000002,1582.0013,1582.5186000000006,1579.5297000000003,1582.0012000000002,1583.0102000000002,1583.5172000000002,1583.5172999999998,1586.2012999999997,2295,1586.2012999999997,5,1586.2017999999998,6,14,194,13,1,1.4,0.3,Time
,,228809,001,,,2025-06-04_13h25.15.697,Serial_Dependence_U,2023.2.3,Win32,59.880239520968516,,,,,,1586.2021000000007,16,6,1586.2024000000004,16,,,,1590.193,1590.6905,1589.6769000000004,1590.1926000000005,1587.2099000000003,1589.6764000000003,1590.6906000000006,1591.1805,1591.1805,1594.1639000000005,2659,1594.164,5,1594.1642000000002,6,15,195,23,1,1.4,0.3,Time
,,228809,001,,,2025-06-04_13h25.15.697,Serial_Dependence_U,2023.2.3,Win32,59.880239520968516,,,,,,1594.1645,23,6,1594.1647000000003,23,,,,1597.7562000000003,1598.2441000000006,1597.2457000000002,1597.7558,1595.1809000000003,1597.2456000000006,1598.2441000000006,1598.7392999999997,1598.7394000000004,1602.244,2595,1602.2441000000006,5,1602.2442,6,16,196,21,1,1,0.3,Time
,,228809,001,,,2025-06-04_13h25.15.697,Serial_Dependence_U,2023.2.3,Win32,59.880239520968516,,,,,,1602.2445,258,6,1602.2446000000007,258,,,,1606.0422,1606.5416000000005,1605.5258,1606.0422,1603.254,1605.5257000000001,1606.5416000000005,1607.0345,1607.0347000000002,1609.8582000000001,2408,1609.8582999999999,5,1609.8584000000003,6,17,197,12,1,1.2,0.3,Time
,,228809,001,,,2025-06-04_13h25.15.697,Serial_Dependence_U,2023.2.3,Win32,59.880239520968516,,,,,,1609.8585,308,6,1609.8587000000002,308,,,,1613.423,1613.9227000000003,1612.9072,1613.423,1610.8676000000005,1612.9072,1613.9227000000003,1614.4212000000002,1614.4212000000002,1616.9896000000006,2444,1616.9897,5,1616.99,6,18,198,26,1,1,0.7,Time
,,228809,001,,,2025-06-04_13h25.15.697,Serial_Dependence_U,2023.2.3,Win32,59.880239520968516,,,,,,1616.9904000000004,201,6,1616.9905,201,,,,1620.5697999999998,1621.0622999999998,1620.0547000000001,1620.5697000000002,1617.9884000000004,1620.0545,1621.0624000000005,1621.5522999999998,1621.5524000000005,1624.4694000000004,2465,1624.4694000000004,5,1624.4696000000006,6,19,199,1,1,1,0.3,Time
,,228809,001,,,2025-06-04_13h25.15.697,Serial_Dependence_U,2023.2.3,Win32,59.880239520968516,,,,,,1624.4699000000003,5,6,1624.47,5,,,,1628.4339000000004,1628.9264000000003,1627.9174000000003,1628.4337999999998,1625.4821000000006,1627.9172999999998,1628.9266000000005,1629.4159000000004,1629.416,1632.009,2262,1632.0094000000004,5,1632.0111000000006,6,20,200,28,1,1.4,0.7,Time
,,228809,001,,,2025-06-04_13h25.15.697,Serial_Dependence_U,2023.2.3,Win32,59.880239520968516,,,,,,1632.0116000000005,114,6,1632.0117000000002,114,,,,1636.1926000000005,1636.6965,1635.6807999999999,1636.1922000000002,1633.0149000000004,1635.6807999999999,1636.6965,1637.1959000000004,1637.196,1640.2132000000001,2433,1640.2132000000001,5,1640.2134000000003,6,21,201,24,1,1.6,0.3,Time
,,228809,001,,,2025-06-04_13h25.15.697,Serial_Dependence_U,2023.2.3,Win32,59.880239520968516,,,,,,1640.2135,56,6,1640.2136000000005,56,,,,1644.3887000000002,1644.8765,1643.8779000000004,1644.3882999999998,1641.2091000000005,1643.8777999999998,1644.8765,1645.3767999999998,1645.3767999999998,1647.9611000000007,2183,1647.9611000000007,5,1647.9614000000004,6,22,202,4,1,1.6,0.3,Time
,,228809,001,,,2025-06-04_13h25.15.697,Serial_Dependence_U,2023.2.3,Win32,59.880239520968516,,,,,,1647.9617999999998,115,6,1647.9619000000005,115,,,,1651.9026000000006,1652.4071000000006,1651.3912999999998,1651.902,1648.9578,1651.3912000000003,1652.4071000000006,1652.9067999999997,1652.9067999999997,1655.7236000000005,2268,1655.7236000000005,5,1655.7237999999998,6,23,203,18,1,1.4,0.7,Time
,,228809,001,,,2025-06-04_13h25.15.697,Serial_Dependence_U,2023.2.3,Win32,59.880239520968516,,,,,,1655.724,216,6,1655.7241000000006,216,,,,1659.0999000000004,1659.598,1658.5889000000004,1659.0994000000003,1656.7236000000005,1658.5889000000004,1659.598,1660.1046000000006,1660.1046000000006,1663.455,2815,1663.4551000000006,5,1663.4552999999999,6,24,204,0,1,0.8,0.3,Time
,,228809,001,,,2025-06-04_13h25.15.697,Serial_Dependence_U,2023.2.3,Win32,59.880239520968516,,,,,,1663.4557000000002,224,6,1663.4559000000004,224,,,,1667.6019000000003,1668.0946000000006,1667.0975,1667.6019000000003,1664.4641000000006,1667.097,1668.0946000000006,1668.6016000000006,1668.6017000000002,1671.6342999999997,2649,1671.6342999999997,5,1671.6346000000005,6,25,205,29,1,1.6,0.7,Time
,,228809,001,,,2025-06-04_13h25.15.697,Serial_Dependence_U,2023.2.3,Win32,59.880239520968516,,,,,,1671.6347999999998,154,6,1671.6347999999998,154,,,,1674.9779000000003,1675.4751000000006,1674.4664000000005,1674.9772999999998,1672.6292999999998,1674.4662999999998,1675.4752,1675.9815,1675.9815,1678.5487000000003,2150,1678.5487000000003,5,1678.5489000000005,6,26,206,25,1,0.8,0.7,Time
,,228809,001,,,2025-06-04_13h25.15.697,Serial_Dependence_U,2023.2.3,Win32,59.880239520968516,,,,,,1678.549,106,6,1678.5492000000002,106,,,,1682.1302000000003,1682.6225,1681.6145,1682.1302000000003,1679.5584000000003,1681.6144000000004,1682.6226000000006,1683.112,1683.112,1685.363,1917,1685.3631000000005,5,1685.3632999999998,6,27,207,6,1,1,0.7,Time
,,228809,001,,,2025-06-04_13h25.15.697,Serial_Dependence_U,2023.2.3,Win32,59.880239520968516,,,,,,1685.3634000000004,328,6,1685.3636000000006,328,,,,1689.1607000000001,1689.6598,1688.6382999999998,1689.1606000000006,1686.3725,1688.638,1689.6598,1690.1534000000004,1690.1535,1693.6267999999998,2100,1693.6267999999998,5,1693.627,6,28,208,2,1,1.2,0.3,Time
,,228809,001,,,2025-06-04_13h25.15.697,Serial_Dependence_U,2023.2.3,Win32,59.880239520968516,,,,,,1693.6272999999999,146,6,1693.6274000000003,146,,,,1696.9881000000005,1697.4901000000007,1696.4692000000002,1696.988,1694.6359000000004,1696.4686000000006,1697.4901000000007,1697.9832999999999,1697.9834000000003,1700.5397000000003,2030,1700.5397999999998,5,1700.5399000000004,6,29,209,15,1,0.8,0.7,Time
,,228809,001,,,2025-06-04_13h25.15.697,Serial_Dependence_U,2023.2.3,Win32,59.880239520968516,,,,,,1700.5401000000006,270,7,1704.4884000000004,270,s,3.9325999999996384,,1707.881,1708.3696000000007,1707.3722999999998,1707.8805,1705.5017000000003,1707.3722000000002,1708.3696000000007,1708.8632999999998,1708.8634000000004,1711.1305,1886,1711.131,5,1711.1317999999999,7,0,210,20,1,0.8,0.3,Time
,,228809,001,,,2025-06-04_13h25.15.697,Serial_Dependence_U,2023.2.3,Win32,59.880239520968516,,,,,,1711.1322000000002,204,7,1711.134,204,,,,1714.9286000000006,1715.4162999999999,1714.4149000000004,1714.9282999999998,1712.1464000000003,1714.4147999999998,1715.4162999999999,1715.9167000000002,1715.9167999999997,1718.6837999999998,2078,1718.6839000000004,5,1718.6841000000006,7,1,211,22,1,1.2,0.3,Time
,,228809,001,,,2025-06-04_13h25.15.697,Serial_Dependence_U,2023.2.3,Win32,59.880239520968516,,,,,,1718.6844000000003,180,7,1718.6844000000003,180,,,,1722.8252000000002,1723.3138,1722.3164000000004,1722.8247999999999,1719.6826000000005,1722.3164000000004,1723.3138,1723.8079000000005,1723.8081000000006,1726.3975,2132,1726.3975,5,1726.3977000000002,7,2,212,9,1,1.6,0.7,Time
,,228809,001,,,2025-06-04_13h25.15.697,Serial_Dependence_U,2023.2.3,Win32,59.880239520968516,,,,,,1726.398,207,7,1726.3981000000006,207,,,,1729.9561000000006,1730.4439000000004,1729.4399000000003,1729.9557000000002,1727.397,1729.4395,1730.4439000000004,1730.9388,1730.9389000000003,1733.6287000000002,2413,1733.6287000000002,5,1733.6289000000004,7,3,213,6,1,1,0.7,Time
,,228809,001,,,2025-06-04_13h25.15.697,Serial_Dependence_U,2023.2.3,Win32,59.880239520968516,,,,,,1733.6291000000006,163,7,1733.6292,163,,,,1737.6096000000005,1738.1082999999999,1737.0922000000003,1737.6095,1734.627,1737.0922000000003,1738.1082999999999,1738.6079000000004,1738.608,1741.5345,2599,1741.5348,5,1741.5364000000004,7,4,214,23,1,1.4,0.3,Time
,,228809,001,,,2025-06-04_13h25.15.697,Serial_Dependence_U,2023.2.3,Win32,59.880239520968516,,,,,,1741.5367999999999,209,7,1741.5369000000003,209,,,,1744.9012000000002,1745.3987000000002,1744.3908,1744.9008,1742.5412000000001,1744.3907000000002,1745.3987000000002,1745.9049000000005,1745.9049000000005,1748.9061000000006,2283,1748.9062000000001,5,1748.9062999999999,7,5,215,15,1,0.8,0.7,Time
,,228809,001,,,2025-06-04_13h25.15.697,Serial_Dependence_U,2023.2.3,Win32,59.880239520968516,,,,,,1748.9065,229,7,1748.9067000000002,229,,,,1752.2976000000006,1752.7857999999999,1751.7811000000006,1752.2972999999997,1749.9165,1751.7807000000003,1752.7857999999999,1753.279,1753.279,1756.9188,2348,1756.9189000000003,5,1756.9191000000005,7,6,216,10,1,0.8,0.3,Time
,,228809,001,,,2025-06-04_13h25.15.697,Serial_Dependence_U,2023.2.3,Win32,59.880239520968516,,,,,,1756.9192999999998,263,7,1756.9194000000005,263,,,,1760.4841000000006,1760.9832999999999,1759.9679000000003,1760.484,1757.9292000000003,1759.9678,1760.9832999999999,1761.4822000000001,1761.4823,1764.5262000000002,2569,1764.5266000000006,5,1764.5282999999997,7,7,217,16,1,1,0.7,Time
,,228809,001,,,2025-06-04_13h25.15.697,Serial_Dependence_U,2023.2.3,Win32,59.880239520968516,,,,,,1764.5289000000005,274,7,1764.5291000000007,274,,,,1768.7247000000002,1769.2132000000001,1768.2141000000006,1768.7242999999999,1765.5448,1768.2141000000006,1769.2132000000001,1769.7125,1769.7125,1772.989,2921,1772.9894000000004,5,1772.9903,7,8,218,4,1,1.6,0.3,Time
,,228809,001,,,2025-06-04_13h25.15.697,Serial_Dependence_U,2023.2.3,Win32,59.880239520968516,,,,,,1772.9912000000002,111,7,1772.9914000000003,111,,,,1776.5387000000003,1777.0367,1776.028,1776.5384000000004,1773.9952999999998,1776.028,1777.0367,1777.5262000000002,1777.5262999999998,1780.5765,2664,1780.5765,5,1780.5767999999998,7,9,219,26,1,1,0.7,Time
,,228809,001,,,2025-06-04_13h25.15.697,Serial_Dependence_U,2023.2.3,Win32,59.880239520968516,,,,,,1780.577,327,7,1780.5771000000007,327,,,,1783.9355,1784.4409000000003,1783.4251000000006,1783.9351000000006,1781.5867999999998,1783.4251000000006,1784.4409000000003,1784.9407,1784.9407,1788.4401000000005,3115,1788.4401000000005,5,1788.4402000000002,7,10,220,5,1,0.8,0.7,Time
,,228809,001,,,2025-06-04_13h25.15.697,Serial_Dependence_U,2023.2.3,Win32,59.880239520968516,,,,,,1788.4404000000004,168,7,1788.4405,168,,,,1792.0391000000006,1792.5307999999998,1791.523,1792.039,1789.4514000000004,1791.5229000000004,1792.5309000000004,1793.0207999999998,1793.0207999999998,1796.1215,2702,1796.1216000000006,5,1796.1219000000003,7,11,221,1,1,1,0.3,Time
,,228809,001,,,2025-06-04_13h25.15.697,Serial_Dependence_U,2023.2.3,Win32,59.880239520968516,,,,,,1796.1222000000002,176,7,1796.1222999999998,176,,,,1800.3191000000006,1800.811,1799.8027000000002,1800.319,1797.1317000000001,1799.8027000000002,1800.811,1801.3182000000002,1801.3183,1803.2845,1745,1803.2845,4,1803.2847000000002,7,12,222,24,1,1.6,0.3,Time
,,228809,001,,,2025-06-04_13h25.15.697,Serial_Dependence_U,2023.2.3,Win32,59.880239520968516,,,,,,1803.2849000000003,229,7,1803.285,229,,,,1807.4435,1807.9485,1806.928,1807.4431000000006,1804.295,1806.9275,1807.9485,1808.4482999999998,1808.4482999999998,1810.8149000000003,2082,1810.815,5,1810.8151000000005,7,13,223,29,1,1.6,0.7,Time
,,228809,001,,,2025-06-04_13h25.15.697,Serial_Dependence_U,2023.2.3,Win32,59.880239520968516,,,,,,1810.8152999999998,242,7,1810.8152999999998,242,,,,1814.9904000000004,1815.4791000000005,1814.4741000000006,1814.99,1811.8117000000002,1814.4737000000002,1815.4791000000005,1815.9723,1815.9725,1821.145,2369,1821.145,5,1821.1451000000006,7,14,224,14,1,1.6,0.3,Time
,,228809,001,,,2025-06-04_13h25.15.697,Serial_Dependence_U,2023.2.3,Win32,59.880239520968516,,,,,,1821.1453,131,7,1821.1455,131,,,,1825.1087000000002,1825.6084000000003,1824.6066000000005,1825.1086000000005,1822.1391000000006,1824.6066000000005,1825.6084000000003,1826.1015,1826.1015,1828.5935,2016,1828.5936000000006,5,1828.5939000000003,7,15,225,3,1,1.4,0.3,Time
,,228809,001,,,2025-06-04_13h25.15.697,Serial_Dependence_U,2023.2.3,Win32,59.880239520968516,,,,,,1828.5942999999997,135,7,1828.5944000000004,135,,,,1832.5502999999999,1833.0389000000005,1832.0394000000003,1832.55,1829.6017000000002,1832.0393,1833.0389000000005,1833.5332999999998,1833.5334000000005,1836.6315,1920,1836.6317999999999,5,1836.6332000000002,7,16,226,18,1,1.4,0.7,Time
,,228809,001,,,2025-06-04_13h25.15.697,Serial_Dependence_U,2023.2.3,Win32,59.880239520968516,,,,,,1836.634,80,7,1836.6341000000007,80,,,,1840.6142000000002,1841.1037000000001,1840.104,1840.6137,1837.6329000000003,1840.1039000000003,1841.1037000000001,1841.6017000000002,1841.6018,1844.219,2182,1844.219,5,1844.2192000000002,7,17,227,13,1,1.4,0.3,Time
,,228809,001,,,2025-06-04_13h25.15.697,Serial_Dependence_U,2023.2.3,Win32,59.880239520968516,,,,,,1844.2195,308,7,1844.2195,308,,,,1847.815,1848.3102000000001,1847.295,1847.815,1845.2304000000004,1847.2946000000006,1848.3104000000003,1848.8007999999998,1848.8007999999998,1851.9112999999998,2275,1851.9114000000004,5,1851.9117999999999,7,18,228,11,1,1,0.3,Time
,,228809,001,,,2025-06-04_13h25.15.697,Serial_Dependence_U,2023.2.3,Win32,59.880239520968516,,,,,,1851.9122999999997,212,7,1851.9124000000004,212,,,,1855.6816000000006,1856.1832000000002,1855.1645,1855.6816000000006,1852.9261000000006,1855.1644000000003,1856.1832000000002,1856.6733,1856.6733,1859.6634000000004,2299,1859.6635,5,1859.6637000000003,7,19,229,17,1,1.2,0.7,Time
,,228809,001,,,2025-06-04_13h25.15.697,Serial_Dependence_U,2023.2.3,Win32,59.880239520968516,,,,,,1859.6639000000005,354,7,1859.6642000000002,354,,,,1863.6236000000006,1864.1282,1863.1111000000005,1863.6236000000006,1860.6732000000002,1863.111,1864.1282,1864.6212000000003,1864.6214000000004,1867.2459000000003,2251,1867.2459000000003,5,1867.2462000000003,7,20,230,8,1,1.4,0.7,Time
,,228809,001,,,2025-06-04_13h25.15.697,Serial_Dependence_U,2023.2.3,Win32,59.880239520968516,,,,,,1867.2467000000001,283,7,1867.2468,283,,,,1870.9861000000005,1871.4739000000004,1870.4722000000002,1870.9857000000002,1868.2397999999998,1870.4722000000002,1871.4739000000004,1871.9684000000004,1871.9685,1874.6247999999998,2333,1874.6247999999998,5,1874.6249000000005,7,21,231,27,1,1.2,0.7,Time
,,228809,001,,,2025-06-04_13h25.15.697,Serial_Dependence_U,2023.2.3,Win32,59.880239520968516,,,,,,1874.6251000000007,341,7,1874.6252000000002,341,,,,1878.2232999999999,1878.715,1877.7057999999997,1878.2232999999999,1875.6342000000002,1877.7057000000002,1878.715,1879.2147999999997,1879.2149000000004,1881.5384000000004,1949,1881.5384000000004,5,1881.5385,7,22,232,21,1,1,0.3,Time
,,228809,001,,,2025-06-04_13h25.15.697,Serial_Dependence_U,2023.2.3,Win32,59.880239520968516,,,,,,1881.5387999999998,265,7,1881.5389000000005,265,,,,1885.4837999999997,1885.979,1884.9699000000003,1885.4837000000002,1882.5342999999998,1884.9697999999999,1885.9792000000002,1886.4852999999998,1886.4852999999998,1889.0035,2128,1889.0036000000005,5,1889.004,7,23,233,28,1,1.4,0.7,Time
,,228809,001,,,2025-06-04_13h25.15.697,Serial_Dependence_U,2023.2.3,Win32,59.880239520968516,,,,,,1889.0045,250,7,1889.0047000000002,250,,,,1892.7777999999998,1893.266,1892.2681000000005,1892.7774000000004,1890.0017999999998,1892.268,1893.2661000000005,1893.7592999999997,1893.7592999999997,1895.7838,1683,1895.7838,5,1895.7839000000004,7,24,234,12,1,1.2,0.3,Time
,,228809,001,,,2025-06-04_13h25.15.697,Serial_Dependence_U,2023.2.3,Win32,59.880239520968516,,,,,,1895.7842000000003,352,7,1895.7842000000003,352,,,,1899.542,1900.048,1899.026,1899.5416000000005,1896.7927000000002,1899.0256000000006,1900.0481000000007,1900.5464000000004,1900.5464000000004,1903.2297999999998,2332,1903.2297999999998,5,1903.23,7,25,235,7,1,1.2,0.7,Time
,,228809,001,,,2025-06-04_13h25.15.697,Serial_Dependence_U,2023.2.3,Win32,59.880239520968516,,,,,,1903.2302000000002,326,7,1903.2302999999997,326,,,,1907.4119000000003,1907.9037999999998,1906.8892000000003,1907.4119000000003,1904.2466000000006,1906.8887999999997,1907.9037999999998,1908.3941000000007,1908.3941000000007,1911.094,2336,1911.094,5,1911.0942000000002,7,26,236,19,1,1.6,0.7,Time
,,228809,001,,,2025-06-04_13h25.15.697,Serial_Dependence_U,2023.2.3,Win32,59.880239520968516,,,,,,1911.0944000000004,272,7,1911.0945,272,,,,1914.4539000000004,1914.9578,1913.9365,1914.4535,1912.1035,1913.936,1914.9579000000003,1915.458,1915.458,1918.0244000000005,2213,1918.0245,5,1918.0246000000006,7,27,237,25,1,0.8,0.7,Time
,,228809,001,,,2025-06-04_13h25.15.697,Serial_Dependence_U,2023.2.3,Win32,59.880239520968516,,,,,,1918.0249000000003,163,7,1918.0249000000003,163,,,,1921.4229000000005,1921.9154000000003,1920.9011000000005,1921.4229000000005,1919.0342999999998,1920.9007000000001,1921.9156000000005,1922.4051000000006,1922.4051000000006,1924.9225,2160,1924.9225,5,1924.9227000000003,7,28,238,0,1,0.8,0.3,Time
,,228809,001,,,2025-06-04_13h25.15.697,Serial_Dependence_U,2023.2.3,Win32,59.880239520968516,,,,,,1924.9229000000005,36,7,1924.9229000000005,36,,,,1928.7142000000001,1929.2133,1928.204,1928.7137000000002,1925.9317,1928.204,1929.2135,1929.7027999999998,1929.7029000000005,1932.8372000000002,2800,1932.8372000000002,5,1932.8374000000003,7,29,239,2,1,1.2,0.3,Time
,,228809,001,,,2025-06-04_13h25.15.697,Serial_Dependence_U,2023.2.3,Win32,59.880239520968516,,,,,,1932.8375,322,8,1940.809,322,s,7.950500000000147,,1944.375,1944.8798,1943.8647999999998,1944.3746000000006,1941.7993,1943.8647,1944.8798,1945.373,1945.373,1947.8138,2009,1947.8138,5,1947.8142000000003,8,0,240,11,1,1,0.3,Time
,,228809,001,,,2025-06-04_13h25.15.697,Serial_Dependence_U,2023.2.3,Win32,59.880239520968516,,,,,,1947.8146000000006,163,8,1947.8157,163,,,,1952.0054000000005,1952.4937000000002,1951.4946000000007,1952.0049000000004,1948.8232000000003,1951.4946000000007,1952.4937000000002,1952.9867000000002,1952.9868,1955.3437999999999,2066,1955.3439000000003,4,1955.3441000000005,8,1,241,24,1,1.6,0.3,Time
,,228809,001,,,2025-06-04_13h25.15.697,Serial_Dependence_U,2023.2.3,Win32,59.880239520968516,,,,,,1955.3442000000002,274,8,1955.3444000000004,274,,,,1959.5191000000007,1960.0079000000003,1959.0027999999998,1959.5186000000006,1956.3401000000006,1959.0022999999999,1960.0079000000003,1960.5072999999998,1960.5072999999998,1963.1337999999998,2073,1963.1341000000007,4,1963.1352000000002,8,2,242,4,1,1.6,0.3,Time
,,228809,001,,,2025-06-04_13h25.15.697,Serial_Dependence_U,2023.2.3,Win32,59.880239520968516,,,,,,1963.1359000000004,79,8,1963.136,79,,,,1967.0997999999997,1967.5883,1966.5887000000002,1967.0995,1964.1537999999998,1966.5886000000005,1967.5884000000003,1968.0872000000002,1968.0872000000002,1970.855,2360,1970.855,5,1970.8551000000007,8,3,243,18,1,1.4,0.7,Time
,,228809,001,,,2025-06-04_13h25.15.697,Serial_Dependence_U,2023.2.3,Win32,59.880239520968516,,,,,,1970.8552999999997,53,8,1970.8555000000001,53,,,,1974.2194000000004,1974.7191000000005,1973.7029000000005,1974.2194000000004,1971.8672000000001,1973.7027999999998,1974.7191000000005,1975.2176000000006,1975.2176000000006,1978.0526000000007,2450,1978.0526000000007,5,1978.0529000000004,8,4,244,15,1,0.8,0.7,Time
,,228809,001,,,2025-06-04_13h25.15.697,Serial_Dependence_U,2023.2.3,Win32,59.880239520968516,,,,,,1978.0532000000003,194,8,1978.0532999999998,194,,,,1982.2164000000005,1982.716,1981.7002999999997,1982.2164000000005,1979.0615,1981.7002000000002,1982.716,1983.2096000000006,1983.2097,1985.9751000000006,2450,1985.9755,5,1985.9769000000003,8,5,245,9,1,1.6,0.7,Time
,,228809,001,,,2025-06-04_13h25.15.697,Serial_Dependence_U,2023.2.3,Win32,59.880239520968516,,,,,,1985.9774000000004,146,8,1985.9775,146,,,,1989.7414000000003,1990.2394000000004,1989.2312000000002,1989.741,1986.9921000000006,1989.2311000000007,1990.2394000000004,1990.7289000000003,1990.7289000000003,1993.3126000000007,2182,1993.3127000000002,5,1993.3129000000004,8,6,246,27,1,1.2,0.7,Time
,,228809,001,,,2025-06-04_13h25.15.697,Serial_Dependence_U,2023.2.3,Win32,59.880239520968516,,,,,,1993.313,40,8,1993.3131000000005,40,,,,1997.109,1997.6037999999999,1996.5942000000002,1997.1089000000004,1994.3224000000005,1996.5942000000002,1997.6037999999999,1998.0924000000005,1998.0925,2000.9194000000005,2435,2000.9197000000001,5,2000.9206000000006,8,7,247,2,1,1.2,0.3,Time
,,228809,001,,,2025-06-04_13h25.15.697,Serial_Dependence_U,2023.2.3,Win32,59.880239520968516,,,,,,2000.9212999999997,95,8,2000.9216000000006,95,,,,2004.8584000000003,2005.3571000000006,2004.3521000000005,2004.8582999999999,2001.9197000000001,2004.3516000000006,2005.3571000000006,2005.8501000000006,2005.8501000000006,2009.0747000000001,2716,2009.0747999999999,5,2009.0751000000005,8,8,248,28,1,1.4,0.7,Time
,,228809,001,,,2025-06-04_13h25.15.697,Serial_Dependence_U,2023.2.3,Win32,59.880239520968516,,,,,,2009.0754000000004,38,8,2009.0756000000006,38,,,,2012.8486000000005,2013.3375,2012.3386000000005,2012.8482000000001,2010.0734000000004,2012.3386000000005,2013.3375,2013.8304000000003,2013.8304000000003,2017.0131000000006,2646,2017.0134000000003,5,2017.0145,8,9,249,22,1,1.2,0.3,Time
,,228809,001,,,2025-06-04_13h25.15.697,Serial_Dependence_U,2023.2.3,Win32,59.880239520968516,,,,,,2017.0155,107,8,2017.0155,107,,,,2021.0024000000003,2021.4942,2020.4964000000004,2021.0024000000003,2018.0302000000001,2020.4959000000003,2021.4942,2021.9837000000002,2021.9837999999997,2024.794,2205,2024.7942999999998,5,2024.7957000000001,8,10,250,3,1,1.4,0.3,Time
,,228809,001,,,2025-06-04_13h25.15.697,Serial_Dependence_U,2023.2.3,Win32,59.880239520968516,,,,,,2024.7961000000005,219,8,2024.7962999999997,219,,,,2028.3462000000002,2028.8476000000005,2027.8434000000004,2028.3461000000007,2025.8107000000002,2027.843,2028.8476000000005,2029.3484000000003,2029.3485,2032.1812,2457,2032.1812,5,2032.1815000000001,8,11,251,16,1,1,0.7,Time
,,228809,001,,,2025-06-04_13h25.15.697,Serial_Dependence_U,2023.2.3,Win32,59.880239520968516,,,,,,2032.1817,344,8,2032.1817,344,,,,2036.3234000000002,2036.8216000000007,2035.8132,2036.3231000000005,2033.1786000000006,2035.8131000000008,2036.8217000000004,2037.3112,2037.3112999999998,2040.6715,2755,2040.6722,5,2040.6733,8,12,252,19,1,1.6,0.7,Time
,,228809,001,,,2025-06-04_13h25.15.697,Serial_Dependence_U,2023.2.3,Win32,59.880239520968516,,,,,,2040.6737000000003,355,8,2040.6739000000002,355,,,,2044.2702999999997,2044.7762000000002,2043.7620000000002,2044.2699000000002,2041.6892000000003,2043.7617999999998,2044.7762000000002,2045.2755000000002,2045.2755000000002,2048.7262,3133,2048.7263,5,2048.7267,8,13,253,21,1,1,0.3,Time
,,228809,001,,,2025-06-04_13h25.15.697,Serial_Dependence_U,2023.2.3,Win32,59.880239520968516,,,,,,2048.727,275,8,2048.7271000000005,275,,,,2052.1175,2052.6166000000007,2051.6069,2052.1171000000004,2049.735,2051.6068,2052.6168,2053.1227999999996,2053.1229000000003,2056.8727000000003,3366,2056.8727000000003,5,2056.8729000000003,8,14,254,20,1,0.8,0.3,Time
,,228809,001,,,2025-06-04_13h25.15.697,Serial_Dependence_U,2023.2.3,Win32,59.880239520968516,,,,,,2056.8731000000007,179,8,2056.8732,179,,,,2060.4478,2060.9525,2059.9379000000004,2060.4473,2057.8887,2059.9377999999997,2060.9525,2061.4456000000005,2061.4457,2065.2353,3411,2065.2354000000005,5,2065.2357,8,15,255,6,1,1,0.7,Time
,,228809,001,,,2025-06-04_13h25.15.697,Serial_Dependence_U,2023.2.3,Win32,59.880239520968516,,,,,,2065.2359000000006,308,8,2065.2361000000005,308,,,,2069.2275,2069.7155,2068.7171000000008,2069.2272000000003,2066.2453,2068.7171000000008,2069.7155,2070.2152,2070.2153,2073.2823,2732,2073.2823,5,2073.2825,8,16,256,13,1,1.4,0.3,Time
,,228809,001,,,2025-06-04_13h25.15.697,Serial_Dependence_U,2023.2.3,Win32,59.880239520968516,,,,,,2073.2828,27,8,2073.2829,27,,,,2076.6802000000002,2077.1733,2076.1585,2076.6802000000002,2074.2921000000006,2076.158,2077.1733,2077.6797,2077.6798,2081.09,3034,2081.0903,5,2081.0912000000003,8,17,257,10,1,0.8,0.3,Time
,,228809,001,,,2025-06-04_13h25.15.697,Serial_Dependence_U,2023.2.3,Win32,59.880239520968516,,,,,,2081.0915,224,8,2081.0916000000007,224,,,,2085.2552,2085.7532,2084.7383,2085.2547999999997,2082.0947,2084.7379000000005,2085.7532,2086.2426000000005,2086.2426000000005,2089.6529000000005,3026,2089.6532,5,2089.6547,8,18,258,29,1,1.6,0.7,Time
,,228809,001,,,2025-06-04_13h25.15.697,Serial_Dependence_U,2023.2.3,Win32,59.880239520968516,,,,,,2089.655,75,8,2089.6551000000004,75,,,,2093.6517000000003,2094.1524000000004,2093.1416000000004,2093.6513,2090.6702,2093.1416000000004,2094.1524000000004,2094.6569000000004,2094.6569000000004,2096.6736000000005,1682,2096.6737000000003,4,2096.6739000000002,8,19,259,23,1,1.4,0.3,Time
,,228809,001,,,2025-06-04_13h25.15.697,Serial_Dependence_U,2023.2.3,Win32,59.880239520968516,,,,,,2096.6742000000004,112,8,2096.6742999999997,112,,,,2100.8494000000005,2101.3372000000004,2100.3383,2100.8487,2097.6731000000004,2100.3382,2101.3372000000004,2101.8369000000002,2101.8369000000002,2104.2875,2115,2104.2875,5,2104.2879000000003,8,20,260,14,1,1.6,0.3,Time
,,228809,001,,,2025-06-04_13h25.15.697,Serial_Dependence_U,2023.2.3,Win32,59.880239520968516,,,,,,2104.2881000000007,286,8,2104.2882000000004,286,,,,2107.8637000000003,2108.3515,2107.3525,2107.8634,2105.3034000000002,2107.3525,2108.3515,2108.8506000000007,2108.8506000000007,2111.5849000000003,2427,2111.585,5,2111.5851000000007,8,21,261,26,1,1,0.7,Time
,,228809,001,,,2025-06-04_13h25.15.697,Serial_Dependence_U,2023.2.3,Win32,59.880239520968516,,,,,,2111.5852999999997,355,8,2111.5854000000004,355,,,,2115.3449000000005,2115.8424000000005,2114.8333,2115.3447,2112.5835,2114.8332,2115.8425,2116.3312,2116.3312,2119.2147999999997,2549,2119.2147999999997,5,2119.215,8,22,262,17,1,1.2,0.7,Time
,,228809,001,,,2025-06-04_13h25.15.697,Serial_Dependence_U,2023.2.3,Win32,59.880239520968516,,,,,,2119.2153,61,8,2119.2153,61,,,,2122.5643,2123.0619000000006,2122.0634000000005,2122.5643,2120.2249,2122.0634000000005,2123.0619000000006,2123.5559000000003,2123.5561000000007,2126.0458,2240,2126.0458,5,2126.0459000000005,8,23,263,25,1,0.8,0.7,Time
