Scale_setup.started,Scale_setup.stopped,participant,session,sex,age,date,expName,psychopyVersion,OS,frameRate,Intro.started,Intro.stopped,key_resp_2.keys,key_resp_2.rt,key_resp_2.duration,block.started,direction,Block_id,block.stopped,trial_direction,Block_resp_2.keys,Block_resp_2.rt,Block_resp_2.duration,ITI.started,ITI.stopped,Mask_2.started,Mask_2.stopped,encoding.started,encoding.stopped,Cue.started,Cue.stopped,Response.started,Response.stopped,keyDuration,Feedback_Time.started,FeedbackID_T,Feedback_Time.stopped,trials.thisRepN,trials.thisTrialN,trials.thisN,trials.thisIndex,trials.ran,TimeDur,Coherence1,TrialType
0.000399999976160359,0.000799999952320718,241220,001,,,2025-06-04_16h27.42.967,Serial_Dependence_U,2023.2.3,Win32,59.880239520968516,,,,,,,,,,,,,,,,,,,,,,,,,,,,,,,,,,,
,,241220,001,,,2025-06-04_16h27.42.967,Serial_Dependence_U,2023.2.3,Win32,59.880239520968516,205.5182999999523,422.4093999999762,space,216.81989999997614,,,,,,,,,,,,,,,,,,,,,,,,,,,,,,,
,,241220,001,,,2025-06-04_16h27.42.967,Serial_Dependence_U,2023.2.3,Win32,59.880239520968516,,,,,,422.4291000000239,224,0,437.9201999999285,224,s,15.444799999952295,,441.90250000000003,442.40160000002385,441.3923999999762,441.9021999999285,438.92739999997616,441.39229999995234,442.4018999999762,442.9018999999762,442.9023999999762,447.70779999995233,583,447.70839999997617,1,448.6998999999762,0,0,0,3,1,1.4,0.3,Time
,,241220,001,,,2025-06-04_16h27.42.967,Serial_Dependence_U,2023.2.3,Win32,59.880239520968516,,,,,,448.70110000002387,133,0,448.7037999999523,133,,,,452.0725,452.56479999995236,451.55560000002384,452.0723999999762,449.72269999992847,451.5553999999762,452.56489999997615,453.06460000002386,453.0646999999285,456.4383999999762,2149,456.4386000000239,5,457.4296999999285,0,1,1,15,1,0.8,0.7,Time
,,241220,001,,,2025-06-04_16h27.42.967,Serial_Dependence_U,2023.2.3,Win32,59.880239520968516,,,,,,457.4303999999762,180,0,457.43079999995234,180,,,,461.22919999992854,461.72839999997615,460.7128999999762,461.22910000002383,458.4466999999285,460.7127999999523,461.72839999997615,462.228,462.22810000002386,463.6116000000239,885,463.6116999999285,2,464.6106000000239,0,2,2,22,1,1.2,0.3,Time
,,241220,001,,,2025-06-04_16h27.42.967,Serial_Dependence_U,2023.2.3,Win32,59.880239520968516,,,,,,464.6113999999762,298,0,464.6118999999762,298,,,,468.7765,469.27569999992846,468.26669999992845,468.7762999999523,465.6336000000238,468.26660000002386,469.2757999999523,469.7755,469.7755,476.3472999999523,2700,476.3473999999762,5,477.3395,0,3,3,29,1,1.6,0.7,Time
,,241220,001,,,2025-06-04_16h27.42.967,Serial_Dependence_U,2023.2.3,Win32,59.880239520968516,,,,,,477.34019999992853,219,0,477.3406000000238,219,,,,481.49479999995236,481.9877999999523,480.97919999992854,481.4946999999285,478.3455000000001,480.97910000002383,481.9877999999523,482.48760000002386,482.48769999992845,487.3432999999523,2176,487.34339999997616,5,488.33579999995237,0,4,4,19,1,1.6,0.7,Time
,,241220,001,,,2025-06-04_16h27.42.967,Serial_Dependence_U,2023.2.3,Win32,59.880239520968516,,,,,,488.3366000000239,308,0,488.33700000000005,308,,,,492.0913999999762,492.5842999999523,491.5752999999523,492.0911999999285,489.34229999995233,491.57519999992854,492.5842999999523,493.084,493.08419999992844,500.2556999999285,1949,500.25579999995233,5,501.2541999999285,0,5,5,27,1,1.2,0.7,Time
,,241220,001,,,2025-06-04_16h27.42.967,Serial_Dependence_U,2023.2.3,Win32,59.880239520968516,,,,,,501.25500000000005,349,0,501.25529999995234,349,,,,504.814,505.3131000000239,504.3041000000239,504.8138999999762,502.27119999992846,504.3038999999762,505.3131999999285,505.81300000000005,505.8131999999285,507.6528999999762,1216,507.65299999999996,4,508.64529999995233,0,6,6,6,1,1,0.7,Time
,,241220,001,,,2025-06-04_16h27.42.967,Serial_Dependence_U,2023.2.3,Win32,59.880239520968516,,,,,,508.646,241,0,508.6465,241,,,,512.8446000000238,513.3436000000238,512.3282999999523,512.8444999999999,509.6622999999524,512.3281999999284,513.3436999999284,513.8435,513.8435,516.06,1531,516.0601000000238,3,517.059,0,7,7,14,1,1.6,0.3,Time
,,241220,001,,,2025-06-04_16h27.42.967,Serial_Dependence_U,2023.2.3,Win32,59.880239520968516,,,,,,517.0597999999522,8,0,517.0601999999284,8,,,,520.8146000000238,521.3075,520.2981999999284,520.8145,518.0632999999523,520.2981000000239,521.3075,521.8075,521.8076000000239,523.7812999999522,1200,523.7814999999999,3,524.7729999999999,0,8,8,17,1,1.2,0.7,Time
,,241220,001,,,2025-06-04_16h27.42.967,Serial_Dependence_U,2023.2.3,Win32,59.880239520968516,,,,,,524.7737999999523,63,0,524.774,63,,,,528.1619999999999,528.655,527.646,528.1618999999761,525.7792999999523,527.6458999999761,528.6551000000238,529.1547999999523,529.155,530.245,373,530.2451000000239,1,531.2373999999761,0,9,9,0,1,0.8,0.3,Time
,,241220,001,,,2025-06-04_16h27.42.967,Serial_Dependence_U,2023.2.3,Win32,59.880239520968516,,,,,,531.2381999999284,197,0,531.2386000000238,197,,,,535.0198999999761,535.5192999999523,534.5102999999523,535.0197999999523,532.2442999999523,534.5101000000238,535.5192999999523,536.019,536.0191000000239,537.5761000000238,883,537.5762999999523,2,538.5681999999284,0,10,10,2,1,1.2,0.3,Time
,,241220,001,,,2025-06-04_16h27.42.967,Serial_Dependence_U,2023.2.3,Win32,59.880239520968516,,,,,,538.569,188,0,538.5695,188,,,,542.5675,543.0666000000238,542.0511999999285,542.5672999999523,539.5849999999999,542.0509999999999,543.0666000000238,543.5664999999999,543.5664999999999,545.8661999999284,1533,545.8663999999761,4,546.8652999999523,0,11,11,13,1,1.4,0.3,Time
,,241220,001,,,2025-06-04_16h27.42.967,Serial_Dependence_U,2023.2.3,Win32,59.880239520968516,,,,,,546.8658999999761,66,0,546.8661999999284,66,,,,550.6311999999284,551.1305,550.115,550.6311000000238,547.8822999999522,550.1147999999523,551.1306000000238,551.6303999999761,551.6306000000238,553.8302999999523,1600,553.8303999999761,5,554.8292999999522,0,12,12,7,1,1.2,0.7,Time
,,241220,001,,,2025-06-04_16h27.42.967,Serial_Dependence_U,2023.2.3,Win32,59.880239520968516,,,,,,554.8301000000238,272,0,554.8304999999999,272,,,,558.3784999999999,558.8776999999284,557.8686999999285,558.3784999999999,555.8353999999761,557.8686000000238,558.8777999999522,559.3776999999284,559.3776999999284,560.4348999999761,650,560.4348999999761,1,561.4267999999523,0,13,13,26,1,1,0.7,Time
,,241220,001,,,2025-06-04_16h27.42.967,Serial_Dependence_U,2023.2.3,Win32,59.880239520968516,,,,,,561.4275,118,0,561.4276999999284,118,,,,565.626,566.1252999999523,565.1096999999285,565.6258999999761,562.4436999999284,565.1096999999285,566.1253999999761,566.6251000000238,566.6251000000238,568.1251999999284,1399,568.1252999999523,2,569.1242999999523,0,14,14,24,1,1.6,0.3,Time
,,241220,001,,,2025-06-04_16h27.42.967,Serial_Dependence_U,2023.2.3,Win32,59.880239520968516,,,,,,569.1248999999762,218,0,569.1251999999284,218,,,,573.3066000000238,573.8058999999761,572.7964999999999,573.3064999999999,570.1307999999523,572.7964999999999,573.8059999999999,574.3057999999522,574.3058999999761,577.3458999999762,2050,577.346,4,578.3376000000238,0,15,15,4,1,1.6,0.3,Time
,,241220,001,,,2025-06-04_16h27.42.967,Serial_Dependence_U,2023.2.3,Win32,59.880239520968516,,,,,,578.3383999999761,90,0,578.3386000000238,90,,,,581.9371000000237,582.4362999999523,581.4207999999522,581.937,579.3544999999999,581.4206000000238,582.4362999999523,582.9361999999285,582.9361999999285,584.7193999999761,1062,584.7194999999999,4,585.7183999999761,0,16,16,11,1,1,0.3,Time
,,241220,001,,,2025-06-04_16h27.42.967,Serial_Dependence_U,2023.2.3,Win32,59.880239520968516,,,,,,585.7191000000238,33,0,585.7192999999522,33,,,,589.6843999999761,590.1836000000238,589.1681999999284,589.6842999999523,586.7353999999762,589.1681000000239,590.1836999999284,590.6835,590.6836000000238,593.2497999999523,1788,593.2498999999762,4,594.2487999999523,0,17,17,18,1,1.4,0.7,Time
,,241220,001,,,2025-06-04_16h27.42.967,Serial_Dependence_U,2023.2.3,Win32,59.880239520968516,,,,,,594.2493999999762,347,0,594.2496999999285,347,,,,597.6482999999523,598.1474999999999,597.1318999999761,597.6481999999285,595.2656999999284,597.1317999999522,598.1474999999999,598.6472999999522,598.6472999999522,599.4308999999761,417,599.4309999999999,1,600.43,0,18,18,10,1,0.8,0.3,Time
,,241220,001,,,2025-06-04_16h27.42.967,Serial_Dependence_U,2023.2.3,Win32,59.880239520968516,,,,,,600.4307999999522,291,0,600.4311000000238,291,,,,604.0295,604.5286999999284,603.5131000000238,604.0293999999761,601.4467999999523,603.5129999999999,604.5287999999523,605.0283999999762,605.0285,606.7948999999761,871,606.7951000000238,2,607.7943999999761,0,19,19,21,1,1,0.3,Time
,,241220,001,,,2025-06-04_16h27.42.967,Serial_Dependence_U,2023.2.3,Win32,59.880239520968516,,,,,,607.7951999999284,157,0,607.7956000000238,157,,,,611.583,612.0759999999999,611.0667999999523,611.5827999999523,608.8008999999761,611.0666999999285,612.0761000000238,612.5757999999523,612.5757999999523,614.333,892,614.3331000000238,2,615.3248999999761,0,20,20,12,1,1.2,0.3,Time
,,241220,001,,,2025-06-04_16h27.42.967,Serial_Dependence_U,2023.2.3,Win32,59.880239520968516,,,,,,615.3256999999285,276,0,615.3261000000238,276,,,,618.6743999999761,619.1735,618.1648999999761,618.6741999999284,616.3306999999285,618.1646999999284,619.1735,619.6732999999523,619.6735,621.3803999999761,829,621.3803999999761,3,622.3723999999761,0,21,21,25,1,0.8,0.7,Time
,,241220,001,,,2025-06-04_16h27.42.967,Serial_Dependence_U,2023.2.3,Win32,59.880239520968516,,,,,,622.3731999999285,65,0,622.3734999999999,65,,,,626.3382999999523,626.8375,625.8221000000239,626.3381999999284,623.3892999999523,625.8218999999762,626.8376000000238,627.3373999999761,627.3375,628.5707999999523,643,628.5708999999761,1,629.5701000000238,0,22,22,8,1,1.4,0.7,Time
,,241220,001,,,2025-06-04_16h27.42.967,Serial_Dependence_U,2023.2.3,Win32,59.880239520968516,,,,,,629.5707999999523,109,0,629.5711999999285,109,,,,633.5356999999284,634.0348999999761,633.0191999999284,633.5356000000238,630.587,633.0191000000239,634.0351000000238,634.5346999999284,634.5346999999284,636.7346000000238,1583,636.7346000000238,4,637.7336000000238,0,23,23,28,1,1.4,0.7,Time
,,241220,001,,,2025-06-04_16h27.42.967,Serial_Dependence_U,2023.2.3,Win32,59.880239520968516,,,,,,637.7342999999523,267,0,637.7344999999999,267,,,,641.8996000000238,642.3986999999285,641.3832999999523,641.8995,638.7505,641.3831999999285,642.3986999999285,642.8986000000237,642.8986000000237,645.448,1732,645.4481000000238,4,646.4473999999761,0,24,24,9,1,1.6,0.7,Time
,,241220,001,,,2025-06-04_16h27.42.967,Serial_Dependence_U,2023.2.3,Win32,59.880239520968516,,,,,,646.448,84,0,646.4482999999523,84,,,,650.0463999999761,650.5457999999522,649.5303999999761,650.0463999999761,647.4642999999522,649.5302999999523,650.5458999999761,651.0456999999284,651.0456999999284,652.4126000000238,813,652.4126999999285,2,653.4114999999999,0,25,25,1,1,1,0.3,Time
,,241220,001,,,2025-06-04_16h27.42.967,Serial_Dependence_U,2023.2.3,Win32,59.880239520968516,,,,,,653.4118999999761,253,0,653.4119999999999,253,,,,656.8111000000238,657.3101000000238,656.2942999999523,656.8109999999999,654.4281000000238,656.2941999999284,657.3101999999284,657.81,657.8101000000238,660.8261000000238,1834,660.8261999999285,5,661.8253999999761,0,26,26,20,1,0.8,0.3,Time
,,241220,001,,,2025-06-04_16h27.42.967,Serial_Dependence_U,2023.2.3,Win32,59.880239520968516,,,,,,661.8259999999999,172,0,661.8262999999523,172,,,,665.1978999999761,665.6904999999999,664.682,665.1977999999523,662.8483999999761,664.6818999999762,665.6906000000238,666.1903999999761,666.1903999999761,667.8298999999761,874,667.8301000000238,4,668.8227999999523,0,27,27,5,1,0.8,0.7,Time
,,241220,001,,,2025-06-04_16h27.42.967,Serial_Dependence_U,2023.2.3,Win32,59.880239520968516,,,,,,668.8231999999284,219,0,668.8233999999761,219,,,,672.362,672.8547999999523,671.8458999999762,672.3618999999761,669.8126000000238,671.8457999999523,672.8548999999762,673.3546999999285,673.3546999999285,674.8116999999285,1135,674.8117999999523,4,675.8037999999523,0,28,28,16,1,1,0.7,Time
,,241220,001,,,2025-06-04_16h27.42.967,Serial_Dependence_U,2023.2.3,Win32,59.880239520968516,,,,,,675.8046999999284,64,0,675.8051000000238,64,,,,679.7931000000239,680.2856000000238,679.2764999999999,679.793,676.8101999999284,679.2763999999761,680.2856999999284,680.7853999999761,680.7855,682.3753999999761,1133,682.3756000000238,2,683.3679999999999,0,29,29,23,1,1.4,0.3,Time
,,241220,001,,,2025-06-04_16h27.42.967,Serial_Dependence_U,2023.2.3,Win32,59.880239520968516,,,,,,683.3686999999285,303,1,760.7244999999999,303,s,77.33120000004772,,764.1238999999762,764.6229999999999,763.6076000000238,764.1236999999285,761.7415,763.6075,764.6231999999285,765.1227999999522,765.1228999999761,767.006,387,767.0061999999284,1,767.0067999999522,1,0,30,0,1,0.8,0.3,Time
,,241220,001,,,2025-06-04_16h27.42.967,Serial_Dependence_U,2023.2.3,Win32,59.880239520968516,,,,,,767.0072999999522,182,1,767.01,182,,,,771.1711999999285,771.6706000000238,770.655,771.1711000000238,768.0226000000238,770.6548999999761,771.6706000000238,772.1703999999761,772.1703999999761,772.4206999999284,21,772.4207999999522,1,772.4214999999999,1,1,31,9,1,1.6,0.7,Time
,,241220,001,,,2025-06-04_16h27.42.967,Serial_Dependence_U,2023.2.3,Win32,59.880239520968516,,,,,,772.4221000000238,167,1,772.4223999999762,167,,,,776.5866999999284,777.0852999999523,776.0697999999522,776.5866000000239,773.4372999999523,776.0696999999284,777.0852999999523,777.5851000000238,777.5851999999285,779.785,1723,779.7851000000238,4,779.7856000000238,1,2,32,19,1,1.6,0.7,Time
,,241220,001,,,2025-06-04_16h27.42.967,Serial_Dependence_U,2023.2.3,Win32,59.880239520968516,,,,,,779.7861999999284,193,1,779.7866000000238,193,,,,783.1837999999523,783.683,782.6676000000238,783.1836999999284,780.8014999999999,782.6676000000238,783.683,784.1826999999284,784.1827999999523,785.5661000000238,1032,785.5661999999285,4,785.5666999999285,1,3,33,20,1,0.8,0.3,Time
,,241220,001,,,2025-06-04_16h27.42.967,Serial_Dependence_U,2023.2.3,Win32,59.880239520968516,,,,,,785.5671999999284,26,1,785.5673999999761,26,,,,789.5648999999761,790.0642999999523,789.0486999999284,789.5647999999522,786.5826000000238,789.0485,790.0642999999523,790.5638999999761,790.564,793.2966999999285,1504,793.2967999999523,4,793.2973999999762,1,4,34,3,1,1.4,0.3,Time
,,241220,001,,,2025-06-04_16h27.42.967,Serial_Dependence_U,2023.2.3,Win32,59.880239520968516,,,,,,793.2978999999762,217,1,793.2981000000239,217,,,,797.4955,797.9946999999285,796.9792999999523,797.4953999999761,794.3131999999284,796.9791999999285,797.9947999999523,798.4945,798.4946000000238,800.2945,1116,800.2946000000238,1,800.2952999999522,1,5,35,24,1,1.6,0.3,Time
,,241220,001,,,2025-06-04_16h27.42.967,Serial_Dependence_U,2023.2.3,Win32,59.880239520968516,,,,,,800.2958999999761,68,1,800.2962999999522,68,,,,803.6601999999284,804.1591999999284,803.1436999999285,803.6601000000238,801.3107999999522,803.1436000000238,804.1592999999523,804.6591000000238,804.6591000000238,806.2418999999761,899,806.242,4,806.2422999999523,1,6,36,25,1,0.8,0.7,Time
,,241220,001,,,2025-06-04_16h27.42.967,Serial_Dependence_U,2023.2.3,Win32,59.880239520968516,,,,,,806.2426999999284,18,1,806.2426999999284,18,,,,810.4242999999523,810.9235,809.9083999999762,810.4241999999284,807.2423999999761,809.9082999999523,810.9235,811.4232999999523,811.4233999999761,813.7731000000238,1631,813.7731999999285,3,813.7738999999762,1,7,37,4,1,1.6,0.3,Time
,,241220,001,,,2025-06-04_16h27.42.967,Serial_Dependence_U,2023.2.3,Win32,59.880239520968516,,,,,,813.7746000000238,346,1,813.7748999999761,346,,,,817.9718999999761,818.471,817.4556999999285,817.9716999999284,814.7893999999761,817.4556000000238,818.471,818.9706999999285,818.9706999999285,821.4036999999284,1298,821.4038999999761,2,821.4045,1,8,38,14,1,1.6,0.3,Time
,,241220,001,,,2025-06-04_16h27.42.967,Serial_Dependence_U,2023.2.3,Win32,59.880239520968516,,,,,,821.405,198,1,821.4053999999761,198,,,,825.3691999999285,825.8682999999522,824.8528999999761,825.3689999999999,822.4201000000238,824.8526999999284,825.8683999999761,826.3681999999284,826.3682999999522,828.6011000000238,1272,828.6011999999284,2,828.6017999999523,1,9,39,28,1,1.4,0.7,Time
,,241220,001,,,2025-06-04_16h27.42.967,Serial_Dependence_U,2023.2.3,Win32,59.880239520968516,,,,,,828.6023999999761,92,1,828.6026000000238,92,,,,832.5666999999285,833.0656999999285,832.0503999999761,832.5666000000238,829.6176000000238,832.0502999999522,833.0657999999523,833.5657999999523,833.5657999999523,835.3488999999761,928,835.3489999999999,1,835.3494999999999,1,10,40,18,1,1.4,0.7,Time
,,241220,001,,,2025-06-04_16h27.42.967,Serial_Dependence_U,2023.2.3,Win32,59.880239520968516,,,,,,835.3501000000238,171,1,835.3503999999762,171,,,,838.9146999999284,839.4136000000238,838.3977999999523,838.9142999999523,836.3653999999761,838.3976999999285,839.4136000000238,839.9133999999761,839.9135,841.4632999999523,950,841.4633999999761,2,841.4641000000238,1,11,41,6,1,1,0.7,Time
,,241220,001,,,2025-06-04_16h27.42.967,Serial_Dependence_U,2023.2.3,Win32,59.880239520968516,,,,,,841.4646999999285,15,1,841.4649999999999,15,,,,845.2289999999999,845.7281000000238,844.7126999999284,845.2286999999284,842.4798999999762,844.7126999999284,845.7281999999284,846.2278999999761,846.228,848.9273999999762,1700,848.9275,5,848.9281000000238,1,12,42,27,1,1.2,0.7,Time
,,241220,001,,,2025-06-04_16h27.42.967,Serial_Dependence_U,2023.2.3,Win32,59.880239520968516,,,,,,848.9286999999284,2,1,848.929,2,,,,852.2931000000239,852.7921999999285,851.7766999999284,852.293,849.944,851.7766999999284,852.7921999999285,853.2921000000238,853.2921999999285,853.9755,167,853.9756999999285,1,853.9761999999284,1,13,43,15,1,0.8,0.7,Time
,,241220,001,,,2025-06-04_16h27.42.967,Serial_Dependence_U,2023.2.3,Win32,59.880239520968516,,,,,,853.9768999999761,101,1,853.9772999999523,101,,,,857.7746000000238,858.2736000000237,857.2583999999761,857.7745,854.9922999999523,857.2582999999523,858.2736999999285,858.7735,858.7736000000237,860.3901000000238,821,860.3901999999284,1,860.3906999999284,1,14,44,12,1,1.2,0.3,Time
,,241220,001,,,2025-06-04_16h27.42.967,Serial_Dependence_U,2023.2.3,Win32,59.880239520968516,,,,,,860.3913999999761,325,1,860.3917999999522,325,,,,864.3888999999762,864.8881000000238,863.8726000000238,864.3887999999523,861.4066000000238,863.8723999999761,864.8881999999285,865.3893999999761,865.3893999999761,867.2546000000239,1213,867.2547999999523,2,867.2555,1,15,45,23,1,1.4,0.3,Time
,,241220,001,,,2025-06-04_16h27.42.967,Serial_Dependence_U,2023.2.3,Win32,59.880239520968516,,,,,,867.2561999999284,120,1,867.2565,120,,,,870.8531999999284,871.3526000000238,870.3371000000238,870.8531000000238,868.271,870.337,871.3526000000238,871.8523999999761,871.8523999999761,873.2189999999999,565,873.2189999999999,1,873.2196000000238,1,16,46,1,1,1,0.3,Time
,,241220,001,,,2025-06-04_16h27.42.967,Serial_Dependence_U,2023.2.3,Win32,59.880239520968516,,,,,,873.2199999999999,173,1,873.2203999999762,173,,,,877.1843999999761,877.6836000000238,876.6682999999523,877.1841999999284,874.2355,876.6682999999523,877.6836999999284,878.1835,878.1835,880.4666999999284,1359,880.4667999999523,3,880.4672999999523,1,17,47,8,1,1.4,0.7,Time
,,241220,001,,,2025-06-04_16h27.42.967,Serial_Dependence_U,2023.2.3,Win32,59.880239520968516,,,,,,880.468,55,1,880.4682999999523,55,,,,884.0653999999761,884.5645,883.5491999999284,884.0652999999522,881.4828999999761,883.5491000000238,884.5646000000238,885.0643999999761,885.0643999999761,887.7806000000238,1112,887.7807999999523,4,887.7813999999761,1,18,48,21,1,1,0.3,Time
,,241220,001,,,2025-06-04_16h27.42.967,Serial_Dependence_U,2023.2.3,Win32,59.880239520968516,,,,,,887.7819999999999,43,1,887.7823999999761,43,,,,891.9462999999523,892.4451999999285,891.4296999999284,891.9458999999761,888.7968999999761,891.4296000000238,892.4452999999522,892.9448999999761,892.9449999999999,894.5781000000238,1079,894.5782999999523,1,894.5786999999284,1,19,49,29,1,1.6,0.7,Time
,,241220,001,,,2025-06-04_16h27.42.967,Serial_Dependence_U,2023.2.3,Win32,59.880239520968516,,,,,,894.5792999999522,193,1,894.5794999999999,193,,,,898.1436999999285,898.6428999999761,897.6272999999522,898.1436000000238,895.5946000000238,897.6271999999284,898.6428999999761,899.1426999999285,899.1427999999523,900.4092999999523,813,900.4095,2,900.4098999999761,1,20,50,26,1,1,0.7,Time
,,241220,001,,,2025-06-04_16h27.42.967,Serial_Dependence_U,2023.2.3,Win32,59.880239520968516,,,,,,900.4102999999523,231,1,900.4106999999284,231,,,,904.2082999999523,904.7075,903.692,904.2081000000238,901.4261000000238,903.6918999999762,904.7076000000238,905.2071999999284,905.2072999999523,906.9571000000238,1066,906.9571999999284,2,906.9576999999284,1,21,51,22,1,1.2,0.3,Time
,,241220,001,,,2025-06-04_16h27.42.967,Serial_Dependence_U,2023.2.3,Win32,59.880239520968516,,,,,,906.9581000000238,41,1,906.9582999999523,41,,,,910.7223999999761,911.2218999999761,910.2059999999999,910.7223999999761,907.9733999999761,910.2058999999762,911.2218999999761,911.7217999999523,911.7217999999523,914.0712999999523,1342,914.0713999999762,4,914.0718999999762,1,22,52,17,1,1.2,0.7,Time
,,241220,001,,,2025-06-04_16h27.42.967,Serial_Dependence_U,2023.2.3,Win32,59.880239520968516,,,,,,914.0726000000238,145,1,914.0727999999523,145,,,,918.0697999999522,918.5692999999522,917.5536000000238,918.0697999999522,915.0875,917.5535,918.5692999999522,919.0691999999284,919.0691999999284,921.1356999999284,1460,921.1357999999523,3,921.1363999999761,1,23,53,13,1,1.4,0.3,Time
,,241220,001,,,2025-06-04_16h27.42.967,Serial_Dependence_U,2023.2.3,Win32,59.880239520968516,,,,,,921.137,327,1,921.1372999999522,327,,,,924.9012999999522,925.4002999999523,924.3851999999284,924.9011000000238,922.1523999999761,924.3851000000238,925.4003999999761,925.9001000000238,925.9001000000238,928.1166000000238,1158,928.1168999999761,3,928.1172999999523,1,24,54,7,1,1.2,0.7,Time
,,241220,001,,,2025-06-04_16h27.42.967,Serial_Dependence_U,2023.2.3,Win32,59.880239520968516,,,,,,928.1178999999761,334,1,928.1181999999284,334,,,,931.7153999999762,932.2146000000238,931.1991999999284,931.7152999999523,929.1329999999999,931.1991000000238,932.2146999999285,932.7146000000238,932.7146000000238,934.2646000000238,754,934.2646000000238,2,934.2651000000238,1,25,55,11,1,1,0.3,Time
,,241220,001,,,2025-06-04_16h27.42.967,Serial_Dependence_U,2023.2.3,Win32,59.880239520968516,,,,,,934.2656000000238,194,1,934.2658999999761,194,,,,937.6132999999522,938.1125,937.0966000000238,937.6131999999284,935.2641000000237,937.0966000000238,938.1125,938.6123999999761,938.6123999999761,940.1455,566,940.1456000000238,2,940.146,1,26,56,5,1,0.8,0.7,Time
,,241220,001,,,2025-06-04_16h27.42.967,Serial_Dependence_U,2023.2.3,Win32,59.880239520968516,,,,,,940.1462999999522,301,1,940.1465,301,,,,943.9442999999522,944.4435,943.4281999999284,943.9442999999522,941.1622999999523,943.4281000000238,944.4435,944.9433999999761,944.9435,946.5268999999761,820,946.5269999999999,1,946.5276999999285,1,27,57,2,1,1.2,0.3,Time
,,241220,001,,,2025-06-04_16h27.42.967,Serial_Dependence_U,2023.2.3,Win32,59.880239520968516,,,,,,946.5283999999762,344,1,946.5287999999523,344,,,,949.9256000000238,950.4247999999523,949.4096000000238,949.9254999999999,947.5432999999523,949.4095,950.4247999999523,950.9246999999284,950.9246999999284,952.2746000000238,739,952.2746999999284,2,952.275,1,28,58,10,1,0.8,0.3,Time
,,241220,001,,,2025-06-04_16h27.42.967,Serial_Dependence_U,2023.2.3,Win32,59.880239520968516,,,,,,952.2755,323,1,952.2757999999523,323,,,,955.8399999999999,956.3393999999761,955.3236000000238,955.8399999999999,953.2911000000238,955.3235,956.3393999999761,956.8391999999284,956.8392999999522,958.5057999999523,1205,958.5058999999761,4,958.5063999999761,1,29,59,16,1,1,0.7,Time
,,241220,001,,,2025-06-04_16h27.42.967,Serial_Dependence_U,2023.2.3,Win32,59.880239520968516,,,,,,958.5066999999284,215,2,965.0201000000238,215,s,6.498299999952337,,968.3856000000238,968.885,967.8691000000238,968.3856000000238,966.0368999999761,967.8691000000238,968.8851000000238,969.3848999999761,969.3848999999761,970.9016999999284,832,970.9017999999522,3,970.9022999999522,2,0,60,15,1,0.8,0.7,Time
,,241220,001,,,2025-06-04_16h27.42.967,Serial_Dependence_U,2023.2.3,Win32,59.880239520968516,,,,,,970.9027999999523,12,2,970.9048999999761,12,,,,975.1006000000239,975.5996000000239,974.5841999999284,975.1003999999762,971.9181999999284,974.5840000000001,975.5996999999284,976.0995,976.0995,977.8493999999762,1225,977.8493999999762,2,977.8501999999285,2,1,61,24,1,1.6,0.3,Time
,,241220,001,,,2025-06-04_16h27.42.967,Serial_Dependence_U,2023.2.3,Win32,59.880239520968516,,,,,,977.8507999999522,123,2,977.8511999999284,123,,,,982.0481000000239,982.5471000000239,981.5316999999284,982.048,978.8657999999523,981.5316999999284,982.5471999999284,983.0471000000239,983.0471000000239,985.0136000000239,1398,985.0136999999283,2,985.0141999999285,2,2,62,14,1,1.6,0.3,Time
,,241220,001,,,2025-06-04_16h27.42.967,Serial_Dependence_U,2023.2.3,Win32,59.880239520968516,,,,,,985.0147999999522,296,2,985.0151999999284,296,,,,988.6126000000238,989.1115,988.096,988.6122999999523,986.03,988.0958999999762,989.1116000000238,989.6112999999523,989.6113999999761,991.3775,1140,991.3776000000239,4,991.3778999999761,2,3,63,1,1,1,0.3,Time
,,241220,001,,,2025-06-04_16h27.42.967,Serial_Dependence_U,2023.2.3,Win32,59.880239520968516,,,,,,991.3781999999285,196,2,991.3782999999523,196,,,,995.3763999999762,995.8757999999523,994.8603999999762,995.3763999999762,992.3941999999283,994.8602999999523,995.8757999999523,996.3756999999284,996.3757999999523,998.4422999999522,1697,998.4424999999999,4,998.4431000000238,2,4,64,13,1,1.4,0.3,Time
,,241220,001,,,2025-06-04_16h27.42.967,Serial_Dependence_U,2023.2.3,Win32,59.880239520968516,,,,,,998.4438999999761,297,2,998.4441999999285,297,,,,1001.8413999999761,1002.3403999999762,1001.3248999999762,1001.8412999999523,999.4587999999524,1001.3247999999523,1002.3403999999762,1002.8401000000238,1002.8401999999285,1004.4138999999761,810,1004.414,3,1004.4142999999522,2,5,65,20,1,0.8,0.3,Time
,,241220,001,,,2025-06-04_16h27.42.967,Serial_Dependence_U,2023.2.3,Win32,59.880239520968516,,,,,,1004.4146999999284,309,2,1004.415,309,,,,1007.7629999999999,1008.2602999999522,1007.2456000000238,1007.7629999999999,1005.4131000000239,1007.2455,1008.2602999999522,1008.7601999999285,1008.7602999999522,1010.9455,1400,1010.9456999999284,5,1010.9461999999285,2,6,66,5,1,0.8,0.7,Time
,,241220,001,,,2025-06-04_16h27.42.967,Serial_Dependence_U,2023.2.3,Win32,59.880239520968516,,,,,,1010.9466000000239,308,2,1010.946899999976,308,,,,1014.8926000000238,1015.3911000000237,1014.3771999999285,1014.8924999999999,1011.9443999999762,1014.3771000000238,1015.3911000000237,1015.8854999999999,1015.8856000000237,1018.642,1696,1018.6421000000239,4,1018.6426000000238,2,7,67,8,1,1.4,0.7,Time
,,241220,001,,,2025-06-04_16h27.42.967,Serial_Dependence_U,2023.2.3,Win32,59.880239520968516,,,,,,1018.6431999999284,351,2,1018.6434999999999,351,,,,1022.3793999999762,1022.8831999999284,1021.8738999999762,1022.3791999999285,1019.6406999999285,1021.8737999999523,1022.8831999999284,1023.3715,1023.3716000000238,1025.2586999999285,1295,1025.2587999999523,4,1025.2592999999522,2,8,68,17,1,1.2,0.7,Time
,,241220,001,,,2025-06-04_16h27.42.967,Serial_Dependence_U,2023.2.3,Win32,59.880239520968516,,,,,,1025.26,145,2,1025.2602999999522,145,,,,1029.2046999999284,1029.6973999999761,1028.6882999999523,1029.2045,1026.2552999999523,1028.6882999999523,1029.6973999999761,1030.1971999999284,1030.1971999999284,1032.9467999999522,1953,1032.946899999976,5,1032.9475,2,9,69,28,1,1.4,0.7,Time
,,241220,001,,,2025-06-04_16h27.42.967,Serial_Dependence_U,2023.2.3,Win32,59.880239520968516,,,,,,1032.9479999999999,105,2,1032.9482999999523,105,,,,1037.1454999999999,1037.6446000000237,1036.6291999999285,1037.145399999976,1033.9633999999762,1036.6291000000238,1037.6446999999284,1038.144399999976,1038.144399999976,1040.7508999999761,1272,1040.751,2,1040.7514999999999,2,10,70,4,1,1.6,0.3,Time
,,241220,001,,,2025-06-04_16h27.42.967,Serial_Dependence_U,2023.2.3,Win32,59.880239520968516,,,,,,1040.7521999999285,293,2,1040.7523999999762,293,,,,1044.2993999999762,1044.7921000000238,1043.782899999976,1044.2992999999524,1041.7501000000238,1043.7827999999522,1044.7921999999285,1045.292,1045.2921000000238,1047.1661999999285,934,1047.1661999999285,2,1047.1666999999284,2,11,71,6,1,1,0.7,Time
,,241220,001,,,2025-06-04_16h27.42.967,Serial_Dependence_U,2023.2.3,Win32,59.880239520968516,,,,,,1047.1672999999523,323,2,1047.1676000000239,323,,,,1050.7111000000239,1051.2977999999523,1050.1972999999523,1050.7108999999762,1048.1646000000237,1050.196899999976,1051.2978999999762,1051.7231000000238,1051.7231000000238,1053.8627999999524,1049,1053.863,3,1053.863399999976,2,12,72,26,1,1,0.7,Time
,,241220,001,,,2025-06-04_16h27.42.967,Serial_Dependence_U,2023.2.3,Win32,59.880239520968516,,,,,,1053.864,104,2,1053.8641999999284,104,,,,1058.0111000000238,1058.504,1057.4945,1058.011,1054.8619999999999,1057.4943999999762,1058.504,1059.0037999999522,1059.003899999976,1061.5606999999284,1500,1061.5606999999284,2,1061.5611999999285,2,13,73,29,1,1.6,0.7,Time
,,241220,001,,,2025-06-04_16h27.42.967,Serial_Dependence_U,2023.2.3,Win32,59.880239520968516,,,,,,1061.562,290,2,1061.5622999999523,290,,,,1065.1586999999283,1065.6515,1064.6422999999522,1065.1586000000239,1062.5696999999284,1064.6421999999284,1065.6515,1066.151399999976,1066.151399999976,1067.7086000000238,700,1067.7086999999285,1,1067.709100000024,2,14,74,21,1,1,0.3,Time
,,241220,001,,,2025-06-04_16h27.42.967,Serial_Dependence_U,2023.2.3,Win32,59.880239520968516,,,,,,1067.7097999999523,150,2,1067.7101000000239,150,,,,1071.2902999999524,1071.7827999999522,1070.7735,1071.2901999999285,1068.7073999999761,1070.7733999999762,1071.782899999976,1072.2825,1072.2826000000239,1073.9991000000239,735,1073.9991000000239,2,1073.9996000000237,2,15,75,11,1,1,0.3,Time
,,241220,001,,,2025-06-04_16h27.42.967,Serial_Dependence_U,2023.2.3,Win32,59.880239520968516,,,,,,1074,189,2,1074.000399999976,189,,,,1077.9978999999762,1078.4971999999284,1077.4814999999999,1077.9977999999523,1075.0155,1077.481399999976,1078.4971999999284,1078.9967999999524,1078.9968999999762,1080.6302999999523,934,1080.6303999999761,1,1080.630899999976,2,16,76,23,1,1.4,0.3,Time
,,241220,001,,,2025-06-04_16h27.42.967,Serial_Dependence_U,2023.2.3,Win32,59.880239520968516,,,,,,1080.631399999976,132,2,1080.6316999999285,132,,,,1084.0188999999762,1084.5117999999522,1083.5021999999285,1084.0186999999285,1081.6361999999285,1083.5021000000238,1084.5117999999522,1085.0115,1085.0116000000237,1086.6518999999762,682,1086.652,2,1086.652399999976,2,17,77,10,1,0.8,0.3,Time
,,241220,001,,,2025-06-04_16h27.42.967,Serial_Dependence_U,2023.2.3,Win32,59.880239520968516,,,,,,1086.6528999999762,174,2,1086.6531999999283,174,,,,1090.5936000000238,1091.0926000000238,1090.0836999999285,1090.593399999976,1087.651,1090.0835,1091.0926999999285,1091.5925,1091.5926000000238,1093.2165,917,1093.2166000000238,1,1093.2169999999999,2,18,78,18,1,1.4,0.7,Time
,,241220,001,,,2025-06-04_16h27.42.967,Serial_Dependence_U,2023.2.3,Win32,59.880239520968516,,,,,,1093.2176000000238,298,2,1093.2177999999524,298,,,,1096.5976999999284,1097.0906000000239,1096.0813999999762,1096.5976999999284,1094.2127999999523,1096.0811999999285,1097.0906000000239,1097.5906000000239,1097.5906999999283,1099.6301000000237,1083,1099.6301000000237,5,1099.6305,2,19,79,0,1,0.8,0.3,Time
,,241220,001,,,2025-06-04_16h27.42.967,Serial_Dependence_U,2023.2.3,Win32,59.880239520968516,,,,,,1099.630899999976,273,2,1099.6311000000237,273,,,,1102.974899999976,1103.4716999999284,1102.4618999999761,1102.974899999976,1100.628899999976,1102.4617999999523,1103.4716999999284,1103.971399999976,1103.971399999976,1105.5121999999285,792,1105.5122999999523,3,1105.5127999999522,2,20,80,25,1,0.8,0.7,Time
,,241220,001,,,2025-06-04_16h27.42.967,Serial_Dependence_U,2023.2.3,Win32,59.880239520968516,,,,,,1105.5133999999762,203,2,1105.5136000000239,203,,,,1109.674,1110.1693999999761,1109.1601999999284,1109.6738999999761,1106.5277999999523,1109.1599999999999,1110.1695,1110.6691999999284,1110.6692999999523,1112.5257999999524,1069,1112.5258999999762,1,1112.526399999976,2,21,81,9,1,1.6,0.7,Time
,,241220,001,,,2025-06-04_16h27.42.967,Serial_Dependence_U,2023.2.3,Win32,59.880239520968516,,,,,,1112.527,264,2,1112.527100000024,264,,,,1116.2907999999522,1116.7836999999283,1115.774899999976,1116.2906999999284,1113.5355,1115.774899999976,1116.7836999999283,1117.2836000000239,1117.2836999999283,1118.4237999999523,34,1118.4238999999761,1,1118.4243999999762,2,22,82,27,1,1.2,0.7,Time
,,241220,001,,,2025-06-04_16h27.42.967,Serial_Dependence_U,2023.2.3,Win32,59.880239520968516,,,,,,1118.4251000000238,108,2,1118.4253999999762,108,,,,1122.2222999999524,1122.7151000000238,1121.7061000000238,1122.2221999999285,1119.4397999999524,1121.706,1122.7151000000238,1123.215,1123.215,1124.798,457,1124.7981000000239,1,1124.7986000000237,2,23,83,22,1,1.2,0.3,Time
,,241220,001,,,2025-06-04_16h27.42.967,Serial_Dependence_U,2023.2.3,Win32,59.880239520968516,,,,,,1124.7991999999285,346,2,1124.7993999999762,346,,,,1128.5967999999523,1129.0961000000239,1128.0868999999761,1128.5966999999284,1125.8146000000238,1128.0867999999523,1129.0961000000239,1129.5958999999762,1129.5958999999762,1131.1696999999285,676,1131.1698999999762,1,1131.1702999999522,2,24,84,12,1,1.2,0.3,Time
,,241220,001,,,2025-06-04_16h27.42.967,Serial_Dependence_U,2023.2.3,Win32,59.880239520968516,,,,,,1131.1706999999285,142,2,1131.1708999999762,142,,,,1135.1507999999524,1135.6438999999762,1134.6346000000237,1135.1506999999285,1132.1686000000238,1134.634399999976,1135.6438999999762,1136.1436999999285,1136.1436999999285,1137.0436000000238,391,1137.0436999999283,1,1137.0443999999761,2,25,85,3,1,1.4,0.3,Time
,,241220,001,,,2025-06-04_16h27.42.967,Serial_Dependence_U,2023.2.3,Win32,59.880239520968516,,,,,,1137.045,100,2,1137.0452999999522,100,,,,1140.616,1141.108600000024,1140.098899999976,1140.6157999999523,1138.0662999999522,1140.098899999976,1141.108600000024,1141.608600000024,1141.608600000024,1143.0993999999762,846,1143.0995,2,1143.1,2,26,86,16,1,1,0.7,Time
,,241220,001,,,2025-06-04_16h27.42.967,Serial_Dependence_U,2023.2.3,Win32,59.880239520968516,,,,,,1143.1003999999762,287,2,1143.1006999999283,287,,,,1147.2467999999524,1147.7396999999285,1146.7301999999283,1147.2466999999285,1144.0977999999523,1146.73,1147.7396999999285,1148.239399999976,1148.2395,1149.8131000000237,733,1149.8131000000237,1,1149.8135,2,27,87,19,1,1.6,0.7,Time
,,241220,001,,,2025-06-04_16h27.42.967,Serial_Dependence_U,2023.2.3,Win32,59.880239520968516,,,,,,1149.8141000000237,24,2,1149.814399999976,24,,,,1153.5611999999285,1154.0539999999999,1153.045399999976,1153.5611999999285,1150.811899999976,1153.0452999999522,1154.0539999999999,1154.5539999999999,1154.5539999999999,1156.1612999999522,833,1156.1615,1,1156.1621000000239,2,28,88,7,1,1.2,0.7,Time
,,241220,001,,,2025-06-04_16h27.42.967,Serial_Dependence_U,2023.2.3,Win32,59.880239520968516,,,,,,1156.1626999999285,52,2,1156.163,52,,,,1159.9418999999762,1160.4351999999285,1159.426,1159.9418999999762,1157.1597999999524,1159.425899999976,1160.4352999999523,1160.9351000000238,1160.9351000000238,1162.3591000000238,550,1162.3591999999285,1,1162.3597999999522,2,29,89,2,1,1.2,0.3,Time
,,241220,001,,,2025-06-04_16h27.42.967,Serial_Dependence_U,2023.2.3,Win32,59.880239520968516,,,,,,1162.3602999999523,252,3,1165.9501999999284,252,s,3.5651999999283817,,1169.3162999999522,1169.8152999999522,1168.8062999999522,1169.3161999999284,1166.972,1168.8061999999284,1169.8152999999522,1170.315100000024,1170.3152999999522,1171.4056000000237,416,1171.4056999999284,1,1171.4062999999524,3,0,90,15,1,0.8,0.7,Time
,,241220,001,,,2025-06-04_16h27.42.967,Serial_Dependence_U,2023.2.3,Win32,59.880239520968516,,,,,,1171.406899999976,70,3,1171.4087999999522,70,,,,1175.164,1175.6632999999522,1174.6537999999523,1175.1638999999761,1172.4046000000237,1174.6536999999284,1175.6632999999522,1176.1631000000239,1176.1631999999283,1177.6371999999285,791,1177.6372999999523,1,1177.6377999999522,3,1,91,17,1,1.2,0.7,Time
,,241220,001,,,2025-06-04_16h27.42.967,Serial_Dependence_U,2023.2.3,Win32,59.880239520968516,,,,,,1177.6385,138,3,1177.6387999999522,138,,,,1181.3851999999285,1181.8777999999522,1180.868600000024,1181.3851000000238,1178.6361000000238,1180.8682999999523,1181.8777999999522,1182.3776999999284,1182.3777999999522,1183.9183999999761,650,1183.9183999999761,1,1183.9189999999999,3,2,92,27,1,1.2,0.7,Time
,,241220,001,,,2025-06-04_16h27.42.967,Serial_Dependence_U,2023.2.3,Win32,59.880239520968516,,,,,,1183.9195,83,3,1183.9197999999524,83,,,,1187.2659999999998,1187.759,1186.7496999999285,1187.2658999999762,1184.9167999999522,1186.7496000000237,1187.759,1188.2588999999762,1188.259,1189.5331999999285,550,1189.5333999999762,1,1189.533899999976,3,3,93,25,1,0.8,0.7,Time
,,241220,001,,,2025-06-04_16h27.42.967,Serial_Dependence_U,2023.2.3,Win32,59.880239520968516,,,,,,1189.5345,275,3,1189.5346999999285,275,,,,1192.8912999999523,1193.3903999999761,1192.3809999999999,1192.8911000000237,1190.546100000024,1192.3807999999524,1193.3905,1193.8901999999284,1193.8902999999523,1195.228,497,1195.228100000024,1,1195.2286000000238,3,4,94,5,1,0.8,0.7,Time
,,241220,001,,,2025-06-04_16h27.42.967,Serial_Dependence_U,2023.2.3,Win32,59.880239520968516,,,,,,1195.2292999999522,168,3,1195.2296999999285,168,,,,1198.6121000000237,1199.1051000000239,1198.096,1198.6119999999999,1196.2296999999285,1198.0957999999523,1199.1051000000239,1199.605,1199.605,1200.7717999999522,492,1200.771899999976,1,1200.7723999999762,3,5,95,0,1,0.8,0.3,Time
,,241220,001,,,2025-06-04_16h27.42.967,Serial_Dependence_U,2023.2.3,Win32,59.880239520968516,,,,,,1200.773,2,3,1200.7731999999285,2,,,,1204.3601999999285,1204.8531999999284,1203.8436999999285,1204.3601000000237,1201.7776999999285,1203.8435,1204.8531999999284,1205.353,1205.353,1206.7939999999999,767,1206.7941000000237,2,1206.7946999999285,3,6,96,21,1,1,0.3,Time
,,241220,001,,,2025-06-04_16h27.42.967,Serial_Dependence_U,2023.2.3,Win32,59.880239520968516,,,,,,1206.7951000000237,303,3,1206.795399999976,303,,,,1210.7412999999524,1211.2343999999762,1210.225,1210.7412999999524,1207.7923999999762,1210.224899999976,1211.2343999999762,1211.7341000000238,1211.7341000000238,1213.408,933,1213.4081000000238,1,1213.4086000000239,3,7,97,18,1,1.4,0.7,Time
,,241220,001,,,2025-06-04_16h27.42.967,Serial_Dependence_U,2023.2.3,Win32,59.880239520968516,,,,,,1213.4092999999523,356,3,1213.4096999999285,356,,,,1217.5551999999284,1218.0537999999524,1217.0391999999285,1217.555100000024,1214.4066999999284,1217.0391000000238,1218.0537999999524,1218.5482999999522,1218.5482999999522,1220.9718999999761,1166,1220.9721000000238,2,1220.9724999999999,3,8,98,29,1,1.6,0.7,Time
,,241220,001,,,2025-06-04_16h27.42.967,Serial_Dependence_U,2023.2.3,Win32,59.880239520968516,,,,,,1220.9731999999285,211,3,1220.9735,211,,,,1224.947,1225.445899999976,1224.4367999999522,1224.9467999999522,1221.9706000000238,1224.4366999999284,1225.445899999976,1225.945899999976,1225.946,1227.2024999999999,699,1227.2026000000237,1,1227.2028999999761,3,9,99,23,1,1.4,0.3,Time
,,241220,001,,,2025-06-04_16h27.42.967,Serial_Dependence_U,2023.2.3,Win32,59.880239520968516,,,,,,1227.2033999999762,248,3,1227.2036000000237,248,,,,1230.9445,1231.4436999999284,1230.4346999999284,1230.9442999999524,1228.2018999999761,1230.4346999999284,1231.4437999999523,1231.9434999999999,1231.9434999999999,1233.7675,700,1233.7676000000238,1,1233.7678999999762,3,10,100,7,1,1.2,0.7,Time
,,241220,001,,,2025-06-04_16h27.42.967,Serial_Dependence_U,2023.2.3,Win32,59.880239520968516,,,,,,1233.768399999976,306,3,1233.7685,306,,,,1237.3652999999522,1237.8582999999524,1236.8491000000238,1237.3652999999522,1234.7827999999522,1236.849,1237.8582999999524,1238.3581999999285,1238.3582999999524,1239.5153999999761,276,1239.5155,1,1239.5159999999998,3,11,101,1,1,1,0.3,Time
,,241220,001,,,2025-06-04_16h27.42.967,Serial_Dependence_U,2023.2.3,Win32,59.880239520968516,,,,,,1239.5166000000238,186,3,1239.517,186,,,,1243.0971000000238,1243.589600000024,1242.5806000000239,1243.0968999999761,1240.5146000000238,1242.5805,1243.5896999999284,1244.0895,1244.0895,1245.2608999999761,514,1245.261,1,1245.2615,3,12,102,11,1,1,0.3,Time
,,241220,001,,,2025-06-04_16h27.42.967,Serial_Dependence_U,2023.2.3,Win32,59.880239520968516,,,,,,1245.262,8,3,1245.2621999999285,8,,,,1248.8111999999285,1249.3042999999523,1248.295,1248.8111000000238,1246.2621999999285,1248.295,1249.304399999976,1249.8041000000237,1249.8041999999284,1251.0946999999285,700,1251.0947999999523,1,1251.0951999999284,3,13,103,16,1,1,0.7,Time
,,241220,001,,,2025-06-04_16h27.42.967,Serial_Dependence_U,2023.2.3,Win32,59.880239520968516,,,,,,1251.0958999999762,109,3,1251.0961999999283,109,,,,1255.2732999999523,1255.7686999999285,1254.7601000000238,1255.2731999999285,1252.0936999999285,1254.76,1255.7686999999285,1256.2686000000238,1256.2686999999285,1257.6592999999523,757,1257.6593999999761,1,1257.6599999999999,3,14,104,4,1,1.6,0.3,Time
,,241220,001,,,2025-06-04_16h27.42.967,Serial_Dependence_U,2023.2.3,Win32,59.880239520968516,,,,,,1257.6606000000238,273,3,1257.6607999999524,273,,,,1261.6172999999524,1262.1164999999999,1261.1067999999523,1261.6171999999285,1258.6722999999522,1261.1067999999523,1262.1166000000237,1262.616399999976,1262.616399999976,1264.2567999999524,916,1264.2567999999524,1,1264.257399999976,3,15,105,28,1,1.4,0.7,Time
,,241220,001,,,2025-06-04_16h27.42.967,Serial_Dependence_U,2023.2.3,Win32,59.880239520968516,,,,,,1264.2578999999762,49,3,1264.2581999999284,49,,,,1268.4482999999523,1268.9473999999761,1267.9382999999523,1268.4481999999284,1265.2658999999762,1267.9381999999284,1268.9473999999761,1269.4472999999523,1269.4472999999523,1270.5691000000238,531,1270.5691999999285,1,1270.5697999999522,3,16,106,14,1,1.6,0.3,Time
,,241220,001,,,2025-06-04_16h27.42.967,Serial_Dependence_U,2023.2.3,Win32,59.880239520968516,,,,,,1270.5705,264,3,1270.570899999976,264,,,,1274.1361000000238,1274.628899999976,1273.6196000000239,1274.1358999999761,1271.584399999976,1273.6195,1274.628899999976,1275.1287999999522,1275.1287999999522,1276.1856999999284,266,1276.1857999999522,1,1276.1861999999285,3,17,107,26,1,1,0.7,Time
,,241220,001,,,2025-06-04_16h27.42.967,Serial_Dependence_U,2023.2.3,Win32,59.880239520968516,,,,,,1276.1866999999284,228,3,1276.186899999976,228,,,,1280.1672999999523,1280.6599999999999,1279.6506999999285,1280.1671999999285,1277.1822999999522,1279.6506000000238,1280.6599999999999,1281.159899999976,1281.1601000000237,1282.1836000000237,350,1282.1836999999284,1,1282.1841999999285,3,18,108,3,1,1.4,0.3,Time
,,241220,001,,,2025-06-04_16h27.42.967,Serial_Dependence_U,2023.2.3,Win32,59.880239520968516,,,,,,1282.1846000000237,145,3,1282.185,145,,,,1285.7485,1286.2416000000237,1285.2322999999524,1285.7482999999522,1283.1995,1285.2321999999285,1286.2416000000237,1286.7412999999524,1286.7412999999524,1288.4151999999285,826,1288.4151999999285,2,1288.4156999999284,3,19,109,6,1,1,0.7,Time
,,241220,001,,,2025-06-04_16h27.42.967,Serial_Dependence_U,2023.2.3,Win32,59.880239520968516,,,,,,1288.4162999999523,183,3,1288.4165,183,,,,1292.5629999999999,1293.0556999999285,1292.046399999976,1292.562899999976,1289.4136999999284,1292.0462999999522,1293.0556999999285,1293.5556000000238,1293.5556999999285,1295.0461999999284,400,1295.0461999999284,1,1295.0466999999285,3,20,110,19,1,1.6,0.7,Time
,,241220,001,,,2025-06-04_16h27.42.967,Serial_Dependence_U,2023.2.3,Win32,59.880239520968516,,,,,,1295.047399999976,164,3,1295.0477999999523,164,,,,1298.993899999976,1299.4871000000237,1298.4776000000238,1298.9936999999284,1296.0448999999762,1298.4773999999761,1299.4871000000237,1299.9867999999524,1299.9868999999762,1301.0605,466,1301.060600000024,1,1301.0611000000238,3,21,111,8,1,1.4,0.7,Time
,,241220,001,,,2025-06-04_16h27.42.967,Serial_Dependence_U,2023.2.3,Win32,59.880239520968516,,,,,,1301.0616999999284,157,3,1301.062,157,,,,1304.4396000000238,1304.935,1303.9256999999284,1304.4395,1302.0593999999762,1303.925600000024,1304.9351000000238,1305.4408999999762,1305.4411000000239,1306.6755,728,1306.675600000024,2,1306.676899999976,3,22,112,10,1,0.8,0.3,Time
,,241220,001,,,2025-06-04_16h27.42.967,Serial_Dependence_U,2023.2.3,Win32,59.880239520968516,,,,,,1306.6772999999523,218,3,1306.6776999999283,218,,,,1310.4542999999524,1310.9495,1309.940100000024,1310.4541000000238,1307.6743999999762,1309.94,1310.9495,1311.449399999976,1311.449399999976,1313.3728999999762,1285,1313.373,4,1313.3735,3,23,113,12,1,1.2,0.3,Time
,,241220,001,,,2025-06-04_16h27.42.967,Serial_Dependence_U,2023.2.3,Win32,59.880239520968516,,,,,,1313.3738999999762,326,3,1313.3741999999284,326,,,,1317.5349999999999,1318.0303999999762,1317.0213999999762,1317.534899999976,1314.3883999999762,1317.0211999999285,1318.0304999999998,1318.5301999999285,1318.5301999999285,1320.6205,1150,1320.6205,2,1320.6209999999999,3,24,114,9,1,1.6,0.7,Time
,,241220,001,,,2025-06-04_16h27.42.967,Serial_Dependence_U,2023.2.3,Win32,59.880239520968516,,,,,,1320.6216000000238,277,3,1320.6218999999762,277,,,,1323.9956999999285,1324.4947999999522,1323.4855,1323.9956000000238,1321.6193999999762,1323.4855,1324.494899999976,1324.9946999999283,1324.9947999999522,1326.3525,750,1326.3525,2,1326.3531999999284,3,25,115,20,1,0.8,0.3,Time
,,241220,001,,,2025-06-04_16h27.42.967,Serial_Dependence_U,2023.2.3,Win32,59.880239520968516,,,,,,1326.3537999999523,150,3,1326.354100000024,150,,,,1330.532899999976,1331.0258999999762,1330.0166000000238,1330.5327999999522,1327.3507999999522,1330.0165,1331.0258999999762,1331.5257999999524,1331.5258999999762,1332.499399999976,116,1332.4995,1,1332.4998999999762,3,26,116,24,1,1.6,0.3,Time
,,241220,001,,,2025-06-04_16h27.42.967,Serial_Dependence_U,2023.2.3,Win32,59.880239520968516,,,,,,1332.5006000000237,18,3,1332.5007999999523,18,,,,1336.4811999999283,1336.9737999999522,1335.964600000024,1336.4811000000238,1333.4985,1335.9645,1336.9737999999522,1337.4737999999522,1337.473899999976,1338.3642999999522,183,1338.3642999999522,1,1338.365,3,27,117,13,1,1.4,0.3,Time
,,241220,001,,,2025-06-04_16h27.42.967,Serial_Dependence_U,2023.2.3,Win32,59.880239520968516,,,,,,1338.3656999999284,42,3,1338.366,42,,,,1342.1456999999284,1342.6385,1341.6291999999285,1342.1456000000237,1339.3631999999284,1341.6291999999285,1342.6386000000239,1343.1383999999762,1343.1383999999762,1344.762600000024,1036,1344.7627999999522,2,1344.7631999999285,3,28,118,22,1,1.2,0.3,Time
,,241220,001,,,2025-06-04_16h27.42.967,Serial_Dependence_U,2023.2.3,Win32,59.880239520968516,,,,,,1344.7636999999283,327,3,1344.764,327,,,,1348.5436000000238,1349.036399999976,1348.027,1348.5435,1345.761,1348.0268999999762,1349.036399999976,1349.536100000024,1349.5362999999522,1351.7607999999523,1417,1351.761,4,1351.7612999999524,3,29,119,2,1,1.2,0.3,Time
,,241220,001,,,2025-06-04_16h27.42.967,Serial_Dependence_U,2023.2.3,Win32,59.880239520968516,,,,,,1351.7617999999522,299,4,1357.9666999999283,299,s,6.1778999999760345,,1361.9488999999762,1362.4483999999761,1361.4386999999285,1361.9487999999524,1358.9727999999523,1361.4385,1362.4485,1362.9481999999284,1362.9481999999284,1365.0215,1199,1365.0215,2,1365.022,4,0,120,23,1,1.4,0.3,Time
,,241220,001,,,2025-06-04_16h27.42.967,Serial_Dependence_U,2023.2.3,Win32,59.880239520968516,,,,,,1365.0225,224,4,1365.0242999999523,224,,,,1369.1672999999523,1369.6625,1368.6531000000239,1369.1671999999285,1366.0206000000237,1368.653,1369.6625,1370.1622999999522,1370.162399999976,1372.4692999999522,1599,1372.469399999976,3,1372.4698999999762,4,1,121,29,1,1.6,0.7,Time
,,241220,001,,,2025-06-04_16h27.42.967,Serial_Dependence_U,2023.2.3,Win32,59.880239520968516,,,,,,1372.4705,66,4,1372.4708999999762,66,,,,1376.0171999999284,1376.5101000000238,1375.5007999999523,1376.017100000024,1373.4681000000237,1375.5006999999284,1376.5101000000238,1377.01,1377.01,1378.7501000000238,950,1378.7502999999522,2,1378.7506999999284,4,2,122,16,1,1,0.7,Time
,,241220,001,,,2025-06-04_16h27.42.967,Serial_Dependence_U,2023.2.3,Win32,59.880239520968516,,,,,,1378.7512999999524,201,4,1378.7517999999523,201,,,,1382.9085,1383.4076999999284,1382.3983999999762,1382.9083999999762,1379.7596000000237,1382.3982999999523,1383.4076999999284,1383.9075,1383.9075,1386.3477999999523,1533,1386.347899999976,3,1386.3485,4,3,123,19,1,1.6,0.7,Time
,,241220,001,,,2025-06-04_16h27.42.967,Serial_Dependence_U,2023.2.3,Win32,59.880239520968516,,,,,,1386.349,43,4,1386.3491999999285,43,,,,1389.7227999999523,1390.222,1389.2126999999284,1389.7227999999523,1387.3462999999522,1389.2126000000237,1390.2221000000238,1390.7217999999523,1390.7217999999523,1392.163,767,1392.1631000000239,3,1392.1634999999999,4,4,124,20,1,0.8,0.3,Time
,,241220,001,,,2025-06-04_16h27.42.967,Serial_Dependence_U,2023.2.3,Win32,59.880239520968516,,,,,,1392.164,101,4,1392.1642999999522,101,,,,1395.5268999999762,1396.02,1395.0106999999284,1395.5267999999523,1393.177899999976,1395.0106000000237,1396.02,1396.5197999999523,1396.5197999999523,1397.993600000024,775,1397.993600000024,3,1397.9941000000238,4,5,125,25,1,0.8,0.7,Time
,,241220,001,,,2025-06-04_16h27.42.967,Serial_Dependence_U,2023.2.3,Win32,59.880239520968516,,,,,,1397.9946999999283,93,4,1397.9951000000237,93,,,,1401.5915,1402.0845,1401.075399999976,1401.5913999999761,1399.009,1401.0752999999522,1402.0845,1402.584399999976,1402.584399999976,1404.6916000000238,1233,1404.6916999999285,4,1404.6921999999283,4,6,126,11,1,1,0.3,Time
,,241220,001,,,2025-06-04_16h27.42.967,Serial_Dependence_U,2023.2.3,Win32,59.880239520968516,,,,,,1404.6927999999523,136,4,1404.6931999999285,136,,,,1408.6327999999523,1409.132,1408.1226999999285,1408.6326999999285,1405.6901999999284,1408.1226999999285,1409.132100000024,1409.6318999999762,1409.632,1411.5566000000238,1384,1411.5566999999285,3,1411.5571999999283,4,7,127,28,1,1.4,0.7,Time
,,241220,001,,,2025-06-04_16h27.42.967,Serial_Dependence_U,2023.2.3,Win32,59.880239520968516,,,,,,1411.5577999999523,154,4,1411.558,154,,,,1415.5036000000239,1415.9963999999761,1414.9871999999284,1415.5035,1412.554399999976,1414.9869999999999,1415.9963999999761,1416.4961999999284,1416.4961999999284,1419.3192999999524,2066,1419.3201000000238,5,1419.3207999999522,4,8,128,18,1,1.4,0.7,Time
,,241220,001,,,2025-06-04_16h27.42.967,Serial_Dependence_U,2023.2.3,Win32,59.880239520968516,,,,,,1419.3216000000239,90,4,1419.3216999999283,90,,,,1422.7008999999762,1423.194,1422.1846000000237,1422.7007999999523,1420.3186000000237,1422.1845,1423.194,1423.6937999999523,1423.6937999999523,1426.767,1550,1426.767,5,1426.7675,4,9,129,10,1,0.8,0.3,Time
,,241220,001,,,2025-06-04_16h27.42.967,Serial_Dependence_U,2023.2.3,Win32,59.880239520968516,,,,,,1426.7678999999762,123,4,1426.7681999999284,123,,,,1430.7478999999762,1431.241,1430.2316999999284,1430.7477999999523,1427.7658999999762,1430.2316000000237,1431.241,1431.7407999999523,1431.7408999999761,1434.1476000000239,1183,1434.1476999999284,2,1434.1481000000238,4,10,130,13,1,1.4,0.3,Time
,,241220,001,,,2025-06-04_16h27.42.967,Serial_Dependence_U,2023.2.3,Win32,59.880239520968516,,,,,,1434.1487999999522,53,4,1434.149,53,,,,1438.129,1438.6217999999524,1437.612399999976,1438.128899999976,1435.146899999976,1437.6122999999523,1438.6217999999524,1439.1216000000238,1439.1216999999285,1440.9791999999284,1136,1440.9792999999522,2,1440.9798999999762,4,11,131,3,1,1.4,0.3,Time
,,241220,001,,,2025-06-04_16h27.42.967,Serial_Dependence_U,2023.2.3,Win32,59.880239520968516,,,,,,1440.9806000000237,337,4,1440.9807999999523,337,,,,1444.76,1445.252899999976,1444.2435,1444.7598999999761,1441.9717999999523,1444.2433999999762,1445.252899999976,1445.752600000024,1445.7526999999284,1447.3602999999523,1172,1447.3603999999762,3,1447.360899999976,4,12,132,12,1,1.2,0.3,Time
,,241220,001,,,2025-06-04_16h27.42.967,Serial_Dependence_U,2023.2.3,Win32,59.880239520968516,,,,,,1447.3613999999761,163,4,1447.3616999999285,163,,,,1450.934899999976,1451.434,1450.4247999999523,1450.9347999999522,1448.3586999999284,1450.4246999999284,1451.4341000000238,1451.9338999999761,1451.9338999999761,1453.6415,834,1453.6416000000238,2,1453.6421999999284,4,13,133,1,1,1,0.3,Time
,,241220,001,,,2025-06-04_16h27.42.967,Serial_Dependence_U,2023.2.3,Win32,59.880239520968516,,,,,,1453.6426999999285,101,4,1453.643,101,,,,1457.8158999999762,1458.3148999999762,1457.3056999999285,1457.8157999999523,1454.6401999999284,1457.3056999999285,1458.3148999999762,1458.8147999999524,1458.8148999999762,1460.9385,1283,1460.9386000000238,2,1460.9389999999999,4,14,134,4,1,1.6,0.3,Time
,,241220,001,,,2025-06-04_16h27.42.967,Serial_Dependence_U,2023.2.3,Win32,59.880239520968516,,,,,,1460.9396000000238,228,4,1460.9397999999524,228,,,,1464.4801999999283,1464.979399999976,1463.9701999999284,1464.4801000000239,1461.9372999999523,1463.97,1464.979399999976,1465.4791999999284,1465.4792999999522,1467.6361000000238,1278,1467.6361999999285,4,1467.6366999999284,4,15,135,26,1,1,0.7,Time
,,241220,001,,,2025-06-04_16h27.42.967,Serial_Dependence_U,2023.2.3,Win32,59.880239520968516,,,,,,1467.6371999999285,177,4,1467.6375,177,,,,1471.5835,1472.0767999999523,1471.0676999999284,1471.583399999976,1468.6348999999761,1471.0676999999284,1472.0768999999761,1472.5767999999523,1472.5768999999761,1475.2002999999522,1666,1475.2002999999522,4,1475.2007999999523,4,16,136,8,1,1.4,0.7,Time
,,241220,001,,,2025-06-04_16h27.42.967,Serial_Dependence_U,2023.2.3,Win32,59.880239520968516,,,,,,1475.2011999999283,348,4,1475.2015,348,,,,1479.347899999976,1479.8407999999522,1478.8316999999283,1479.3477999999523,1476.1985,1478.8316000000239,1479.8407999999522,1480.3407999999522,1480.3407999999522,1482.4812999999522,1417,1482.481399999976,2,1482.4818999999761,4,17,137,9,1,1.6,0.7,Time
,,241220,001,,,2025-06-04_16h27.42.967,Serial_Dependence_U,2023.2.3,Win32,59.880239520968516,,,,,,1482.4825,113,4,1482.4826999999284,113,,,,1485.829,1486.321899999976,1485.3127999999522,1485.828899999976,1483.4796999999285,1485.3127999999522,1486.321899999976,1486.8216999999283,1486.8217999999522,1489.778399999976,1283,1489.7786000000237,5,1489.779,4,18,138,15,1,0.8,0.7,Time
,,241220,001,,,2025-06-04_16h27.42.967,Serial_Dependence_U,2023.2.3,Win32,59.880239520968516,,,,,,1489.7794999999999,283,4,1489.7798999999761,283,,,,1493.159899999976,1493.6526999999285,1492.6436000000238,1493.1597999999524,1490.7771999999284,1492.6435,1493.6526999999285,1494.1525,1494.1525,1495.9261000000238,866,1495.9261999999285,4,1495.9267999999522,4,19,139,0,1,0.8,0.3,Time
,,241220,001,,,2025-06-04_16h27.42.967,Serial_Dependence_U,2023.2.3,Win32,59.880239520968516,,,,,,1495.9272999999523,234,4,1495.9276000000239,234,,,,1499.4907999999523,1499.983899999976,1498.9743999999762,1499.4907999999523,1496.9417999999523,1498.9742999999523,1499.983899999976,1500.483600000024,1500.483600000024,1502.1411999999284,1209,1502.1412999999523,4,1502.1416999999285,4,20,140,6,1,1,0.7,Time
,,241220,001,,,2025-06-04_16h27.42.967,Serial_Dependence_U,2023.2.3,Win32,59.880239520968516,,,,,,1502.142399999976,225,4,1502.1426000000238,225,,,,1505.8886000000239,1506.3816000000238,1505.372399999976,1505.8883999999762,1503.137,1505.3722999999522,1506.3816999999285,1506.8815,1506.8815,1508.538399999976,883,1508.5384999999999,2,1508.5391000000238,4,21,141,27,1,1.2,0.7,Time
,,241220,001,,,2025-06-04_16h27.42.967,Serial_Dependence_U,2023.2.3,Win32,59.880239520968516,,,,,,1508.5401000000238,221,4,1508.5402999999524,221,,,,1512.7033999999762,1513.196,1512.2008999999762,1512.7032999999524,1509.537399999976,1512.2007999999523,1513.1961000000238,1513.6957999999522,1513.695899999976,1516.386,1849,1516.3861000000238,4,1516.3866000000237,4,22,142,24,1,1.6,0.3,Time
,,241220,001,,,2025-06-04_16h27.42.967,Serial_Dependence_U,2023.2.3,Win32,59.880239520968516,,,,,,1516.3872999999523,295,4,1516.387600000024,295,,,,1520.1773999999762,1520.6766999999284,1519.6673999999762,1520.1771999999285,1517.395,1519.6671999999285,1520.6766999999284,1521.1763999999762,1521.1765,1522.1171999999285,776,1522.1171999999285,1,1522.1176999999284,4,23,143,22,1,1.2,0.3,Time
,,241220,001,,,2025-06-04_16h27.42.967,Serial_Dependence_U,2023.2.3,Win32,59.880239520968516,,,,,,1522.1182999999523,278,4,1522.1186999999284,278,,,,1525.6957999999522,1526.1912999999522,1525.182,1525.6956999999284,1523.116,1525.1818999999762,1526.1912999999522,1526.6911999999284,1526.6912999999522,1531.9305,617,1531.9306000000238,1,1531.931100000024,4,24,144,21,1,1,0.3,Time
,,241220,001,,,2025-06-04_16h27.42.967,Serial_Dependence_U,2023.2.3,Win32,59.880239520968516,,,,,,1531.9317999999523,80,4,1531.9321000000239,80,,,,1535.6786000000238,1536.1716000000238,1535.1617999999523,1535.6785,1532.9291999999284,1535.1616999999285,1536.1717999999523,1536.671100000024,1536.6711999999284,1538.878,1025,1538.8781000000238,2,1538.8786000000239,4,25,145,17,1,1.2,0.7,Time
,,241220,001,,,2025-06-04_16h27.42.967,Serial_Dependence_U,2023.2.3,Win32,59.880239520968516,,,,,,1538.8791999999285,347,4,1538.8793999999762,347,,,,1543.0692999999524,1543.5686000000237,1542.5593999999762,1543.0691999999285,1539.8936000000238,1542.5592999999524,1543.5686000000237,1544.0686000000237,1544.0686000000237,1545.9255,783,1545.925600000024,1,1545.926,4,26,146,14,1,1.6,0.3,Time
,,241220,001,,,2025-06-04_16h27.42.967,Serial_Dependence_U,2023.2.3,Win32,59.880239520968516,,,,,,1545.9265,254,4,1545.926899999976,254,,,,1549.2902999999524,1549.7832999999523,1548.7736000000239,1549.2901999999285,1546.9412999999522,1548.7735,1549.7832999999523,1550.2831999999285,1550.2831999999285,1552.7567999999524,800,1552.7568999999762,3,1552.757399999976,4,27,147,5,1,0.8,0.7,Time
,,241220,001,,,2025-06-04_16h27.42.967,Serial_Dependence_U,2023.2.3,Win32,59.880239520968516,,,,,,1552.758,215,4,1552.7582999999522,215,,,,1556.5045,1556.9972999999522,1555.988,1556.5043999999762,1553.7546999999283,1555.9878999999762,1556.9972999999522,1557.4971999999284,1557.4972999999522,1559.454600000024,824,1559.4546999999284,1,1559.4551999999285,4,28,148,7,1,1.2,0.7,Time
,,241220,001,,,2025-06-04_16h27.42.967,Serial_Dependence_U,2023.2.3,Win32,59.880239520968516,,,,,,1559.4557999999522,86,4,1559.4561000000238,86,,,,1563.2353999999762,1563.7282999999522,1562.7186999999285,1563.2352999999523,1560.4528999999761,1562.7185,1563.728399999976,1564.228100000024,1564.228100000024,1565.918899999976,529,1565.9189999999999,1,1565.9196000000238,4,29,149,2,1,1.2,0.3,Time
,,241220,001,,,2025-06-04_16h27.42.967,Serial_Dependence_U,2023.2.3,Win32,59.880239520968516,,,,,,1565.9201000000237,168,5,1623.941,168,s,57.993000000000166,,1627.7296999999285,1628.2226000000237,1627.2131999999285,1627.7295,1624.9471999999284,1627.2131000000238,1628.2226000000237,1628.7224999999999,1628.7226000000237,1630.4956000000238,842,1630.4956999999285,2,1630.4961000000237,5,0,150,12,1,1.2,0.3,Time
,,241220,001,,,2025-06-04_16h27.42.967,Serial_Dependence_U,2023.2.3,Win32,59.880239520968516,,,,,,1630.4966000000238,62,5,1630.4986000000238,62,,,,1634.0545,1634.5536999999285,1633.5441999999284,1634.054399999976,1631.5055,1633.5441000000237,1634.5536999999285,1635.0535,1635.0536000000238,1638.6773999999762,950,1638.6773999999762,2,1638.677899999976,5,1,151,16,1,1,0.7,Time
,,241220,001,,,2025-06-04_16h27.42.967,Serial_Dependence_U,2023.2.3,Win32,59.880239520968516,,,,,,1638.6786000000238,255,5,1638.678899999976,255,,,,1642.6576999999284,1643.1507999999524,1642.1411999999284,1642.6575,1639.675600000024,1642.1411999999284,1643.1507999999524,1643.6505,1643.6505,1646.6906999999285,816,1646.6906999999285,1,1646.6912999999522,5,2,152,23,1,1.4,0.3,Time
,,241220,001,,,2025-06-04_16h27.42.967,Serial_Dependence_U,2023.2.3,Win32,59.880239520968516,,,,,,1646.6917999999523,118,5,1646.6921000000239,118,,,,1650.882100000024,1651.3811000000237,1650.3717999999524,1650.8818999999762,1647.7057999999522,1650.3716000000238,1651.3811999999284,1651.880899999976,1651.8809999999999,1654.7711000000238,658,1654.7711999999285,1,1654.7716999999284,5,3,153,24,1,1.6,0.3,Time
,,241220,001,,,2025-06-04_16h27.42.967,Serial_Dependence_U,2023.2.3,Win32,59.880239520968516,,,,,,1654.7722999999523,89,5,1654.7726000000239,89,,,,1658.536,1659.028399999976,1658.0191000000239,1658.5357999999524,1655.7862999999522,1658.0188999999762,1659.028399999976,1659.528399999976,1659.528399999976,1660.4524999999999,867,1660.4526000000237,2,1660.4531000000238,5,4,154,7,1,1.2,0.7,Time
,,241220,001,,,2025-06-04_16h27.42.967,Serial_Dependence_U,2023.2.3,Win32,59.880239520968516,,,,,,1660.4536999999284,170,5,1660.454,170,,,,1663.8166999999285,1664.309899999976,1663.300899999976,1663.8166999999285,1661.4677999999524,1663.3007999999522,1664.31,1664.8097999999522,1664.809899999976,1665.9172999999523,595,1665.9173999999762,2,1665.917899999976,5,5,155,15,1,0.8,0.7,Time
,,241220,001,,,2025-06-04_16h27.42.967,Serial_Dependence_U,2023.2.3,Win32,59.880239520968516,,,,,,1665.9185,76,5,1665.9186999999283,76,,,,1669.658899999976,1670.157899999976,1669.149,1669.6587999999522,1666.916,1669.148899999976,1670.1581000000238,1670.6577999999522,1670.657899999976,1674.0651999999284,901,1674.0651999999284,2,1674.0656999999285,5,6,156,17,1,1.2,0.7,Time
,,241220,001,,,2025-06-04_16h27.42.967,Serial_Dependence_U,2023.2.3,Win32,59.880239520968516,,,,,,1674.0661999999284,70,5,1674.0665,70,,,,1677.4453999999762,1677.9386000000238,1676.9292999999523,1677.4452999999523,1675.0631999999284,1676.9291000000237,1677.9386000000238,1678.4382999999523,1678.4383999999761,1681.9281000000237,516,1681.9281999999284,1,1681.9286000000238,5,7,157,20,1,0.8,0.3,Time
,,241220,001,,,2025-06-04_16h27.42.967,Serial_Dependence_U,2023.2.3,Win32,59.880239520968516,,,,,,1681.9292999999523,119,5,1681.9296000000238,119,,,,1685.7031999999285,1686.202399999976,1685.1932999999524,1685.7031000000238,1682.9263999999762,1685.1931999999285,1686.202399999976,1686.7021999999283,1686.7022999999522,1690.1422999999522,583,1690.142399999976,1,1690.1427999999523,5,8,158,22,1,1.2,0.3,Time
,,241220,001,,,2025-06-04_16h27.42.967,Serial_Dependence_U,2023.2.3,Win32,59.880239520968516,,,,,,1690.1432999999522,316,5,1690.1435,316,,,,1693.9065,1694.3995,1693.4007999999524,1693.9063999999762,1691.1383999999762,1693.4006000000238,1694.3995,1694.8993999999761,1694.8995,1695.5067999999524,450,1695.5068999999762,1,1695.5075,5,9,159,2,1,1.2,0.3,Time
,,241220,001,,,2025-06-04_16h27.42.967,Serial_Dependence_U,2023.2.3,Win32,59.880239520968516,,,,,,1695.509399999976,175,5,1695.51,175,,,,1699.0545,1699.5477999999523,1698.538399999976,1699.0545,1696.5056999999285,1698.538399999976,1699.5477999999523,1700.0475,1700.0476000000237,1701.2547999999522,733,1701.2549999999999,2,1701.2555,5,10,160,26,1,1,0.7,Time
,,241220,001,,,2025-06-04_16h27.42.967,Serial_Dependence_U,2023.2.3,Win32,59.880239520968516,,,,,,1701.2561000000237,352,5,1701.256399999976,352,,,,1704.5966000000237,1705.0957999999523,1704.086399999976,1704.5964999999999,1702.2533999999762,1704.0862999999522,1705.0957999999523,1705.5956000000238,1705.5956999999285,1706.970399999976,651,1706.9705,2,1706.9711000000239,5,11,161,5,1,0.8,0.7,Time
,,241220,001,,,2025-06-04_16h27.42.967,Serial_Dependence_U,2023.2.3,Win32,59.880239520968516,,,,,,1706.9714999999999,8,5,1706.9716999999284,8,,,,1710.550899999976,1711.0436999999283,1710.0345,1710.5507999999522,1707.9681000000237,1710.0343999999761,1711.0437999999522,1711.5436000000238,1711.5436999999283,1714.7831999999285,702,1714.7832999999523,2,1714.7836999999283,5,12,162,1,1,1,0.3,Time
,,241220,001,,,2025-06-04_16h27.42.967,Serial_Dependence_U,2023.2.3,Win32,59.880239520968516,,,,,,1714.7841000000237,156,5,1714.7842999999523,156,,,,1718.3251999999284,1718.824399999976,1717.815,1718.325100000024,1715.7821999999285,1717.8147999999524,1718.824399999976,1719.3241999999284,1719.3242999999522,1720.4656999999283,751,1720.4657999999522,2,1720.4663999999761,5,13,163,6,1,1,0.7,Time
,,241220,001,,,2025-06-04_16h27.42.967,Serial_Dependence_U,2023.2.3,Win32,59.880239520968516,,,,,,1720.466899999976,139,5,1720.4671999999284,139,,,,1723.84,1724.3392999999523,1723.3297999999522,1723.839899999976,1721.4615,1723.3296999999284,1724.3392999999523,1724.839,1724.8391000000238,1727.113100000024,717,1727.1131999999284,2,1727.1137999999523,5,14,164,10,1,0.8,0.3,Time
,,241220,001,,,2025-06-04_16h27.42.967,Serial_Dependence_U,2023.2.3,Win32,59.880239520968516,,,,,,1727.114399999976,109,5,1727.1147999999523,109,,,,1731.3105,1731.8031999999284,1730.7936999999283,1731.3102999999523,1728.1251999999283,1730.7936000000238,1731.8031999999284,1732.3031000000237,1732.3031999999284,1734.5098999999761,1250,1734.5098999999761,2,1734.5104999999999,5,15,165,4,1,1.6,0.3,Time
,,241220,001,,,2025-06-04_16h27.42.967,Serial_Dependence_U,2023.2.3,Win32,59.880239520968516,,,,,,1734.5111999999285,121,5,1734.5112999999524,121,,,,1738.4577999999524,1738.9506999999285,1737.9411999999284,1738.4577999999524,1735.5086999999285,1737.9411000000239,1738.9506999999285,1739.4506000000238,1739.4506000000238,1742.2245,883,1742.2246000000239,1,1742.2251000000238,5,16,166,8,1,1.4,0.7,Time
,,241220,001,,,2025-06-04_16h27.42.967,Serial_Dependence_U,2023.2.3,Win32,59.880239520968516,,,,,,1742.2256000000239,333,5,1742.225899999976,333,,,,1745.7991000000238,1746.2981000000239,1745.2888999999761,1745.7987999999523,1743.222899999976,1745.2887999999523,1746.2981999999283,1746.798,1746.798,1750.204899999976,617,1750.205,1,1750.2056000000239,5,17,167,11,1,1,0.3,Time
,,241220,001,,,2025-06-04_16h27.42.967,Serial_Dependence_U,2023.2.3,Win32,59.880239520968516,,,,,,1750.2061999999285,228,5,1750.2066000000239,228,,,,1754.1796999999285,1754.6786000000238,1753.6693999999761,1754.1796000000238,1751.2011000000239,1753.6692999999523,1754.6786000000238,1755.1783999999761,1755.1783999999761,1758.3526999999285,677,1758.3527999999524,1,1758.3532999999522,5,18,168,3,1,1.4,0.3,Time
,,241220,001,,,2025-06-04_16h27.42.967,Serial_Dependence_U,2023.2.3,Win32,59.880239520968516,,,,,,1758.3538999999762,214,5,1758.354399999976,214,,,,1762.532899999976,1763.0256000000238,1762.0165,1762.5327999999522,1759.3503999999762,1762.016399999976,1763.0256999999285,1763.5256999999285,1763.5256999999285,1766.8325,926,1766.8326000000238,1,1766.8331000000237,5,19,169,14,1,1.6,0.3,Time
,,241220,001,,,2025-06-04_16h27.42.967,Serial_Dependence_U,2023.2.3,Win32,59.880239520968516,,,,,,1766.8336000000238,342,5,1766.8341999999284,342,,,,1770.1798999999762,1770.673,1769.664,1770.1796999999285,1767.8307999999522,1769.6637999999523,1770.673,1771.173,1771.173,1774.579600000024,383,1774.5796999999284,1,1774.5801000000238,5,20,170,25,1,0.8,0.7,Time
,,241220,001,,,2025-06-04_16h27.42.967,Serial_Dependence_U,2023.2.3,Win32,59.880239520968516,,,,,,1774.5807999999522,113,5,1774.5812999999523,113,,,,1778.321899999976,1778.8201999999285,1777.8106999999284,1778.3215,1775.5782999999524,1777.810600000024,1778.8201999999285,1779.32,1779.32,1780.7613999999762,734,1780.7613999999762,1,1780.762,5,21,171,27,1,1.2,0.7,Time
,,241220,001,,,2025-06-04_16h27.42.967,Serial_Dependence_U,2023.2.3,Win32,59.880239520968516,,,,,,1780.762600000024,205,5,1780.7631000000238,205,,,,1784.1418999999762,1784.6347999999523,1783.625399999976,1784.1418999999762,1781.7595,1783.6251999999283,1784.6347999999523,1785.1346999999284,1785.1346999999284,1788.3078999999761,516,1788.308,1,1788.3084999999999,5,22,172,0,1,0.8,0.3,Time
,,241220,001,,,2025-06-04_16h27.42.967,Serial_Dependence_U,2023.2.3,Win32,59.880239520968516,,,,,,1788.3091000000238,144,5,1788.3096000000237,144,,,,1792.4555,1792.9486000000238,1791.9395,1792.4553999999762,1789.3066000000238,1791.939399999976,1792.9486000000238,1793.4483999999761,1793.4483999999761,1796.5886999999284,650,1796.5887999999522,1,1796.5892999999523,5,23,173,9,1,1.6,0.7,Time
,,241220,001,,,2025-06-04_16h27.42.967,Serial_Dependence_U,2023.2.3,Win32,59.880239520968516,,,,,,1796.59,252,5,1796.5905,252,,,,1800.5361999999284,1801.0291000000238,1800.0197999999523,1800.5361999999284,1797.5871999999285,1800.0196000000237,1801.0291000000238,1801.5288999999761,1801.5288999999761,1803.653,950,1803.653,1,1803.6535,5,24,174,28,1,1.4,0.7,Time
,,241220,001,,,2025-06-04_16h27.42.967,Serial_Dependence_U,2023.2.3,Win32,59.880239520968516,,,,,,1803.654,319,5,1803.654399999976,319,,,,1807.8005,1808.2931999999284,1807.2836000000239,1807.8002999999524,1804.6516000000238,1807.2835,1808.2932999999523,1808.7932999999523,1808.7933999999761,1810.617899999976,1044,1810.618,1,1810.6182999999523,5,25,175,29,1,1.6,0.7,Time
,,241220,001,,,2025-06-04_16h27.42.967,Serial_Dependence_U,2023.2.3,Win32,59.880239520968516,,,,,,1810.6186999999284,45,5,1810.619,45,,,,1814.5755,1815.0741999999284,1814.065100000024,1814.575399999976,1811.6321999999284,1814.065,1815.0741999999284,1815.5741000000237,1815.5741000000237,1818.7318999999761,1077,1818.732,2,1818.7326000000237,5,26,176,18,1,1.4,0.7,Time
,,241220,001,,,2025-06-04_16h27.42.967,Serial_Dependence_U,2023.2.3,Win32,59.880239520968516,,,,,,1818.7331999999285,214,5,1818.7336999999284,214,,,,1822.8783999999762,1823.3713999999761,1822.3621999999284,1822.8783999999762,1819.729399999976,1822.3621999999284,1823.3715,1823.8711999999284,1823.8712999999523,1827.0777999999523,800,1827.0777999999523,1,1827.0782999999524,5,27,177,19,1,1.6,0.7,Time
,,241220,001,,,2025-06-04_16h27.42.967,Serial_Dependence_U,2023.2.3,Win32,59.880239520968516,,,,,,1827.078899999976,263,5,1827.0801000000238,263,,,,1830.6693999999761,1831.1686000000238,1830.1595,1830.6692999999523,1828.0929999999998,1830.1593999999761,1831.1686000000238,1831.6683999999761,1831.6685,1833.159899999976,584,1833.1599999999999,1,1833.1605,5,28,178,21,1,1,0.3,Time
,,241220,001,,,2025-06-04_16h27.42.967,Serial_Dependence_U,2023.2.3,Win32,59.880239520968516,,,,,,1833.161,343,5,1833.1612999999522,343,,,,1837.1401999999284,1837.633100000024,1836.6238999999762,1837.1401000000237,1834.157899999976,1836.6238999999762,1837.633100000024,1838.1328999999762,1838.133,1841.507,1851,1841.507100000024,5,1841.5076000000238,5,29,179,13,1,1.4,0.3,Time
,,241220,001,,,2025-06-04_16h27.42.967,Serial_Dependence_U,2023.2.3,Win32,59.880239520968516,,,,,,1841.508100000024,202,6,1844.2142999999523,202,s,2.688199999928429,,1847.9801999999283,1848.4792999999522,1847.4698999999762,1847.9801000000239,1845.2372999999523,1847.4697999999523,1848.4792999999522,1848.9791999999284,1848.9791999999284,1851.9362999999523,1333,1851.9363999999762,4,1851.936899999976,6,0,180,7,1,1.2,0.7,Time
,,241220,001,,,2025-06-04_16h27.42.967,Serial_Dependence_U,2023.2.3,Win32,59.880239520968516,,,,,,1851.9375,233,6,1851.9395,233,,,,1855.500399999976,1855.9933999999762,1854.9842999999523,1855.5002999999522,1852.9512999999522,1854.9841999999285,1855.9935,1856.4933999999762,1856.4935,1859.883100000024,1050,1859.8831999999284,4,1859.8837999999523,6,1,181,16,1,1,0.7,Time
,,241220,001,,,2025-06-04_16h27.42.967,Serial_Dependence_U,2023.2.3,Win32,59.880239520968516,,,,,,1859.884399999976,311,6,1859.8847999999523,311,,,,1863.4808999999761,1863.974,1862.9647999999522,1863.4807999999523,1860.8982999999523,1862.9646999999284,1863.974,1864.4736999999284,1864.4737999999522,1865.648,656,1865.648,1,1865.6486000000239,6,2,182,11,1,1,0.3,Time
,,241220,001,,,2025-06-04_16h27.42.967,Serial_Dependence_U,2023.2.3,Win32,59.880239520968516,,,,,,1865.6491000000237,317,6,1865.6495,317,,,,1869.4455,1869.9385,1868.9291000000237,1869.4453999999762,1866.6628999999762,1868.9289999999999,1869.9385,1870.4382999999523,1870.4382999999523,1873.5451000000237,683,1873.5451999999284,1,1873.5457999999524,6,3,183,2,1,1.2,0.3,Time
,,241220,001,,,2025-06-04_16h27.42.967,Serial_Dependence_U,2023.2.3,Win32,59.880239520968516,,,,,,1873.546399999976,344,6,1873.5468999999762,344,,,,1877.103399999976,1877.6025,1876.5931000000237,1877.1031999999284,1874.560899999976,1876.5929999999998,1877.6025,1878.1022999999523,1878.1025,1880.3428999999762,1277,1880.3429999999998,4,1880.3435,6,4,184,6,1,1,0.7,Time
,,241220,001,,,2025-06-04_16h27.42.967,Serial_Dependence_U,2023.2.3,Win32,59.880239520968516,,,,,,1880.3441999999284,104,6,1880.3446000000238,104,,,,1884.117600000024,1884.6167999999523,1883.6071999999285,1884.1175,1881.3356000000238,1883.6071000000238,1884.6167999999523,1885.1164999999999,1885.1164999999999,1887.0738999999762,992,1887.074,2,1887.0745,6,5,185,22,1,1.2,0.3,Time
,,241220,001,,,2025-06-04_16h27.42.967,Serial_Dependence_U,2023.2.3,Win32,59.880239520968516,,,,,,1887.075100000024,236,6,1887.0755,236,,,,1891.031899999976,1891.5312999999524,1890.5213999999762,1891.0316999999284,1888.0891000000238,1890.5212999999524,1891.5312999999524,1892.0307999999523,1892.030899999976,1894.1881000000237,1383,1894.1881999999284,3,1894.1886999999285,6,6,186,18,1,1.4,0.7,Time
,,241220,001,,,2025-06-04_16h27.42.967,Serial_Dependence_U,2023.2.3,Win32,59.880239520968516,,,,,,1894.1895,68,6,1894.1898999999762,68,,,,1897.7687999999523,1898.262,1897.2527999999522,1897.7686000000238,1895.186,1897.2526999999284,1898.262,1898.7617999999522,1898.761899999976,1900.586,933,1900.5861000000239,2,1900.5866000000237,6,7,187,1,1,1,0.3,Time
,,241220,001,,,2025-06-04_16h27.42.967,Serial_Dependence_U,2023.2.3,Win32,59.880239520968516,,,,,,1900.587399999976,261,6,1900.5876999999284,261,,,,1903.9836999999284,1904.4766000000238,1903.4669999999999,1903.983600000024,1901.5947999999523,1903.466899999976,1904.4766000000238,1904.9762999999523,1904.9762999999523,1908.599899999976,516,1908.6,1,1908.6006999999283,6,8,188,0,1,0.8,0.3,Time
,,241220,001,,,2025-06-04_16h27.42.967,Serial_Dependence_U,2023.2.3,Win32,59.880239520968516,,,,,,1908.6012999999523,73,6,1908.6016000000238,73,,,,1912.3806000000238,1912.8737999999523,1911.8642999999522,1912.3806000000238,1909.5981999999285,1911.8641000000239,1912.8738999999762,1913.373399999976,1913.3735,1914.7976000000237,709,1914.7976999999285,1,1914.7982999999522,6,9,189,12,1,1.2,0.3,Time
,,241220,001,,,2025-06-04_16h27.42.967,Serial_Dependence_U,2023.2.3,Win32,59.880239520968516,,,,,,1914.7988999999761,247,6,1914.7991999999285,247,,,,1918.9428999999761,1919.437899999976,1918.4287999999524,1918.9427999999523,1915.796,1918.4286999999285,1919.437899999976,1919.9377999999522,1919.9377999999522,1922.8954999999999,1341,1922.8957999999523,2,1922.8965,6,10,190,29,1,1.6,0.7,Time
,,241220,001,,,2025-06-04_16h27.42.967,Serial_Dependence_U,2023.2.3,Win32,59.880239520968516,,,,,,1922.896899999976,259,6,1922.8972999999523,259,,,,1926.4586999999285,1926.9518999999761,1925.943,1926.4585,1923.9073999999762,1925.943,1926.952,1927.452,1927.452,1929.2091999999284,875,1929.2092999999522,2,1929.2098999999762,6,11,191,26,1,1,0.7,Time
,,241220,001,,,2025-06-04_16h27.42.967,Serial_Dependence_U,2023.2.3,Win32,59.880239520968516,,,,,,1929.210399999976,146,6,1929.2107999999523,146,,,,1933.2006000000238,1933.6996999999285,1932.6902999999522,1933.200399999976,1930.2246999999284,1932.6902999999522,1933.6996999999285,1934.1995,1934.1995,1937.3732999999522,866,1937.373399999976,1,1937.3738999999762,6,12,192,23,1,1.4,0.3,Time
,,241220,001,,,2025-06-04_16h27.42.967,Serial_Dependence_U,2023.2.3,Win32,59.880239520968516,,,,,,1937.3746999999285,123,6,1937.375,123,,,,1941.320600000024,1941.8135,1940.8042999999523,1941.3203999999762,1938.368899999976,1940.8041999999284,1941.8135,1942.3132999999523,1942.3132999999523,1944.3216999999283,807,1944.3217999999522,1,1944.3221999999284,6,13,193,28,1,1.4,0.7,Time
,,241220,001,,,2025-06-04_16h27.42.967,Serial_Dependence_U,2023.2.3,Win32,59.880239520968516,,,,,,1944.3226999999285,146,6,1944.3231000000237,146,,,,1948.0682999999524,1948.5611999999285,1947.5521000000238,1948.0681999999285,1945.319,1947.5521000000238,1948.5612999999523,1949.061,1949.061,1952.4341000000238,783,1952.4341000000238,1,1952.4346999999284,6,14,194,17,1,1.2,0.7,Time
,,241220,001,,,2025-06-04_16h27.42.967,Serial_Dependence_U,2023.2.3,Win32,59.880239520968516,,,,,,1952.435899999976,267,6,1952.4362999999523,267,,,,1956.6152999999522,1957.1081999999285,1956.0987999999522,1956.6151000000239,1953.4331999999285,1956.0986999999284,1957.1081999999285,1957.607899999976,1957.608,1959.3991000000237,1033,1959.3991999999284,1,1959.3997999999522,6,15,195,14,1,1.6,0.3,Time
,,241220,001,,,2025-06-04_16h27.42.967,Serial_Dependence_U,2023.2.3,Win32,59.880239520968516,,,,,,1959.4001999999284,230,6,1959.4006999999285,230,,,,1963.5629999999999,1964.0556999999285,1963.0465,1963.5627999999522,1960.4076999999284,1963.046399999976,1964.0556999999285,1964.5556999999285,1964.5556999999285,1967.1625,1966,1967.1626000000238,4,1967.1631999999283,6,16,196,9,1,1.6,0.7,Time
,,241220,001,,,2025-06-04_16h27.42.967,Serial_Dependence_U,2023.2.3,Win32,59.880239520968516,,,,,,1967.1638999999761,8,6,1967.1641999999285,8,,,,1970.5104999999999,1971.0032999999523,1969.994,1970.510399999976,1968.161100000024,1969.993899999976,1971.0033999999762,1971.5031999999285,1971.5031999999285,1974.8436000000238,900,1974.8436000000238,4,1974.8441999999284,6,17,197,15,1,0.8,0.7,Time
,,241220,001,,,2025-06-04_16h27.42.967,Serial_Dependence_U,2023.2.3,Win32,59.880239520968516,,,,,,1974.8447999999523,168,6,1974.8451000000239,168,,,,1978.2242999999523,1978.7173999999761,1977.707899999976,1978.2241999999285,1975.839600000024,1977.7077999999524,1978.7173999999761,1979.2171000000237,1979.2172999999523,1980.9581999999284,867,1980.9582999999523,4,1980.959399999976,6,18,198,20,1,0.8,0.3,Time
,,241220,001,,,2025-06-04_16h27.42.967,Serial_Dependence_U,2023.2.3,Win32,59.880239520968516,,,,,,1980.9598999999762,166,6,1980.9601999999284,166,,,,1985.0991000000238,1985.5982999999524,1984.588899999976,1985.099,1981.9566000000239,1984.5887999999522,1985.5982999999524,1986.0981000000238,1986.0981999999285,1988.5561999999284,734,1988.5562999999522,1,1988.5567999999523,6,19,199,19,1,1.6,0.7,Time
,,241220,001,,,2025-06-04_16h27.42.967,Serial_Dependence_U,2023.2.3,Win32,59.880239520968516,,,,,,1988.557399999976,192,6,1988.5577999999523,192,,,,1992.1365,1992.6291000000238,1991.619899999976,1992.1363999999762,1989.5536999999285,1991.6197999999522,1992.6291999999285,1993.129,1993.1291000000238,1996.3695,567,1996.3696000000239,1,1996.3701000000237,6,20,200,21,1,1,0.3,Time
,,241220,001,,,2025-06-04_16h27.42.967,Serial_Dependence_U,2023.2.3,Win32,59.880239520968516,,,,,,1996.3706999999285,314,6,1996.3711000000237,314,,,,2000.344,2000.8429999999998,1999.8336000000236,2000.3438999999762,1997.367899999976,1999.8335000000002,2000.8429999999998,2001.3427999999521,2001.3427999999521,2003.5169999999998,1399,2003.5171000000237,3,2003.5176000000238,6,21,201,13,1,1.4,0.3,Time
,,241220,001,,,2025-06-04_16h27.42.967,Serial_Dependence_U,2023.2.3,Win32,59.880239520968516,,,,,,2003.5181999999286,236,6,2003.518600000024,236,,,,2007.7117999999523,2008.2069999999999,2007.1976999999283,2007.7116999999284,2004.529600000024,2007.1976000000236,2008.2071999999284,2008.706899999976,2008.7069999999999,2012.5637999999522,850,2012.5637999999522,1,2012.565,6,22,202,24,1,1.6,0.3,Time
,,241220,001,,,2025-06-04_16h27.42.967,Serial_Dependence_U,2023.2.3,Win32,59.880239520968516,,,,,,2012.5655000000002,129,6,2012.565899999976,129,,,,2015.9612999999522,2016.4542999999521,2015.4446999999286,2015.9611000000236,2013.576600000024,2015.4446999999286,2016.4542999999521,2016.9540000000002,2016.9540000000002,2020.7441999999282,816,2020.744399999976,3,2020.7451000000237,6,23,203,10,1,0.8,0.3,Time
,,241220,001,,,2025-06-04_16h27.42.967,Serial_Dependence_U,2023.2.3,Win32,59.880239520968516,,,,,,2020.7457999999524,118,6,2020.7462999999525,118,,,,2024.7251999999285,2025.2177999999521,2024.2086999999283,2024.725,2021.7424999999998,2024.2086000000236,2025.2177999999521,2025.7176999999283,2025.7176999999283,2027.6251000000238,1150,2027.6251999999286,2,2027.6256999999287,6,24,204,3,1,1.4,0.3,Time
,,241220,001,,,2025-06-04_16h27.42.967,Serial_Dependence_U,2023.2.3,Win32,59.880239520968516,,,,,,2027.6261999999283,246,6,2027.6266000000237,246,,,,2031.583,2032.0821999999284,2031.0731000000237,2031.583,2028.639899999976,2031.0731000000237,2032.0821999999284,2032.5819999999999,2032.5819999999999,2035.6731999999283,910,2035.6732999999522,1,2035.6737999999523,6,25,205,8,1,1.4,0.7,Time
,,241220,001,,,2025-06-04_16h27.42.967,Serial_Dependence_U,2023.2.3,Win32,59.880239520968516,,,,,,2035.6742999999524,153,6,2035.6745,153,,,,2039.8508999999763,2040.3458999999762,2039.3365,2039.8506999999286,2036.6709999999998,2039.3362999999522,2040.346,2040.8457999999523,2040.8458999999762,2043.3526999999285,1177,2043.3527999999524,2,2043.3532999999525,6,26,206,4,1,1.6,0.3,Time
,,241220,001,,,2025-06-04_16h27.42.967,Serial_Dependence_U,2023.2.3,Win32,59.880239520968516,,,,,,2043.353899999976,223,6,2043.3542999999522,223,,,,2047.094100000024,2047.5935,2046.5839999999998,2047.094100000024,2044.351399999976,2046.583899999976,2047.5935,2048.0932999999523,2048.093399999976,2051.767399999976,1550,2051.767399999976,4,2051.767899999976,6,27,207,27,1,1.2,0.7,Time
,,241220,001,,,2025-06-04_16h27.42.967,Serial_Dependence_U,2023.2.3,Win32,59.880239520968516,,,,,,2051.7685,29,6,2051.7686999999282,29,,,,2055.1143999999763,2055.6072999999524,2054.597899999976,2055.1141999999286,2052.7626000000237,2054.5977999999523,2055.607399999976,2056.107100000024,2056.107100000024,2059.497,1425,2059.497,5,2059.4975,6,28,208,25,1,0.8,0.7,Time
,,241220,001,,,2025-06-04_16h27.42.967,Serial_Dependence_U,2023.2.3,Win32,59.880239520968516,,,,,,2059.4982999999525,58,6,2059.498799999952,58,,,,2062.8616999999285,2063.3546999999285,2062.3456000000238,2062.861600000024,2060.5061000000237,2062.3455,2063.3546999999285,2063.854399999976,2063.854399999976,2065.7952999999525,1002,2065.7953999999763,4,2065.795799999952,6,29,209,5,1,0.8,0.7,Time
,,241220,001,,,2025-06-04_16h27.42.967,Serial_Dependence_U,2023.2.3,Win32,59.880239520968516,,,,,,2065.7965,246,7,2068.2863999999763,246,s,2.4706000000242057,,2071.6587999999524,2072.151600000024,2071.142600000024,2071.6586999999286,2069.3091999999283,2071.1425,2072.1516999999285,2072.651399999976,2072.651399999976,2075.142,716,2075.1421000000237,2,2075.1426999999285,7,0,210,25,1,0.8,0.7,Time
,,241220,001,,,2025-06-04_16h27.42.967,Serial_Dependence_U,2023.2.3,Win32,59.880239520968516,,,,,,2075.1433999999763,245,7,2075.1457999999525,245,,,,2079.2891999999283,2079.782,2078.773,2079.2889999999998,2076.1406999999285,2078.7728999999763,2079.782100000024,2080.282,2080.282100000024,2083.8386000000237,1163,2083.8386999999284,2,2083.8391999999285,7,1,211,9,1,1.6,0.7,Time
,,241220,001,,,2025-06-04_16h27.42.967,Serial_Dependence_U,2023.2.3,Win32,59.880239520968516,,,,,,2083.8396999999286,90,7,2083.8401999999282,90,,,,2087.6196999999283,2088.112799999952,2087.1033999999763,2087.6196000000236,2084.8371999999285,2087.1032999999525,2088.112799999952,2088.6125,2088.6126000000236,2090.419899999976,866,2090.42,2,2090.420600000024,7,2,212,12,1,1.2,0.3,Time
,,241220,001,,,2025-06-04_16h27.42.967,Serial_Dependence_U,2023.2.3,Win32,59.880239520968516,,,,,,2090.4211000000237,306,7,2090.421399999976,306,,,,2094.3675,2094.860299999952,2093.851100000024,2094.367299999952,2091.418100000024,2093.851,2094.860299999952,2095.36,2095.360100000024,2098.2006999999285,1716,2098.2007999999523,4,2098.2012999999524,7,3,213,8,1,1.4,0.7,Time
,,241220,001,,,2025-06-04_16h27.42.967,Serial_Dependence_U,2023.2.3,Win32,59.880239520968516,,,,,,2098.2021000000236,218,7,2098.2025,218,,,,2101.764799999952,2102.2576999999283,2101.2482999999525,2101.7646999999283,2099.215399999976,2101.248100000024,2102.2576999999283,2102.757600000024,2102.757600000024,2106.0307999999523,1118,2106.030899999976,4,2106.031399999976,7,4,214,16,1,1,0.7,Time
,,241220,001,,,2025-06-04_16h27.42.967,Serial_Dependence_U,2023.2.3,Win32,59.880239520968516,,,,,,2106.032,103,7,2106.0325,103,,,,2109.5787999999525,2110.0716999999286,2109.0622999999523,2109.5786999999286,2107.0273999999763,2109.0621999999285,2110.0716999999286,2110.5716999999286,2110.5716999999286,2113.962100000024,1183,2113.9621999999285,4,2113.9627999999525,7,5,215,26,1,1,0.7,Time
,,241220,001,,,2025-06-04_16h27.42.967,Serial_Dependence_U,2023.2.3,Win32,59.880239520968516,,,,,,2113.963299999952,160,7,2113.9636000000237,160,,,,2118.1027999999524,2118.6021000000237,2117.592899999976,2118.1026999999285,2114.96,2117.592799999952,2118.6021000000237,2119.102,2119.1021000000237,2121.3102999999523,1167,2121.3105,2,2121.311100000024,7,6,216,29,1,1.6,0.7,Time
,,241220,001,,,2025-06-04_16h27.42.967,Serial_Dependence_U,2023.2.3,Win32,59.880239520968516,,,,,,2121.3116000000236,204,7,2121.312,204,,,,2125.300299999952,2125.799600000024,2124.7906999999286,2125.3001999999283,2122.3242999999525,2124.790600000024,2125.799600000024,2126.2993999999762,2126.2995,2127.656600000024,800,2127.6566999999286,1,2127.657299999952,7,7,217,23,1,1.4,0.3,Time
,,241220,001,,,2025-06-04_16h27.42.967,Serial_Dependence_U,2023.2.3,Win32,59.880239520968516,,,,,,2127.657899999976,59,7,2127.6582999999523,59,,,,2131.601799999952,2132.097399999976,2131.0886999999284,2131.6016999999283,2128.655399999976,2131.0885,2132.097399999976,2132.5971000000236,2132.5971999999283,2134.237799999952,517,2134.237799999952,1,2134.2382999999522,7,8,218,18,1,1.4,0.7,Time
,,241220,001,,,2025-06-04_16h27.42.967,Serial_Dependence_U,2023.2.3,Win32,59.880239520968516,,,,,,2134.2387999999523,189,7,2134.239100000024,189,,,,2137.985399999976,2138.4785,2137.4692999999525,2137.985399999976,2135.2365,2137.4691999999286,2138.478600000024,2138.9782999999525,2138.9783999999763,2142.153299999952,967,2142.153299999952,2,2142.1536999999284,7,9,219,7,1,1.2,0.7,Time
,,241220,001,,,2025-06-04_16h27.42.967,Serial_Dependence_U,2023.2.3,Win32,59.880239520968516,,,,,,2142.154100000024,152,7,2142.1543999999762,152,,,,2146.143,2146.6421999999284,2145.633,2146.142899999976,2143.167,2145.633,2146.6422999999522,2147.142,2147.142,2149.483899999976,1618,2149.484,4,2149.484399999976,7,10,220,3,1,1.4,0.3,Time
,,241220,001,,,2025-06-04_16h27.42.967,Serial_Dependence_U,2023.2.3,Win32,59.880239520968516,,,,,,2149.4847999999524,82,7,2149.485100000024,82,,,,2153.2238999999763,2153.723100000024,2152.714100000024,2153.2237999999525,2150.4811999999283,2152.714,2153.723100000024,2154.223100000024,2154.223100000024,2156.2303999999763,795,2156.2305,1,2156.230899999976,7,11,221,27,1,1.2,0.7,Time
,,241220,001,,,2025-06-04_16h27.42.967,Serial_Dependence_U,2023.2.3,Win32,59.880239520968516,,,,,,2156.2315,31,7,2156.2317999999523,31,,,,2160.009100000024,2160.504,2159.495,2160.009,2157.228799999952,2159.494899999976,2160.504,2161.003899999976,2161.004,2165.0272999999524,619,2165.0273999999763,1,2165.027899999976,7,12,222,2,1,1.2,0.3,Time
,,241220,001,,,2025-06-04_16h27.42.967,Serial_Dependence_U,2023.2.3,Win32,59.880239520968516,,,,,,2165.0285,5,7,2165.028899999976,5,,,,2168.824899999976,2169.317899999976,2168.308600000024,2168.824899999976,2166.040100000024,2168.3085,2169.3179999999998,2169.8175,2169.817699999928,2171.3251999999284,750,2171.3251999999284,1,2171.325899999976,7,13,223,22,1,1.2,0.3,Time
,,241220,001,,,2025-06-04_16h27.42.967,Serial_Dependence_U,2023.2.3,Win32,59.880239520968516,,,,,,2171.3263999999763,349,7,2171.326899999976,349,,,,2175.4996000000237,2175.9986999999282,2174.989600000024,2175.4995,2172.323600000024,2174.9895,2175.998799999952,2176.498600000024,2176.498600000024,2179.688799999952,883,2179.688799999952,1,2179.6895,7,14,224,24,1,1.6,0.3,Time
,,241220,001,,,2025-06-04_16h27.42.967,Serial_Dependence_U,2023.2.3,Win32,59.880239520968516,,,,,,2179.690100000024,134,7,2179.6903999999763,134,,,,2183.2696000000237,2183.7626000000237,2182.753799999952,2183.2695,2180.6872999999523,2182.753799999952,2183.7626999999284,2184.2626000000237,2184.2626000000237,2185.954,634,2185.954100000024,1,2185.9546000000237,7,15,225,21,1,1,0.3,Time
,,241220,001,,,2025-06-04_16h27.42.967,Serial_Dependence_U,2023.2.3,Win32,59.880239520968516,,,,,,2185.955,150,7,2185.9552999999523,150,,,,2189.494799999952,2189.9938999999763,2188.9845,2189.4946999999283,2186.951699999928,2188.984399999976,2189.9938999999763,2190.4936999999286,2190.4936999999286,2193.3671999999283,890,2193.367299999952,2,2193.3677999999522,7,16,226,6,1,1,0.7,Time
,,241220,001,,,2025-06-04_16h27.42.967,Serial_Dependence_U,2023.2.3,Win32,59.880239520968516,,,,,,2193.368399999976,137,7,2193.3687999999524,137,,,,2196.7485,2197.2413999999762,2196.232100000024,2196.7482999999525,2194.3657999999523,2196.232,2197.2413999999762,2197.7411999999285,2197.7411999999285,2201.5312999999524,933,2201.5312999999524,4,2201.5318999999763,7,17,227,10,1,0.8,0.3,Time
,,241220,001,,,2025-06-04_16h27.42.967,Serial_Dependence_U,2023.2.3,Win32,59.880239520968516,,,,,,2201.532399999976,107,7,2201.533,107,,,,2204.8765,2205.372,2204.363,2204.876399999976,2202.5296999999287,2204.362899999976,2205.3721000000237,2205.8716999999283,2205.8716999999283,2209.711399999976,933,2209.7115,4,2209.712,7,18,228,15,1,0.8,0.7,Time
,,241220,001,,,2025-06-04_16h27.42.967,Serial_Dependence_U,2023.2.3,Win32,59.880239520968516,,,,,,2209.7125,305,7,2209.7129999999997,305,,,,2213.692699999928,2214.185399999976,2213.1757999999522,2213.692600000024,2210.7102999999524,2213.1756999999284,2214.1855,2214.6902999999525,2214.6903999999763,2216.6259999999997,1116,2216.6261000000236,2,2216.6266999999284,7,19,229,13,1,1.4,0.3,Time
,,241220,001,,,2025-06-04_16h27.42.967,Serial_Dependence_U,2023.2.3,Win32,59.880239520968516,,,,,,2216.6271999999285,357,7,2216.6275,357,,,,2220.5877999999525,2221.083,2220.0736999999285,2220.5876999999286,2217.6411999999286,2220.073600000024,2221.083,2221.583,2221.583,2224.672799999952,816,2224.672799999952,1,2224.673399999976,7,20,230,28,1,1.4,0.7,Time
,,241220,001,,,2025-06-04_16h27.42.967,Serial_Dependence_U,2023.2.3,Win32,59.880239520968516,,,,,,2224.674,99,7,2224.6743999999762,99,,,,2228.253,2228.7471000000237,2227.738,2228.253,2225.672,2227.737899999976,2228.7471999999284,2229.246899999976,2229.247,2231.5217999999522,1134,2231.521899999976,4,2231.522399999976,7,21,231,11,1,1,0.3,Time
,,241220,001,,,2025-06-04_16h27.42.967,Serial_Dependence_U,2023.2.3,Win32,59.880239520968516,,,,,,2231.5227999999524,272,7,2231.523100000024,272,,,,2234.8685,2235.3612999999523,2234.3525,2234.8685,2232.5191999999283,2234.352399999976,2235.361399999976,2235.8612999999523,2235.861399999976,2237.5031999999283,975,2237.5031999999283,4,2237.5036000000237,7,22,232,5,1,0.8,0.7,Time
,,241220,001,,,2025-06-04_16h27.42.967,Serial_Dependence_U,2023.2.3,Win32,59.880239520968516,,,,,,2237.5041999999285,144,7,2237.5045,144,,,,2241.2496000000237,2241.7426000000237,2240.733299999952,2241.2495,2238.4982999999525,2240.7331999999283,2241.7426000000237,2242.242399999976,2242.2425,2245.666,1490,2245.666100000024,4,2245.6666000000237,7,23,233,17,1,1.2,0.7,Time
,,241220,001,,,2025-06-04_16h27.42.967,Serial_Dependence_U,2023.2.3,Win32,59.880239520968516,,,,,,2245.6671000000238,140,7,2245.6672999999523,140,,,,2249.063799999952,2249.556600000024,2248.5472999999524,2249.0636999999283,2246.6746999999286,2248.5471999999286,2249.556600000024,2250.0563999999763,2250.0563999999763,2251.714,683,2251.714,2,2251.714600000024,7,24,234,20,1,0.8,0.3,Time
,,241220,001,,,2025-06-04_16h27.42.967,Serial_Dependence_U,2023.2.3,Win32,59.880239520968516,,,,,,2251.715799999952,93,7,2251.7161000000237,93,,,,2255.1115,2255.604299999952,2254.595399999976,2255.111399999976,2252.728899999976,2254.595299999952,2255.604399999976,2256.1041999999284,2256.1041999999284,2258.8282999999524,800,2258.8282999999524,3,2258.8288999999763,7,25,235,0,1,0.8,0.3,Time
,,241220,001,,,2025-06-04_16h27.42.967,Serial_Dependence_U,2023.2.3,Win32,59.880239520968516,,,,,,2258.8295,326,7,2258.829899999976,326,,,,2262.9755,2263.468399999976,2262.4592999999522,2262.9755,2259.8263999999763,2262.4591999999284,2263.468399999976,2263.9681000000237,2263.9681000000237,2267.6581000000238,1483,2267.6581000000238,2,2267.6586999999286,7,26,236,19,1,1.6,0.7,Time
,,241220,001,,,2025-06-04_16h27.42.967,Serial_Dependence_U,2023.2.3,Win32,59.880239520968516,,,,,,2267.659399999976,71,7,2267.6596999999283,71,,,,2271.853100000024,2272.3485,2271.3392999999523,2271.853,2268.6735,2271.339100000024,2272.3485,2272.848399999976,2272.8485,2276.3888999999763,2066,2276.389,4,2276.3896999999283,7,27,237,4,1,1.6,0.3,Time
,,241220,001,,,2025-06-04_16h27.42.967,Serial_Dependence_U,2023.2.3,Win32,59.880239520968516,,,,,,2276.3901999999284,186,7,2276.3905,186,,,,2280.585799999952,2281.0788999999763,2280.0698999999763,2280.5856999999282,2277.4035,2280.069600000024,2281.0788999999763,2281.579,2281.579,2286.201899999976,983,2286.2019999999998,1,2286.2026999999284,7,28,238,14,1,1.6,0.3,Time
,,241220,001,,,2025-06-04_16h27.42.967,Serial_Dependence_U,2023.2.3,Win32,59.880239520968516,,,,,,2286.2032999999524,212,7,2286.2038999999763,212,,,,2289.796899999976,2290.2922999999523,2289.282799999952,2289.7967999999523,2287.2168999999762,2289.2826000000236,2290.2922999999523,2290.7921999999285,2290.7922999999523,2292.1331000000237,133,2292.1331999999284,1,2292.1336999999285,7,29,239,1,1,1,0.3,Time
,,241220,001,,,2025-06-04_16h27.42.967,Serial_Dependence_U,2023.2.3,Win32,59.880239520968516,,,,,,2292.134600000024,281,8,2295.3075,281,s,3.1487000000474836,,2299.063100000024,2299.5556999999285,2298.546299999952,2299.063,2296.3136000000236,2298.5461999999284,2299.5556999999285,2300.0555,2300.055600000024,2302.262399999976,675,2302.262399999976,1,2302.262799999952,8,0,240,27,1,1.2,0.7,Time
,,241220,001,,,2025-06-04_16h27.42.967,Serial_Dependence_U,2023.2.3,Win32,59.880239520968516,,,,,,2302.2632999999523,103,8,2302.2651999999284,103,,,,2306.243399999976,2306.736600000024,2305.7271000000237,2306.2432999999523,2303.261600000024,2305.727,2306.736600000024,2307.236399999976,2307.236399999976,2309.0775,783,2309.0776000000237,1,2309.078,8,1,241,23,1,1.4,0.3,Time
,,241220,001,,,2025-06-04_16h27.42.967,Serial_Dependence_U,2023.2.3,Win32,59.880239520968516,,,,,,2309.078399999976,127,8,2309.0788999999763,127,,,,2313.041399999976,2313.534100000024,2312.5253999999763,2313.041299999952,2310.0921999999287,2312.5252999999525,2313.534100000024,2314.022600000024,2314.022600000024,2316.0085,1017,2316.0086000000238,2,2316.0091999999286,8,2,242,28,1,1.4,0.7,Time
,,241220,001,,,2025-06-04_16h27.42.967,Serial_Dependence_U,2023.2.3,Win32,59.880239520968516,,,,,,2316.009799999952,317,8,2316.010399999976,317,,,,2319.9496999999283,2320.4485,2319.4391000000237,2319.949600000024,2317.005899999976,2319.438899999976,2320.4485,2320.9482999999523,2320.9482999999523,2322.9225,900,2322.9225,1,2322.923,8,3,243,8,1,1.4,0.7,Time
,,241220,001,,,2025-06-04_16h27.42.967,Serial_Dependence_U,2023.2.3,Win32,59.880239520968516,,,,,,2322.9235,95,8,2322.9237999999523,95,,,,2327.086399999976,2327.579299999952,2326.5701999999283,2327.086399999976,2323.934899999976,2326.57,2327.579399999976,2328.0791999999283,2328.079299999952,2329.7032999999524,740,2329.7032999999524,1,2329.7037999999525,8,4,244,19,1,1.6,0.7,Time
,,241220,001,,,2025-06-04_16h27.42.967,Serial_Dependence_U,2023.2.3,Win32,59.880239520968516,,,,,,2329.704399999976,224,8,2329.7047999999522,224,,,,2333.101399999976,2333.593899999976,2332.584399999976,2333.101399999976,2330.7181999999284,2332.5842999999522,2333.594,2334.0937999999524,2334.0937999999524,2337.5326000000236,514,2337.5326000000236,1,2337.5331999999285,8,5,245,20,1,0.8,0.3,Time
,,241220,001,,,2025-06-04_16h27.42.967,Serial_Dependence_U,2023.2.3,Win32,59.880239520968516,,,,,,2337.533600000024,302,8,2337.534,302,,,,2341.098399999976,2341.5911999999284,2340.581799999952,2341.098399999976,2338.5491999999285,2340.5816999999283,2341.5912999999523,2342.091,2342.091,2343.4995,818,2343.4996000000237,2,2343.5,8,6,246,16,1,1,0.7,Time
,,241220,001,,,2025-06-04_16h27.42.967,Serial_Dependence_U,2023.2.3,Win32,59.880239520968516,,,,,,2343.5005,336,8,2343.500799999952,336,,,,2347.296,2347.7889999999998,2346.7795,2347.296,2344.5072999999525,2346.7793999999762,2347.7889999999998,2348.288899999976,2348.288899999976,2351.012299999952,192,2351.012399999976,1,2351.013,8,7,247,2,1,1.2,0.3,Time
,,241220,001,,,2025-06-04_16h27.42.967,Serial_Dependence_U,2023.2.3,Win32,59.880239520968516,,,,,,2351.0138999999763,268,8,2351.014299999952,268,,,,2354.610199999928,2355.103,2354.0941999999286,2354.610199999928,2352.0211999999283,2354.094100000024,2355.103100000024,2355.602899999976,2355.603,2357.1117999999524,685,2357.1117999999524,1,2357.1123999999763,8,8,248,1,1,1,0.3,Time
,,241220,001,,,2025-06-04_16h27.42.967,Serial_Dependence_U,2023.2.3,Win32,59.880239520968516,,,,,,2357.112899999976,65,8,2357.1132999999522,65,,,,2360.4911999999285,2360.984399999976,2359.9751000000238,2360.491100000024,2358.108399999976,2359.975,2360.984399999976,2361.4841999999285,2361.4841999999285,2364.807899999976,278,2364.808100000024,1,2364.8085,8,9,249,0,1,0.8,0.3,Time
,,241220,001,,,2025-06-04_16h27.42.967,Serial_Dependence_U,2023.2.3,Win32,59.880239520968516,,,,,,2364.809299999952,110,8,2364.8097999999522,110,,,,2368.405399999976,2368.8981999999282,2367.8896999999283,2368.405299999952,2365.8231000000237,2367.8896000000236,2368.898299999952,2369.398100000024,2369.398100000024,2370.2387999999523,183,2370.239,1,2370.239600000024,8,10,250,21,1,1,0.3,Time
,,241220,001,,,2025-06-04_16h27.42.967,Serial_Dependence_U,2023.2.3,Win32,59.880239520968516,,,,,,2370.240299999952,139,8,2370.240899999976,139,,,,2374.42,2374.9127999999523,2373.9037999999523,2374.419899999976,2371.235399999976,2373.9036999999284,2374.912899999976,2375.4127999999523,2375.412899999976,2380.7356000000236,833,2380.7356999999283,1,2380.7361000000237,8,11,251,14,1,1.6,0.3,Time
,,241220,001,,,2025-06-04_16h27.42.967,Serial_Dependence_U,2023.2.3,Win32,59.880239520968516,,,,,,2380.7367999999524,110,8,2380.7373999999763,110,,,,2384.9165,2385.409299999952,2384.4,2384.916399999976,2381.7317999999523,2384.4,2385.409299999952,2385.909,2385.909100000024,2387.4422999999524,977,2387.4423999999763,1,2387.4429999999998,8,12,252,4,1,1.6,0.3,Time
,,241220,001,,,2025-06-04_16h27.42.967,Serial_Dependence_U,2023.2.3,Win32,59.880239520968516,,,,,,2387.4437999999523,217,8,2387.4441999999285,217,,,,2391.4415,2391.9402999999525,2390.925,2391.441399999976,2388.4586999999283,2390.9247999999525,2391.9402999999525,2392.4402999999525,2392.4403999999763,2395.7561000000237,1317,2395.7561000000237,2,2395.7566999999285,8,13,253,3,1,1.4,0.3,Time
,,241220,001,,,2025-06-04_16h27.42.967,Serial_Dependence_U,2023.2.3,Win32,59.880239520968516,,,,,,2395.757100000024,202,8,2395.7575,202,,,,2399.5216000000237,2400.0206999999286,2399.005199999928,2399.5215,2396.7727999999524,2399.005,2400.0207999999525,2400.520600000024,2400.520600000024,2402.620399999976,1189,2402.620399999976,3,2402.6208999999762,8,14,254,7,1,1.2,0.7,Time
,,241220,001,,,2025-06-04_16h27.42.967,Serial_Dependence_U,2023.2.3,Win32,59.880239520968516,,,,,,2402.6214999999997,31,8,2402.621899999976,31,,,,2406.1858999999763,2406.6851999999285,2405.669600000024,2406.1857999999525,2403.6366999999286,2405.6695,2406.6851999999285,2407.185,2407.185100000024,2409.068399999976,1234,2409.068399999976,4,2409.0691999999285,8,15,255,26,1,1,0.7,Time
,,241220,001,,,2025-06-04_16h27.42.967,Serial_Dependence_U,2023.2.3,Win32,59.880239520968516,,,,,,2409.0696999999286,142,8,2409.0705,142,,,,2412.4336999999286,2412.933,2411.917399999976,2412.433600000024,2410.084600000024,2411.9172999999523,2412.933,2413.432899999976,2413.432899999976,2417.082,800,2417.0821000000237,3,2417.0827999999524,8,16,256,15,1,0.8,0.7,Time
,,241220,001,,,2025-06-04_16h27.42.967,Serial_Dependence_U,2023.2.3,Win32,59.880239520968516,,,,,,2417.0831999999286,338,8,2417.0836000000236,338,,,,2421.2472999999522,2421.7466000000236,2420.730899999976,2421.2471999999284,2418.0986999999286,2420.730799999952,2421.7466999999283,2422.246399999976,2422.246399999976,2425.8125,1383,2425.812600000024,2,2425.813100000024,8,17,257,9,1,1.6,0.7,Time
,,241220,001,,,2025-06-04_16h27.42.967,Serial_Dependence_U,2023.2.3,Win32,59.880239520968516,,,,,,2425.8136000000236,92,8,2425.8141000000237,92,,,,2429.378,2429.8772999999524,2428.8615,2429.3778999999763,2426.8288999999763,2428.861399999976,2429.8772999999524,2430.376899999976,2430.376899999976,2434.026,1568,2434.0261000000237,5,2434.026600000024,8,18,258,6,1,1,0.7,Time
