Scale_setup.started,Scale_setup.stopped,participant,session,sex,age,date,expName,psychopyVersion,OS,frameRate,Intro.started,Intro.stopped,key_resp_2.keys,key_resp_2.rt,key_resp_2.duration,block.started,direction,Block_id,block.stopped,trial_direction,Block_resp_2.keys,Block_resp_2.rt,Block_resp_2.duration,ITI.started,ITI.stopped,Mask_2.started,Mask_2.stopped,encoding.started,encoding.stopped,Cue.started,Cue.stopped,Response.started,Response.stopped,keyDuration,Feedback_Time.started,FeedbackID_T,Feedback_Time.stopped,trials.thisRepN,trials.thisTrialN,trials.thisN,trials.thisIndex,trials.ran,TimeDur,Coherence1,TrialType
0.00030000000005259153,0.0004000000001411763,312070,001,女,21,2025-06-03_12h39.48.200,Serial_Dependence_U,2023.2.3,Win32,120.48192771080113,,,,,,,,,,,,,,,,,,,,,,,,,,,,,,,,,,,
,,312070,001,女,21,2025-06-03_12h39.48.200,Serial_Dependence_U,2023.2.3,Win32,120.48192771080113,9.773600000000101,15.285800000000052,space,5.491400000000141,,,,,,,,,,,,,,,,,,,,,,,,,,,,,,,
,,312070,001,女,21,2025-06-03_12h39.48.200,Serial_Dependence_U,2023.2.3,Win32,120.48192771080113,,,,,,15.289100000000104,147,0,18.10630000000006,147,s,2.801400000000143,,22.057699999999954,22.55990000000014,21.55390000000014,22.057500000000005,19.115499999999997,21.553800000000052,22.56010000000009,23.060900000000146,23.061000000000007,23.628900000000158,516,23.629100000000108,1,24.623699999999957,0,0,0,28,1,1.4,0.7,Time
,,312070,001,女,21,2025-06-03_12h39.48.200,Serial_Dependence_U,2023.2.3,Win32,120.48192771080113,,,,,,24.624199999999945,317,0,24.625900000000144,317,,,,28.803400000000153,29.301400000000143,28.295400000000143,28.803400000000153,25.628300000000053,28.295300000000054,29.301400000000143,29.80210000000011,29.80210000000011,60.486600000000095,1558,60.486600000000095,3,61.48090000000013,0,1,1,24,1,1.6,0.3,Time
,,312070,001,女,21,2025-06-03_12h39.48.200,Serial_Dependence_U,2023.2.3,Win32,120.48192771080113,,,,,,61.4816000000001,121,0,61.482,121,,,,64.85610000000008,65.35569999999996,64.35230000000004,64.85610000000008,62.486800000000045,64.35210000000009,65.35580000000004,65.8555,65.8556000000001,66.3556000000001,433,66.35569999999996,1,67.356,0,2,2,20,1,0.8,0.3,Time
,,312070,001,女,21,2025-06-03_12h39.48.200,Serial_Dependence_U,2023.2.3,Win32,120.48192771080113,,,,,,67.3566000000001,358,0,67.35669999999996,358,,,,71.0975,71.59730000000005,70.58930000000004,71.09740000000014,68.35610000000008,70.58919999999995,71.59730000000005,72.09719999999996,72.09730000000005,92.72190000000015,1208,92.72200000000001,3,93.72200000000001,0,3,3,17,1,1.2,0.7,Time
,,312070,001,女,21,2025-06-03_12h39.48.200,Serial_Dependence_U,2023.2.3,Win32,120.48192771080113,,,,,,93.72240000000014,78,0,93.72260000000009,78,,,,97.3055,97.80519999999996,96.79740000000015,97.30540000000013,94.73040000000015,96.79730000000006,97.80519999999996,98.30519999999996,98.30530000000005,121.06080000000006,1475,121.06090000000015,5,122.06330000000005,0,4,4,21,1,1,0.3,Time
,,312070,001,女,21,2025-06-03_12h39.48.200,Serial_Dependence_U,2023.2.3,Win32,120.48192771080113,,,,,,122.06390000000013,171,0,122.06419999999997,171,,,,125.4421000000001,125.93790000000016,124.93549999999999,125.44200000000001,123.06890000000016,124.93540000000016,125.93790000000016,126.43780000000004,126.43800000000002,129.87619999999995,362,129.87640000000013,1,130.87719999999996,0,5,5,10,1,0.8,0.3,Time
,,312070,001,女,21,2025-06-03_12h39.48.200,Serial_Dependence_U,2023.2.3,Win32,120.48192771080113,,,,,,130.8775,252,0,130.87780000000006,252,,,,134.827,135.3211000000001,134.32150000000001,134.82690000000014,131.8855,134.32130000000006,135.32119999999995,135.82119999999995,135.82119999999995,137.46869999999996,410,137.46880000000004,1,138.46290000000013,0,6,6,8,1,1.4,0.7,Time
,,312070,001,女,21,2025-06-03_12h39.48.200,Serial_Dependence_U,2023.2.3,Win32,120.48192771080113,,,,,,138.46330000000006,95,0,138.4636000000001,95,,,,142.43819999999994,142.93790000000013,141.9296000000001,142.43819999999994,139.46430000000004,141.9296000000001,142.93790000000013,143.43780000000004,143.43780000000004,146.22930000000002,850,146.22950000000003,1,147.22930000000002,0,7,7,23,1,1.4,0.3,Time
,,312070,001,女,21,2025-06-03_12h39.48.200,Serial_Dependence_U,2023.2.3,Win32,120.48192771080113,,,,,,147.22960000000012,201,0,147.22980000000007,201,,,,151.01030000000003,151.5091000000001,150.5046000000001,151.01019999999994,148.23790000000014,150.50440000000015,151.5091000000001,152.0091000000001,152.00919999999996,154.1271000000001,1149,154.12719999999996,3,155.12650000000002,0,8,8,22,1,1.2,0.3,Time
,,312070,001,女,21,2025-06-03_12h39.48.200,Serial_Dependence_U,2023.2.3,Win32,120.48192771080113,,,,,,155.127,254,0,155.12730000000005,254,,,,159.30450000000002,159.80419999999998,158.79619999999994,159.30440000000016,156.13069999999993,158.79619999999994,159.80430000000007,160.30410000000012,160.30419999999998,163.24569999999994,1425,163.24580000000003,2,164.24569999999994,0,9,9,4,1,1.6,0.3,Time
,,312070,001,女,21,2025-06-03_12h39.48.200,Serial_Dependence_U,2023.2.3,Win32,120.48192771080113,,,,,,164.24630000000008,49,0,164.24650000000003,49,,,,167.5961000000001,168.09569999999997,167.08760000000012,167.596,165.25440000000015,167.08760000000012,168.09569999999997,168.59590000000014,168.59590000000014,170.74569999999994,1266,170.74569999999994,5,171.74569999999994,0,10,10,5,1,0.8,0.7,Time
,,312070,001,女,21,2025-06-03_12h39.48.200,Serial_Dependence_U,2023.2.3,Win32,120.48192771080113,,,,,,171.74610000000007,68,0,171.74619999999993,68,,,,175.901,176.39569999999998,175.39300000000003,175.901,172.75430000000006,175.39290000000017,176.39569999999998,176.89980000000003,176.89980000000003,178.8845,1084,178.8845,1,179.88269999999994,0,11,11,9,1,1.6,0.7,Time
,,312070,001,女,21,2025-06-03_12h39.48.200,Serial_Dependence_U,2023.2.3,Win32,120.48192771080113,,,,,,179.88310000000007,273,0,179.88319999999993,273,,,,183.66940000000017,184.17040000000014,183.15050000000002,183.66940000000017,180.8845,183.15030000000007,184.1705,184.6706000000001,184.67069999999995,186.0621000000001,666,186.0621000000001,1,187.0621000000001,0,12,12,2,1,1.2,0.3,Time
,,312070,001,女,21,2025-06-03_12h39.48.200,Serial_Dependence_U,2023.2.3,Win32,120.48192771080113,,,,,,187.0625,30,0,187.06269999999995,30,,,,191.21230000000003,191.71219999999994,190.704,191.21219999999994,188.07049999999998,190.70380000000006,191.71219999999994,192.21210000000008,192.21219999999994,194.58680000000004,1358,194.58680000000004,2,195.58740000000012,0,13,13,29,1,1.6,0.7,Time
,,312070,001,女,21,2025-06-03_12h39.48.200,Serial_Dependence_U,2023.2.3,Win32,120.48192771080113,,,,,,195.58790000000016,99,0,195.58819999999997,99,,,,199.13490000000013,199.63360000000011,198.6266000000001,199.13490000000013,196.59260000000012,198.62650000000002,199.63360000000011,200.13319999999993,200.13330000000008,202.20100000000002,1300,202.2011000000001,5,203.19549999999998,0,14,14,6,1,1,0.7,Time
,,312070,001,女,21,2025-06-03_12h39.48.200,Serial_Dependence_U,2023.2.3,Win32,120.48192771080113,,,,,,203.19619999999998,85,0,203.19650000000001,85,,,,206.76280000000003,207.26190000000014,206.25919999999996,206.76280000000003,204.19240000000013,206.2591000000001,207.262,207.75760000000008,207.75769999999994,209.34219999999993,725,209.34230000000002,2,210.33680000000004,0,15,15,11,1,1,0.3,Time
,,312070,001,女,21,2025-06-03_12h39.48.200,Serial_Dependence_U,2023.2.3,Win32,120.48192771080113,,,,,,210.33719999999994,86,0,210.33740000000012,86,,,,214.28449999999998,214.7905,213.77130000000005,214.28430000000003,211.33919999999995,213.7711000000001,214.7906000000001,215.29130000000004,215.29140000000012,217.40069999999997,1200,217.40069999999997,2,218.39490000000012,0,16,16,18,1,1.4,0.7,Time
,,312070,001,女,21,2025-06-03_12h39.48.200,Serial_Dependence_U,2023.2.3,Win32,120.48192771080113,,,,,,218.39540000000017,5,0,218.39560000000012,5,,,,221.77530000000007,222.27219999999994,221.26740000000012,221.77519999999998,219.40050000000002,221.26730000000003,222.27219999999994,222.76980000000003,222.76990000000012,224.267,579,224.267,2,225.26630000000006,0,17,17,0,1,0.8,0.3,Time
,,312070,001,女,21,2025-06-03_12h39.48.200,Serial_Dependence_U,2023.2.3,Win32,120.48192771080113,,,,,,225.26669999999996,242,0,225.26690000000013,242,,,,229.23700000000002,229.73319999999995,228.72950000000003,229.23690000000016,226.26730000000003,228.72940000000017,229.73319999999995,230.22819999999996,230.22830000000005,232.09250000000003,1141,232.09250000000003,2,233.09480000000008,0,18,18,3,1,1.4,0.3,Time
,,312070,001,女,21,2025-06-03_12h39.48.200,Serial_Dependence_U,2023.2.3,Win32,120.48192771080113,,,,,,233.09550000000002,305,0,233.09569999999997,305,,,,237.24219999999997,237.73640000000012,236.73380000000003,237.24219999999997,234.09510000000012,236.73369999999994,237.73649999999998,238.23619999999994,238.23630000000003,240.57530000000003,1658,240.57530000000003,3,241.56969999999995,0,19,19,19,1,1.6,0.7,Time
,,312070,001,女,21,2025-06-03_12h39.48.200,Serial_Dependence_U,2023.2.3,Win32,120.48192771080113,,,,,,241.57019999999994,63,0,241.57069999999993,63,,,,245.745,246.24469999999997,245.24180000000007,245.74490000000014,242.57440000000014,245.24180000000007,246.24480000000005,246.74,246.74,248.79169999999993,1447,248.79169999999993,2,249.7861000000001,0,20,20,14,1,1.6,0.3,Time
,,312070,001,女,21,2025-06-03_12h39.48.200,Serial_Dependence_U,2023.2.3,Win32,120.48192771080113,,,,,,249.78669999999994,197,0,249.78690000000012,197,,,,253.52460000000008,254.01940000000013,253.02300000000002,253.5245,250.79160000000007,253.02300000000002,254.01940000000013,254.51560000000012,254.51560000000012,256.7252,1417,256.72530000000006,4,257.71930000000003,0,21,21,27,1,1.2,0.7,Time
,,312070,001,女,21,2025-06-03_12h39.48.200,Serial_Dependence_U,2023.2.3,Win32,120.48192771080113,,,,,,257.7198000000001,223,0,257.72,223,,,,261.7078000000001,262.20760000000007,261.2,261.70769999999993,258.7331000000001,261.1999000000001,262.20760000000007,262.70769999999993,262.70769999999993,264.49180000000007,1175,264.49180000000007,2,265.48580000000004,0,22,22,13,1,1.4,0.3,Time
,,312070,001,女,21,2025-06-03_12h39.48.200,Serial_Dependence_U,2023.2.3,Win32,120.48192771080113,,,,,,265.4863,176,0,265.4865,176,,,,268.836,269.33580000000006,268.3278,268.83590000000015,266.49150000000003,268.32769999999994,269.33590000000015,269.8357,269.83580000000006,271.14419999999996,633,271.14419999999996,2,272.144,0,23,23,15,1,0.8,0.7,Time
,,312070,001,女,21,2025-06-03_12h39.48.200,Serial_Dependence_U,2023.2.3,Win32,120.48192771080113,,,,,,272.14440000000013,287,0,272.1445,287,,,,275.49430000000007,275.9942,274.98590000000013,275.4941000000001,273.1526000000001,274.98580000000004,275.9942,276.4942,276.49430000000007,278.3106000000001,1141,278.31069999999994,5,279.31069999999994,0,24,24,25,1,0.8,0.7,Time
,,312070,001,女,21,2025-06-03_12h39.48.200,Serial_Dependence_U,2023.2.3,Win32,120.48192771080113,,,,,,279.311,131,0,279.3112,131,,,,282.86090000000013,283.36069999999995,282.3526000000001,282.86090000000013,280.31919999999997,282.3526000000001,283.36080000000004,283.86069999999995,283.86080000000004,285.45230000000004,941,285.45230000000004,2,286.45219999999995,0,25,25,26,1,1,0.7,Time
,,312070,001,女,21,2025-06-03_12h39.48.200,Serial_Dependence_U,2023.2.3,Win32,120.48192771080113,,,,,,286.4525,350,0,286.45269999999994,350,,,,290.2024000000001,290.70230000000004,289.6941000000001,290.20230000000004,287.4606000000001,289.694,290.70230000000004,291.20230000000004,291.20230000000004,293.1021000000001,1443,293.1021000000001,4,294.1022,0,26,26,7,1,1.2,0.7,Time
,,312070,001,女,21,2025-06-03_12h39.48.200,Serial_Dependence_U,2023.2.3,Win32,120.48192771080113,,,,,,294.1025,196,0,294.10280000000006,196,,,,297.6856000000001,298.18540000000013,297.17740000000015,297.6856000000001,295.11080000000004,297.17730000000006,298.18540000000013,298.6855,298.6855,300.21880000000004,908,300.21880000000004,2,301.21880000000004,0,27,27,1,1,1,0.3,Time
,,312070,001,女,21,2025-06-03_12h39.48.200,Serial_Dependence_U,2023.2.3,Win32,120.48192771080113,,,,,,301.21919999999994,49,0,301.2195,49,,,,305.00230000000005,305.50190000000015,304.4941000000001,305.00230000000005,302.22730000000007,304.4941000000001,305.502,306.00190000000015,306.002,308.19390000000016,1625,308.194,5,309.19350000000003,0,28,28,12,1,1.2,0.3,Time
,,312070,001,女,21,2025-06-03_12h39.48.200,Serial_Dependence_U,2023.2.3,Win32,120.48192771080113,,,,,,309.19390000000016,77,0,309.19419999999997,77,,,,312.7438000000001,313.2436000000001,312.23569999999995,312.74369999999993,310.2021000000001,312.2356000000001,313.2436000000001,313.7436000000001,313.744,315.42680000000007,933,315.42690000000016,2,316.42690000000016,0,29,29,16,1,1,0.7,Time
,,312070,001,女,21,2025-06-03_12h39.48.200,Serial_Dependence_U,2023.2.3,Win32,120.48192771080113,,,,,,316.42730000000006,17,1,332.69319999999993,17,s,16.254699999999957,,336.4768,336.9764000000001,335.97369999999995,336.4768,333.7015,335.97369999999995,336.9764000000001,337.4764000000001,337.4766000000001,339.41540000000015,1325,339.41540000000015,4,339.41580000000005,1,0,30,22,1,1.2,0.3,Time
,,312070,001,女,21,2025-06-03_12h39.48.200,Serial_Dependence_U,2023.2.3,Win32,120.48192771080113,,,,,,339.41590000000014,88,1,339.4166000000001,88,,,,343.1619000000001,343.6595,342.6575,343.1618,340.4235,342.65740000000017,343.6596000000001,344.15490000000017,344.15500000000003,345.8346000000001,1168,345.83469999999994,3,345.83480000000003,1,1,31,7,1,1.2,0.7,Time
,,312070,001,女,21,2025-06-03_12h39.48.200,Serial_Dependence_U,2023.2.3,Win32,120.48192771080113,,,,,,345.8349000000001,76,1,345.835,76,,,,350.0133000000001,350.50980000000004,349.51,350.0133000000001,346.84319999999997,349.50980000000004,350.50990000000013,351.00969999999995,351.00969999999995,352.9102,1300,352.91030000000006,2,352.9106000000001,1,2,32,4,1,1.6,0.3,Time
,,312070,001,女,21,2025-06-03_12h39.48.200,Serial_Dependence_U,2023.2.3,Win32,120.48192771080113,,,,,,352.91090000000014,353,1,352.911,353,,,,356.8597,357.3597,356.3514000000001,356.8597,353.918,356.35130000000004,357.3597,357.85940000000016,357.8595,360.06769999999995,1566,360.06780000000003,4,360.0679000000001,1,3,33,28,1,1.4,0.7,Time
,,312070,001,女,21,2025-06-03_12h39.48.200,Serial_Dependence_U,2023.2.3,Win32,120.48192771080113,,,,,,360.06819999999993,303,1,360.06840000000017,303,,,,363.45130000000006,363.951,362.94269999999995,363.4512,361.0765,362.94269999999995,363.9511000000001,364.4511000000001,364.4511000000001,366.10919999999993,967,366.1093000000001,4,366.10940000000016,1,4,34,10,1,0.8,0.3,Time
,,312070,001,女,21,2025-06-03_12h39.48.200,Serial_Dependence_U,2023.2.3,Win32,120.48192771080113,,,,,,366.1096000000001,113,1,366.1097,113,,,,369.6595,370.15930000000003,369.15140000000014,369.6595,367.1181000000001,369.15140000000014,370.15930000000003,370.6594000000001,370.6595,372.6341000000001,1325,372.63419999999996,5,372.63440000000014,1,5,35,6,1,1,0.7,Time
,,312070,001,女,21,2025-06-03_12h39.48.200,Serial_Dependence_U,2023.2.3,Win32,120.48192771080113,,,,,,372.63469999999995,315,1,372.63480000000004,315,,,,376.1742,376.6722,375.66519999999997,376.174,373.63190000000014,375.66519999999997,376.6722,377.1721000000001,377.1722,378.907,1083,378.907,4,378.90719999999993,1,6,36,26,1,1,0.7,Time
,,312070,001,女,21,2025-06-03_12h39.48.200,Serial_Dependence_U,2023.2.3,Win32,120.48192771080113,,,,,,378.9075,49,1,378.9075,49,,,,383.09030000000007,383.58880000000005,382.58180000000004,383.0902,379.91450000000003,382.58169999999996,383.58880000000005,384.089,384.0891000000001,386.18119999999993,1358,386.18119999999993,2,386.1816000000001,1,7,37,24,1,1.6,0.3,Time
,,312070,001,女,21,2025-06-03_12h39.48.200,Serial_Dependence_U,2023.2.3,Win32,120.48192771080113,,,,,,386.18180000000007,205,1,386.18180000000007,205,,,,389.7512,390.2506000000001,389.2425,389.7512,387.18,389.2425,390.2508,390.75069999999994,390.75069999999994,392.5422,1117,392.5422,4,392.54230000000007,1,8,38,1,1,1,0.3,Time
,,312070,001,女,21,2025-06-03_12h39.48.200,Serial_Dependence_U,2023.2.3,Win32,120.48192771080113,,,,,,392.5425,90,1,392.54269999999997,90,,,,396.69240000000013,397.19219999999996,396.1841000000001,396.69240000000013,393.5509000000001,396.184,397.19230000000005,397.69230000000005,397.69230000000005,400.22549999999995,1807,400.22549999999995,4,400.2256999999999,1,9,39,29,1,1.6,0.7,Time
,,312070,001,女,21,2025-06-03_12h39.48.200,Serial_Dependence_U,2023.2.3,Win32,120.48192771080113,,,,,,400.22610000000014,185,1,400.2262,185,,,,404.0091999999999,404.5086999999999,403.5008000000001,404.00910000000005,401.234,403.5007,404.5086999999999,405.0086999999999,405.0088,406.9264000000001,1444,406.92660000000006,4,406.9266999999999,1,10,40,2,1,1.2,0.3,Time
,,312070,001,女,21,2025-06-03_12h39.48.200,Serial_Dependence_U,2023.2.3,Win32,120.48192771080113,,,,,,406.9271999999999,146,1,406.9271999999999,146,,,,410.6674000000001,411.167,410.15910000000014,410.6673,407.9259000000001,410.15900000000005,411.167,411.6669000000001,411.667,413.49180000000007,1326,413.49180000000007,4,413.492,1,11,41,27,1,1.2,0.7,Time
,,312070,001,女,21,2025-06-03_12h39.48.200,Serial_Dependence_U,2023.2.3,Win32,120.48192771080113,,,,,,413.49240000000015,146,1,413.4925,146,,,,417.64230000000003,418.14190000000013,417.1336999999999,417.64219999999995,414.5003000000001,417.1336999999999,418.14190000000013,418.64190000000013,418.64190000000013,420.9596000000001,1652,420.95969999999994,3,420.9599000000001,1,12,42,9,1,1.6,0.7,Time
,,312070,001,女,21,2025-06-03_12h39.48.200,Serial_Dependence_U,2023.2.3,Win32,120.48192771080113,,,,,,420.96019999999993,260,1,420.96019999999993,260,,,,424.7421000000001,425.2417,424.23369999999994,424.742,421.9668000000001,424.2335,425.24180000000007,425.74180000000007,425.74190000000016,427.6333,1025,427.6334000000001,2,427.63349999999997,1,13,43,12,1,1.2,0.3,Time
,,312070,001,女,21,2025-06-03_12h39.48.200,Serial_Dependence_U,2023.2.3,Win32,120.48192771080113,,,,,,427.6339000000001,125,1,427.63399999999996,125,,,,431.21700000000004,431.71660000000014,430.7086000000001,431.2169000000002,428.642,430.7085,431.7167,432.2169000000002,432.2169000000002,433.2915,550,433.2916000000001,1,433.2918,1,14,44,21,1,1,0.3,Time
,,312070,001,女,21,2025-06-03_12h39.48.200,Serial_Dependence_U,2023.2.3,Win32,120.48192771080113,,,,,,433.29210000000006,50,1,433.2921999999999,50,,,,436.65850000000006,437.1534000000001,436.15580000000006,436.65850000000006,434.2938000000001,436.15569999999997,437.1534000000001,437.6539000000002,437.6539000000002,439.08869999999996,698,439.08880000000005,2,439.0891000000001,1,15,45,0,1,0.8,0.3,Time
,,312070,001,女,21,2025-06-03_12h39.48.200,Serial_Dependence_U,2023.2.3,Win32,120.48192771080113,,,,,,439.08930000000004,222,1,439.0894000000001,222,,,,443.0305,443.52540000000016,442.52990000000017,443.03040000000016,440.0973000000001,442.52990000000017,443.5255,444.02760000000006,444.0276999999999,446.30800000000005,1567,446.30800000000005,4,446.3082,1,16,46,8,1,1.4,0.7,Time
,,312070,001,女,21,2025-06-03_12h39.48.200,Serial_Dependence_U,2023.2.3,Win32,120.48192771080113,,,,,,446.3086000000001,329,1,446.3086000000001,329,,,,449.6584000000002,450.15799999999996,449.1502,449.6583,447.31660000000005,449.1501000000001,450.15799999999996,450.6583,450.6583,452.2828,933,452.2829000000001,4,452.28299999999996,1,17,47,5,1,0.8,0.7,Time
,,312070,001,女,21,2025-06-03_12h39.48.200,Serial_Dependence_U,2023.2.3,Win32,120.48192771080113,,,,,,452.2834000000002,246,1,452.28350000000006,246,,,,456.4667,456.9661999999999,455.95840000000015,456.46660000000014,453.2916000000001,455.95830000000007,456.9661999999999,457.4663000000001,457.4663000000001,459.5828000000001,1591,459.5828000000001,3,459.583,1,18,48,14,1,1.6,0.3,Time
,,312070,001,女,21,2025-06-03_12h39.48.200,Serial_Dependence_U,2023.2.3,Win32,120.48192771080113,,,,,,459.58330000000007,296,1,459.5835,296,,,,463.16630000000004,463.66630000000004,462.6583,463.16630000000004,460.5913000000001,462.6583,463.6664000000001,464.1665,464.1665,465.8077,1055,465.8077,4,465.80800000000005,1,19,49,11,1,1,0.3,Time
,,312070,001,女,21,2025-06-03_12h39.48.200,Serial_Dependence_U,2023.2.3,Win32,120.48192771080113,,,,,,465.8083000000001,324,1,465.80850000000004,324,,,,469.7833,470.2826999999999,469.27450000000005,469.7831999999999,466.8082,469.27450000000005,470.2826999999999,470.78299999999996,470.78299999999996,472.758,1566,472.758,4,472.7583,1,20,50,23,1,1.4,0.3,Time
,,312070,001,女,21,2025-06-03_12h39.48.200,Serial_Dependence_U,2023.2.3,Win32,120.48192771080113,,,,,,472.75860000000006,260,1,472.7586999999999,260,,,,476.30800000000005,476.8077,475.7997,476.3079000000002,473.76619999999997,475.7996000000001,476.8077,477.30749999999995,477.30749999999995,478.6576999999999,700,478.6576999999999,1,478.6578,1,21,51,16,1,1,0.7,Time
,,312070,001,女,21,2025-06-03_12h39.48.200,Serial_Dependence_U,2023.2.3,Win32,120.48192771080113,,,,,,478.6581999999999,269,1,478.6583,269,,,,482.60790000000014,483.1076000000001,482.0994000000001,482.60780000000005,479.66619999999995,482.0994000000001,483.1076000000001,483.60780000000005,483.60780000000005,485.7159000000001,1476,485.7159000000001,4,485.71610000000015,1,22,52,18,1,1.4,0.7,Time
,,312070,001,女,21,2025-06-03_12h39.48.200,Serial_Dependence_U,2023.2.3,Win32,120.48192771080113,,,,,,485.71660000000014,313,1,485.7167,313,,,,489.0579000000002,489.5574000000002,488.5495,489.0578000000001,486.71650000000005,488.5495,489.5574000000002,490.0574000000002,490.05749999999995,491.5824000000002,967,491.5824000000002,4,491.5826000000001,1,23,53,15,1,0.8,0.7,Time
,,312070,001,女,21,2025-06-03_12h39.48.200,Serial_Dependence_U,2023.2.3,Win32,120.48192771080113,,,,,,491.58290000000017,68,1,491.5831000000001,68,,,,494.9324000000002,495.4323,494.4242,494.9324000000002,492.59099999999995,494.4242,495.4323,495.9321999999999,495.9321999999999,496.82419999999996,141,496.82430000000005,1,496.8245,1,24,54,25,1,0.8,0.7,Time
,,312070,001,女,21,2025-06-03_12h39.48.200,Serial_Dependence_U,2023.2.3,Win32,120.48192771080113,,,,,,496.8249000000001,3,1,496.82519999999994,3,,,,500.8077,501.3073,500.29940000000016,500.80749999999995,497.8324000000002,500.2993000000001,501.3073,501.80710000000005,501.80710000000005,503.18210000000005,883,503.18210000000005,1,503.1824000000002,1,25,55,3,1,1.4,0.3,Time
,,312070,001,女,21,2025-06-03_12h39.48.200,Serial_Dependence_U,2023.2.3,Win32,120.48192771080113,,,,,,503.1828000000001,215,1,503.1829000000002,215,,,,507.16580000000005,507.6655,506.6573,507.16569999999996,504.1909000000001,506.65719999999993,507.6656000000001,508.1655,508.1656000000001,510.00719999999995,1267,510.00719999999995,2,510.00730000000004,1,26,56,13,1,1.4,0.3,Time
,,312070,001,女,21,2025-06-03_12h39.48.200,Serial_Dependence_U,2023.2.3,Win32,120.48192771080113,,,,,,510.0075,50,1,510.0076000000001,50,,,,513.7574000000002,514.2571,513.2489,513.7572,511.0157,513.2489,514.2571,514.7572,514.7572,516.6153000000002,1234,516.6153000000002,3,516.6153000000002,1,27,57,17,1,1.2,0.7,Time
,,312070,001,女,21,2025-06-03_12h39.48.200,Serial_Dependence_U,2023.2.3,Win32,120.48192771080113,,,,,,516.6157000000001,208,1,516.6158,208,,,,520.7656999999999,521.2653,520.2574999999999,520.7656999999999,517.624,520.2574000000002,521.2653,521.7653,521.7654000000002,524.315,2016,524.3151,4,524.3153,1,28,58,19,1,1.6,0.7,Time
,,312070,001,女,21,2025-06-03_12h39.48.200,Serial_Dependence_U,2023.2.3,Win32,120.48192771080113,,,,,,524.3154999999999,140,1,524.3156999999999,140,,,,527.6990000000001,528.1985,527.1902,527.6989000000001,525.3236999999999,527.1902,528.1985,528.6992,528.6992,529.9484000000002,849,529.9484000000002,4,529.9485,1,29,59,20,1,0.8,0.3,Time
,,312070,001,女,21,2025-06-03_12h39.48.200,Serial_Dependence_U,2023.2.3,Win32,120.48192771080113,,,,,,529.9489000000001,237,2,545.1711,237,s,15.215199999999982,,548.5483000000002,549.048,548.0453,548.5481000000002,546.1794000000002,548.0452,549.0481000000002,549.5519000000002,549.5519999999999,551.1039000000001,1018,551.104,4,551.1042,2,0,60,0,1,0.8,0.3,Time
,,312070,001,女,21,2025-06-03_12h39.48.200,Serial_Dependence_U,2023.2.3,Win32,120.48192771080113,,,,,,551.1043,213,2,551.105,213,,,,554.8458,555.3436999999999,554.3371000000002,554.8458,552.1042,554.3371000000002,555.3438000000001,555.8438000000001,555.8438000000001,557.9451999999999,1475,557.9453000000001,4,557.9455,2,1,61,17,1,1.2,0.7,Time
,,312070,001,女,21,2025-06-03_12h39.48.200,Serial_Dependence_U,2023.2.3,Win32,120.48192771080113,,,,,,557.9456,296,2,557.9456,296,,,,561.912,562.4066,561.4105,561.9118000000001,558.9458,561.4104000000002,562.4066,562.9024000000002,562.9024999999999,565.0787,1466,565.0787,3,565.0789000000002,2,2,62,23,1,1.4,0.3,Time
,,312070,001,女,21,2025-06-03_12h39.48.200,Serial_Dependence_U,2023.2.3,Win32,120.48192771080113,,,,,,565.0791999999999,196,2,565.0793000000001,196,,,,569.0286999999998,569.5234,568.5201999999999,569.0284999999999,566.0869000000002,568.5201999999999,569.5234,570.0231000000001,570.0231999999999,571.6206999999999,1168,571.6208000000001,2,571.6208000000001,2,3,63,28,1,1.4,0.7,Time
,,312070,001,女,21,2025-06-03_12h39.48.200,Serial_Dependence_U,2023.2.3,Win32,120.48192771080113,,,,,,571.6210000000001,132,2,571.6211000000001,132,,,,575.8044000000002,576.3061,575.2956000000001,575.8041000000001,572.6287,575.2956000000001,576.3061,576.8016,576.8016,579.3868,1658,579.3868,3,579.3869000000002,2,4,64,14,1,1.6,0.3,Time
,,312070,001,女,21,2025-06-03_12h39.48.200,Serial_Dependence_U,2023.2.3,Win32,120.48192771080113,,,,,,579.3873000000001,65,2,579.3873000000001,65,,,,582.9396999999999,583.4391,582.4369000000002,582.9396000000002,580.3954000000001,582.4367,583.4391,583.9392,583.9393,585.7955,1267,585.7955,4,585.7956999999999,2,5,65,6,1,1,0.7,Time
,,312070,001,女,21,2025-06-03_12h39.48.200,Serial_Dependence_U,2023.2.3,Win32,120.48192771080113,,,,,,585.796,306,2,585.796,306,,,,589.9414999999999,590.4426000000001,589.4366,589.9414000000002,586.8032000000001,589.4366,590.4426000000001,590.9428,590.9428,593.0621000000001,1467,593.0621000000001,2,593.0624000000003,2,6,66,19,1,1.6,0.7,Time
,,312070,001,女,21,2025-06-03_12h39.48.200,Serial_Dependence_U,2023.2.3,Win32,120.48192771080113,,,,,,593.0627,251,2,593.0627,251,,,,596.8366000000001,597.3309000000002,596.3356000000001,596.8366000000001,594.0699999999999,596.3354999999999,597.3309000000002,597.8274000000001,597.8275000000001,599.3697,968,599.3697999999999,2,599.3699999999999,2,7,67,12,1,1.2,0.3,Time
,,312070,001,女,21,2025-06-03_12h39.48.200,Serial_Dependence_U,2023.2.3,Win32,120.48192771080113,,,,,,599.3704000000002,319,2,599.3704000000002,319,,,,602.7180000000001,603.2181,602.2118,602.7179000000001,600.3784,602.2118,603.2181,603.7185,603.7185,605.2189000000001,907,605.2189000000001,4,605.2191,2,8,68,25,1,0.8,0.7,Time
,,312070,001,女,21,2025-06-03_12h39.48.200,Serial_Dependence_U,2023.2.3,Win32,120.48192771080113,,,,,,605.2194000000002,283,2,605.2194999999999,283,,,,608.5946000000001,609.0889000000002,608.0867000000001,608.5944999999999,606.2196999999999,608.0867000000001,609.0889000000002,609.5889999999999,609.5891000000001,610.8054999999999,724,610.8056000000001,2,610.8056999999999,2,9,69,20,1,0.8,0.3,Time
,,312070,001,女,21,2025-06-03_12h39.48.200,Serial_Dependence_U,2023.2.3,Win32,120.48192771080113,,,,,,610.806,40,2,610.8062,40,,,,614.989,615.4889000000001,614.4806000000001,614.9889000000001,611.8144000000002,614.4806000000001,615.4889000000001,615.9889000000001,615.9889000000001,618.2721000000001,1541,618.2721999999999,3,618.2724000000001,2,10,70,4,1,1.6,0.3,Time
,,312070,001,女,21,2025-06-03_12h39.48.200,Serial_Dependence_U,2023.2.3,Win32,120.48192771080113,,,,,,618.2727,343,2,618.2729000000002,343,,,,622.0227,622.5221999999999,621.5141999999998,622.0226,619.281,621.5141000000001,622.5221999999999,623.0221999999999,623.0221999999999,624.9553000000001,1383,624.9553000000001,4,624.9555,2,11,71,7,1,1.2,0.7,Time
,,312070,001,女,21,2025-06-03_12h39.48.200,Serial_Dependence_U,2023.2.3,Win32,120.48192771080113,,,,,,624.9557,150,2,624.9558,150,,,,628.9058,629.4054000000001,628.3971000000001,628.9057,625.9637,628.3971000000001,629.4055000000001,629.9053000000001,629.9054000000001,631.9551999999999,1418,631.9553000000001,3,631.9555,2,12,72,8,1,1.4,0.7,Time
,,312070,001,女,21,2025-06-03_12h39.48.200,Serial_Dependence_U,2023.2.3,Win32,120.48192771080113,,,,,,631.9559000000002,339,2,631.9561000000001,339,,,,635.9391,636.4386000000002,635.4304000000002,635.9386999999999,632.9638,635.4304000000002,636.4386000000002,636.9386000000002,636.9386000000002,638.6718000000001,1326,638.6718000000001,2,638.672,2,13,73,13,1,1.4,0.3,Time
,,312070,001,女,21,2025-06-03_12h39.48.200,Serial_Dependence_U,2023.2.3,Win32,120.48192771080113,,,,,,638.6723,111,2,638.6724000000002,111,,,,642.6469000000002,643.1468,642.1385,642.6469000000002,639.6719,642.1384,643.1468,643.6468,643.6468,645.1634000000001,993,645.1635000000001,2,645.1636000000001,2,14,74,3,1,1.4,0.3,Time
,,312070,001,女,21,2025-06-03_12h39.48.200,Serial_Dependence_U,2023.2.3,Win32,120.48192771080113,,,,,,645.1639000000002,58,2,645.164,58,,,,648.9471000000001,649.4467999999999,648.4388000000001,648.9470000000001,646.1718000000001,648.4388000000001,649.4467999999999,649.9472000000001,649.9473,651.8299000000002,1384,651.8299999999999,4,651.8301000000001,2,15,75,22,1,1.2,0.3,Time
,,312070,001,女,21,2025-06-03_12h39.48.200,Serial_Dependence_U,2023.2.3,Win32,120.48192771080113,,,,,,651.8303000000001,73,2,651.8304,73,,,,655.3734999999999,655.8716999999999,654.8695,655.3734000000002,652.836,654.8695,655.8718000000001,656.3668,656.3668,657.9773,1142,657.9774000000002,4,657.9776999999999,2,16,76,26,1,1,0.7,Time
,,312070,001,女,21,2025-06-03_12h39.48.200,Serial_Dependence_U,2023.2.3,Win32,120.48192771080113,,,,,,657.9779000000001,302,2,657.9779000000001,302,,,,661.5553,662.0507,661.0516,661.5552,658.9854000000003,661.0516,662.0507,662.5464999999999,662.5466000000001,664.0773000000002,1084,664.0773000000002,4,664.0775000000001,2,17,77,11,1,1,0.3,Time
,,312070,001,女,21,2025-06-03_12h39.48.200,Serial_Dependence_U,2023.2.3,Win32,120.48192771080113,,,,,,664.0777,318,2,664.0778,318,,,,667.4693,667.9712,666.9609,667.4692,665.094,666.9606999999999,667.9712,668.4712,668.4712,669.9602,1033,669.9603,4,669.9606000000001,2,18,78,10,1,0.8,0.3,Time
,,312070,001,女,21,2025-06-03_12h39.48.200,Serial_Dependence_U,2023.2.3,Win32,120.48192771080113,,,,,,669.9606999999999,191,2,669.9609,191,,,,673.5426,674.038,673.0342,673.5425,670.9684000000002,673.0341000000001,674.038,674.5404000000001,674.5405000000001,676.1689000000001,1150,676.1689000000001,4,676.1691000000001,2,19,79,1,1,1,0.3,Time
,,312070,001,女,21,2025-06-03_12h39.48.200,Serial_Dependence_U,2023.2.3,Win32,120.48192771080113,,,,,,676.1693,325,2,676.1694000000002,325,,,,679.5145,680.0171,679.0105000000001,679.5144000000003,677.1724999999999,679.0105000000001,680.0171,680.5127,680.5127,681.8934000000002,900,681.8934999999999,4,681.8936000000001,2,20,80,15,1,0.8,0.7,Time
,,312070,001,女,21,2025-06-03_12h39.48.200,Serial_Dependence_U,2023.2.3,Win32,120.48192771080113,,,,,,681.894,162,2,681.8941000000002,162,,,,685.4851000000001,685.9794000000002,684.9765,685.4849999999999,682.9099000000001,684.9765,685.9794999999999,686.4744000000001,686.4744000000001,688.0686000000001,909,688.0687,2,688.0689000000002,2,21,81,21,1,1,0.3,Time
,,312070,001,女,21,2025-06-03_12h39.48.200,Serial_Dependence_U,2023.2.3,Win32,120.48192771080113,,,,,,688.0691000000002,85,2,688.0691999999999,85,,,,692.0268000000001,692.521,691.5183,692.0268000000001,689.0766999999998,691.5181,692.521,693.0171,693.0172,694.6684000000002,1325,694.6684000000002,2,694.6687,2,22,82,18,1,1.4,0.7,Time
,,312070,001,女,21,2025-06-03_12h39.48.200,Serial_Dependence_U,2023.2.3,Win32,120.48192771080113,,,,,,694.6690000000001,62,2,694.6691000000001,62,,,,698.8510000000001,699.346,698.3434000000002,698.8510000000001,695.6766,698.3433,699.346,699.8498,699.8498,701.6598000000001,1467,701.6598000000001,2,701.6600000000001,2,23,83,24,1,1.6,0.3,Time
,,312070,001,女,21,2025-06-03_12h39.48.200,Serial_Dependence_U,2023.2.3,Win32,120.48192771080113,,,,,,701.6604000000002,16,2,701.6604000000002,16,,,,705.0016,705.4961000000001,704.4931999999999,705.0016,702.6599000000001,704.4931000000001,705.4961000000001,705.9911999999999,705.9913000000001,707.6683,1208,707.6684000000002,5,707.6687,2,24,84,5,1,0.8,0.7,Time
,,312070,001,女,21,2025-06-03_12h39.48.200,Serial_Dependence_U,2023.2.3,Win32,120.48192771080113,,,,,,707.6688000000001,19,2,707.6689000000001,19,,,,711.2081000000001,711.7076999999999,710.7018,711.2080000000001,708.6669999999999,710.7018,711.7076999999999,712.2,712.2,713.9095,1272,713.9095,4,713.9096999999999,2,25,85,16,1,1,0.7,Time
,,312070,001,女,21,2025-06-03_12h39.48.200,Serial_Dependence_U,2023.2.3,Win32,120.48192771080113,,,,,,713.9099000000001,228,2,713.9100000000001,228,,,,718.0594000000001,718.5539000000001,717.5513000000001,718.0594000000001,714.9185,717.5513000000001,718.5540000000001,719.0540000000001,719.0540000000001,721.0264999999999,1591,721.0266000000001,3,721.0268000000001,2,26,86,9,1,1.6,0.7,Time
,,312070,001,女,21,2025-06-03_12h39.48.200,Serial_Dependence_U,2023.2.3,Win32,120.48192771080113,,,,,,721.027,242,2,721.0271,242,,,,724.8015,725.2956999999999,724.2933,724.8014000000001,722.0263,724.2932000000001,725.2958000000001,725.7956000000001,725.7956000000001,727.8844000000001,1617,727.8845000000001,5,727.8847000000001,2,27,87,2,1,1.2,0.3,Time
,,312070,001,女,21,2025-06-03_12h39.48.200,Serial_Dependence_U,2023.2.3,Win32,120.48192771080113,,,,,,727.885,206,2,727.885,206,,,,732.0266999999999,732.5329999999999,731.5178000000001,732.0266000000001,728.8842999999999,731.5176999999999,732.5331000000001,733.0284999999999,733.0286000000001,735.1429,1630,735.1429,3,735.1433,2,28,88,29,1,1.6,0.7,Time
,,312070,001,女,21,2025-06-03_12h39.48.200,Serial_Dependence_U,2023.2.3,Win32,120.48192771080113,,,,,,735.1434999999999,73,2,735.1436000000001,73,,,,738.8918000000001,739.387,738.3846000000001,738.8918000000001,736.1510000000001,738.3845000000001,739.3871000000001,739.8869000000002,739.8869000000002,741.7846000000002,1481,741.7846000000002,4,741.7849000000001,2,29,89,27,1,1.2,0.7,Time
,,312070,001,女,21,2025-06-03_12h39.48.200,Serial_Dependence_U,2023.2.3,Win32,120.48192771080113,,,,,,741.7850000000001,339,3,767.2180000000001,339,s,25.425700000000006,,770.9984999999999,771.4949000000001,770.4925000000001,770.9984000000002,768.2251999999999,770.4924000000001,771.4949999999999,771.9949000000001,771.9949000000001,774.0423000000001,1567,774.0423000000001,5,774.0426,3,0,90,2,1,1.2,0.3,Time
,,312070,001,女,21,2025-06-03_12h39.48.200,Serial_Dependence_U,2023.2.3,Win32,120.48192771080113,,,,,,774.0427,272,3,774.0434000000002,272,,,,778.2008000000001,778.6947,777.692,778.2006999999999,775.0504000000001,777.6919,778.6948,779.1947,779.1947,781.4028000000001,1733,781.4028000000001,4,781.403,3,1,91,9,1,1.6,0.7,Time
,,312070,001,女,21,2025-06-03_12h39.48.200,Serial_Dependence_U,2023.2.3,Win32,120.48192771080113,,,,,,781.4034999999999,96,3,781.4036000000001,96,,,,785.1536000000001,785.653,784.6447000000001,785.1534999999999,782.4116000000001,784.6446000000001,785.653,786.1528000000001,786.1528000000001,787.9194000000002,1383,787.9194000000002,4,787.9196000000002,3,2,92,17,1,1.2,0.7,Time
,,312070,001,女,21,2025-06-03_12h39.48.200,Serial_Dependence_U,2023.2.3,Win32,120.48192771080113,,,,,,787.9199000000001,153,3,787.9201,153,,,,791.2613000000001,791.7611000000002,790.7531000000001,791.2611999999999,788.9196999999999,790.7529999999999,791.7611000000002,792.2611000000002,792.2611000000002,793.4612999999999,784,793.4614000000001,3,793.4618,3,3,93,25,1,0.8,0.7,Time
,,312070,001,女,21,2025-06-03_12h39.48.200,Serial_Dependence_U,2023.2.3,Win32,120.48192771080113,,,,,,793.4621000000002,37,3,793.4621000000002,37,,,,797.0110999999999,797.5110000000002,796.5029000000002,797.0110000000002,794.4698000000001,796.5028,797.5110000000002,798.0110000000002,798.0110000000002,799.7443000000001,1199,799.7444,4,799.7445000000002,3,4,94,26,1,1,0.7,Time
,,312070,001,女,21,2025-06-03_12h39.48.200,Serial_Dependence_U,2023.2.3,Win32,120.48192771080113,,,,,,799.7449000000001,167,3,799.7450999999999,167,,,,803.9280000000003,804.4279000000001,803.4195000000002,803.9279000000001,800.7528,803.4194000000002,804.4279000000001,804.9275999999998,804.9275999999998,806.9775000000002,1683,806.9775000000002,4,806.9775999999999,3,5,95,24,1,1.6,0.3,Time
,,312070,001,女,21,2025-06-03_12h39.48.200,Serial_Dependence_U,2023.2.3,Win32,120.48192771080113,,,,,,806.9779000000001,158,3,806.9780000000003,158,,,,810.7611999999999,811.2610000000002,810.2527,810.7610999999999,807.9860000000003,810.2525999999998,811.2610000000002,811.7608,811.7608,813.5273,1325,813.5274000000002,4,813.5275000000001,3,6,96,12,1,1.2,0.3,Time
,,312070,001,女,21,2025-06-03_12h39.48.200,Serial_Dependence_U,2023.2.3,Win32,120.48192771080113,,,,,,813.5278000000001,110,3,813.5278000000001,110,,,,817.5114000000001,818.0108,817.0025000000003,817.5113000000001,814.5360999999998,817.0025000000003,818.0108,818.5107,818.5108,820.6190999999999,1483,820.6190999999999,4,820.6194,3,7,97,23,1,1.4,0.3,Time
,,312070,001,女,21,2025-06-03_12h39.48.200,Serial_Dependence_U,2023.2.3,Win32,120.48192771080113,,,,,,820.6197,155,3,820.6197999999999,155,,,,823.9693,824.4690000000003,823.4609,823.9693,821.6274000000001,823.4608000000001,824.4690999999998,824.9690000000003,824.9690000000003,826.5438000000001,1116,826.5438000000001,5,826.5440000000003,3,8,98,5,1,0.8,0.7,Time
,,312070,001,女,21,2025-06-03_12h39.48.200,Serial_Dependence_U,2023.2.3,Win32,120.48192771080113,,,,,,826.5444000000002,80,3,826.5445000000002,80,,,,830.2946,830.7938000000001,829.7858000000001,830.2944000000002,827.5523000000001,829.7856999999999,830.7939000000001,831.2940000000003,831.2940000000003,832.9855000000002,1266,832.9855000000002,4,832.9857,3,9,99,7,1,1.2,0.7,Time
,,312070,001,女,21,2025-06-03_12h39.48.200,Serial_Dependence_U,2023.2.3,Win32,120.48192771080113,,,,,,832.9860000000003,165,3,832.9860999999999,165,,,,837.1358,837.6353000000001,836.6275000000003,837.1358,833.9940000000001,836.6274000000001,837.6353000000001,838.1354000000001,838.1354000000001,840.1270999999999,1567,840.1271999999999,3,840.1274000000001,3,10,100,19,1,1.6,0.7,Time
,,312070,001,女,21,2025-06-03_12h39.48.200,Serial_Dependence_U,2023.2.3,Win32,120.48192771080113,,,,,,840.1277,55,3,840.1278,55,,,,843.9023,844.4020000000003,843.3938,843.9022,841.1274000000001,843.3936999999999,844.4020000000003,844.9020000000003,844.9020000000003,846.4520000000002,843,846.4520000000002,2,846.4524000000001,3,11,101,22,1,1.2,0.3,Time
,,312070,001,女,21,2025-06-03_12h39.48.200,Serial_Dependence_U,2023.2.3,Win32,120.48192771080113,,,,,,846.4527,265,3,846.4529000000002,265,,,,850.0358000000001,850.5354000000002,849.5273,850.0358000000001,847.4605000000001,849.5272,850.5354000000002,851.0353,851.0353,852.5436,1033,852.5436,3,852.5439000000001,3,12,102,11,1,1,0.3,Time
,,312070,001,女,21,2025-06-03_12h39.48.200,Serial_Dependence_U,2023.2.3,Win32,120.48192771080113,,,,,,852.5442,167,3,852.5444000000002,167,,,,856.0942,856.5935000000002,855.5855000000001,856.0940999999998,853.5520000000001,855.5854000000002,856.5935000000002,857.0934000000002,857.0934000000002,858.5100000000002,1030,858.5100000000002,3,858.5101999999999,3,13,103,16,1,1,0.7,Time
,,312070,001,女,21,2025-06-03_12h39.48.200,Serial_Dependence_U,2023.2.3,Win32,120.48192771080113,,,,,,858.5105000000003,335,3,858.5107,335,,,,862.0935999999999,862.5933,861.5854000000002,862.0935999999999,859.5186999999999,861.5854000000002,862.5933,863.0934000000002,863.0934000000002,864.5184000000002,1058,864.5184000000002,4,864.5185999999999,3,14,104,1,1,1,0.3,Time
,,312070,001,女,21,2025-06-03_12h39.48.200,Serial_Dependence_U,2023.2.3,Win32,120.48192771080113,,,,,,864.5189,333,3,864.5190999999998,333,,,,867.9019000000001,868.4016999999999,867.3935000000001,867.9019000000001,865.5269000000001,867.3935000000001,868.4016999999999,868.9015999999999,868.9016999999999,870.4180999999999,1025,870.4180999999999,4,870.4184000000002,3,15,105,0,1,0.8,0.3,Time
,,312070,001,女,21,2025-06-03_12h39.48.200,Serial_Dependence_U,2023.2.3,Win32,120.48192771080113,,,,,,870.4187,22,3,870.4188000000001,22,,,,873.8020000000001,874.3015000000003,873.2935000000002,873.8019000000002,871.4267,873.2934000000002,874.3015000000003,874.8015999999998,874.8017,876.1764000000001,939,876.1764000000001,4,876.1765000000003,3,16,106,10,1,0.8,0.3,Time
,,312070,001,女,21,2025-06-03_12h39.48.200,Serial_Dependence_U,2023.2.3,Win32,120.48192771080113,,,,,,876.1770000000001,67,3,876.1770999999999,67,,,,880.1265999999998,880.6264000000001,879.6181999999999,880.1265999999998,877.1850000000002,879.6181999999999,880.6264000000001,881.1265999999998,881.1265999999998,883.1430000000003,1443,883.1430999999998,3,883.1433,3,17,107,28,1,1.4,0.7,Time
,,312070,001,女,21,2025-06-03_12h39.48.200,Serial_Dependence_U,2023.2.3,Win32,120.48192771080113,,,,,,883.1435999999999,71,3,883.1436999999999,71,,,,887.3266999999998,887.8265000000001,886.8183000000001,887.3266999999998,884.1515999999999,886.8181999999999,887.8265999999999,888.3263,888.3264000000001,890.2095999999999,1275,890.2095999999999,2,890.2100000000003,3,18,108,4,1,1.6,0.3,Time
,,312070,001,女,21,2025-06-03_12h39.48.200,Serial_Dependence_U,2023.2.3,Win32,120.48192771080113,,,,,,890.2104000000002,202,3,890.2105999999999,202,,,,894.1931,894.6930000000002,893.6847,894.1930000000002,891.2183,893.6847,894.6931,895.1928,895.1928,897.4344000000001,1657,897.4345000000003,4,897.4345999999998,3,19,109,3,1,1.4,0.3,Time
,,312070,001,女,21,2025-06-03_12h39.48.200,Serial_Dependence_U,2023.2.3,Win32,120.48192771080113,,,,,,897.4351999999999,91,3,897.4351999999999,91,,,,901.3845999999999,901.8842999999999,900.8764000000001,901.3845000000003,898.4429000000002,900.8761999999999,901.8844000000001,902.3845000000003,902.3845999999999,904.3677,1599,904.3677,4,904.3679000000002,3,20,110,8,1,1.4,0.7,Time
,,312070,001,女,21,2025-06-03_12h39.48.200,Serial_Dependence_U,2023.2.3,Win32,120.48192771080113,,,,,,904.3683000000001,42,3,904.3684000000001,42,,,,908.1184000000001,908.6178,907.6095000000003,908.1181999999999,905.3761999999999,907.6095000000003,908.6178,909.1175999999998,909.1177,910.9925000000003,1417,910.9925999999998,4,910.9927,3,21,111,27,1,1.2,0.7,Time
,,312070,001,女,21,2025-06-03_12h39.48.200,Serial_Dependence_U,2023.2.3,Win32,120.48192771080113,,,,,,910.9929000000002,195,3,910.9930999999999,195,,,,915.1429,915.6425000000002,914.6345999999999,915.1428000000001,912.0011999999999,914.6345000000001,915.6425999999999,916.1425999999999,916.1426999999999,918.5424,1932,918.5424,4,918.5425999999998,3,22,112,29,1,1.6,0.7,Time
,,312070,001,女,21,2025-06-03_12h39.48.200,Serial_Dependence_U,2023.2.3,Win32,120.48192771080113,,,,,,918.5427999999999,35,3,918.5430000000001,35,,,,922.1260000000002,922.6256999999998,921.6175000000003,922.1260000000002,919.5508,921.6174000000001,922.6256999999998,923.1256999999998,923.1256999999998,924.8924000000002,1235,924.8924000000002,4,924.8925999999999,3,23,113,21,1,1,0.3,Time
,,312070,001,女,21,2025-06-03_12h39.48.200,Serial_Dependence_U,2023.2.3,Win32,120.48192771080113,,,,,,924.8930000000003,87,3,924.8930999999998,87,,,,928.8759,929.3756999999998,928.3675999999998,928.8759,925.9010999999998,928.3675000000003,929.3756999999998,929.8758,929.8758,931.8587,1594,931.8588,4,931.8590000000002,3,24,114,13,1,1.4,0.3,Time
,,312070,001,女,21,2025-06-03_12h39.48.200,Serial_Dependence_U,2023.2.3,Win32,120.48192771080113,,,,,,931.8594,283,3,931.8594,283,,,,935.8090999999997,936.3088,935.3009000000002,935.8090999999997,932.8675999999998,935.3008,936.3090000000002,936.8089,936.8089,938.8170000000002,1566,938.8170000000002,4,938.8172999999999,3,25,115,18,1,1.4,0.7,Time
,,312070,001,女,21,2025-06-03_12h39.48.200,Serial_Dependence_U,2023.2.3,Win32,120.48192771080113,,,,,,938.8175999999999,227,3,938.8176999999998,227,,,,942.9924000000001,943.4920000000002,942.4920999999997,942.9924000000001,939.8255999999999,942.4920999999997,943.4920999999997,943.9920999999997,943.9920999999997,945.5504000000001,1208,945.5504000000001,2,945.5505999999998,3,26,116,14,1,1.6,0.3,Time
,,312070,001,女,21,2025-06-03_12h39.48.200,Serial_Dependence_U,2023.2.3,Win32,120.48192771080113,,,,,,945.5509000000002,350,3,945.5510000000002,350,,,,949.1005000000002,949.6004,948.5923,949.1005000000002,946.5589,948.5921999999998,949.6005000000002,950.1005000000002,950.1005000000002,951.5669,1084,951.5669,4,951.5670000000002,3,27,117,6,1,1,0.7,Time
,,312070,001,女,21,2025-06-03_12h39.48.200,Serial_Dependence_U,2023.2.3,Win32,120.48192771080113,,,,,,951.5672999999999,267,3,951.5675000000001,267,,,,954.9505000000001,955.4505000000001,954.4422,954.9504000000002,952.5754000000002,954.4420999999998,955.4505000000001,955.9503,955.9503,957.4667,1058,957.4667999999999,5,957.4669000000001,3,28,118,20,1,0.8,0.3,Time
,,312070,001,女,21,2025-06-03_12h39.48.200,Serial_Dependence_U,2023.2.3,Win32,120.48192771080113,,,,,,957.4674,112,3,957.4675999999997,112,,,,960.8170999999998,961.3169,960.3086999999998,960.8170999999998,958.4755999999998,960.3085999999998,961.3169,961.8168000000001,961.8169,963.1916999999999,935,963.1916999999999,4,963.1918000000001,3,29,119,15,1,0.8,0.7,Time
,,312070,001,女,21,2025-06-03_12h39.48.200,Serial_Dependence_U,2023.2.3,Win32,120.48192771080113,,,,,,963.1920999999998,76,4,985.8497,76,s,22.647899999999936,,989.6330999999998,990.1329000000001,989.1249,989.6330000000003,986.8584000000001,989.1249,990.1330000000003,990.6333,990.6333,992.4496999999999,1443,992.4496999999999,4,992.4500000000003,4,0,120,22,1,1.2,0.3,Time
,,312070,001,女,21,2025-06-03_12h39.48.200,Serial_Dependence_U,2023.2.3,Win32,120.48192771080113,,,,,,992.4503,3,4,992.4515000000001,3,,,,996.6170000000002,997.1162999999999,996.1161999999999,996.6169,993.4499000000001,996.1161999999999,997.1162999999999,997.6160999999997,997.6160999999997,999.6744000000001,1626,999.6744000000001,3,999.6745999999998,4,1,121,24,1,1.6,0.3,Time
,,312070,001,女,21,2025-06-03_12h39.48.200,Serial_Dependence_U,2023.2.3,Win32,120.48192771080113,,,,,,999.6748,187,4,999.6750000000002,187,,,,1003.8250999999998,1004.3244000000002,1003.3170000000002,1003.8250000000003,1000.6828,1003.3169,1004.3245000000002,1004.8245999999999,1004.8246999999999,1006.6160000000002,1389,1006.6160999999997,2,1006.6162999999999,4,2,122,9,1,1.6,0.7,Time
,,312070,001,女,21,2025-06-03_12h39.48.200,Serial_Dependence_U,2023.2.3,Win32,120.48192771080113,,,,,,1006.6165999999998,317,4,1006.6166999999998,317,,,,1010.7664,1011.2660999999998,1010.2580000000003,1010.7663,1007.6245999999999,1010.2579000000001,1011.2660999999998,1011.7660000000001,1011.7660999999998,1013.9493,1775,1013.9495000000002,4,1013.9495999999999,4,3,123,19,1,1.6,0.7,Time
,,312070,001,女,21,2025-06-03_12h39.48.200,Serial_Dependence_U,2023.2.3,Win32,120.48192771080113,,,,,,1013.9500000000003,73,4,1013.9500999999998,73,,,,1017.8996999999999,1018.3991999999998,1017.3911999999998,1017.8995000000002,1014.9580000000001,1017.3910999999998,1018.3991999999998,1018.8995000000002,1018.8995000000002,1020.8909000000001,1542,1020.8910000000001,4,1020.8914,4,4,124,8,1,1.4,0.7,Time
,,312070,001,女,21,2025-06-03_12h39.48.200,Serial_Dependence_U,2023.2.3,Win32,120.48192771080113,,,,,,1020.8916999999999,274,4,1020.8918000000001,274,,,,1024.2744,1024.7741999999998,1023.7660000000001,1024.2743,1021.8994,1023.7660000000001,1024.7741999999998,1025.2741999999998,1025.2741999999998,1026.6240999999998,883,1026.6242,4,1026.6244000000002,4,5,125,10,1,0.8,0.3,Time
,,312070,001,女,21,2025-06-03_12h39.48.200,Serial_Dependence_U,2023.2.3,Win32,120.48192771080113,,,,,,1026.6248,281,4,1026.6249,281,,,,1030.5743,1031.0741999999998,1030.0660999999998,1030.5743,1027.6326999999999,1030.0660000000003,1031.0741999999998,1031.5740999999998,1031.5740999999998,1033.8572,1834,1033.8573,5,1033.8575999999998,4,6,126,28,1,1.4,0.7,Time
,,312070,001,女,21,2025-06-03_12h39.48.200,Serial_Dependence_U,2023.2.3,Win32,120.48192771080113,,,,,,1033.8579000000002,89,4,1033.8580999999997,89,,,,1038.0410000000002,1038.5406999999998,1037.5323,1038.0409000000002,1034.8659,1037.5321999999999,1038.5410000000002,1039.0405999999998,1039.0406999999998,1041.2489,1841,1041.2490000000003,4,1041.2490999999998,4,7,127,14,1,1.6,0.3,Time
,,312070,001,女,21,2025-06-03_12h39.48.200,Serial_Dependence_U,2023.2.3,Win32,120.48192771080113,,,,,,1041.2495000000001,175,4,1041.2496999999998,175,,,,1044.5991,1045.0988,1044.0910000000001,1044.5989000000002,1042.2576,1044.0909000000001,1045.0989000000002,1045.5989000000002,1045.5990000000002,1047.0155000000002,883,1047.0155000000002,4,1047.0158,4,8,128,25,1,0.8,0.7,Time
,,312070,001,女,21,2025-06-03_12h39.48.200,Serial_Dependence_U,2023.2.3,Win32,120.48192771080113,,,,,,1047.0161999999998,120,4,1047.0164,120,,,,1050.5660000000003,1051.0655000000002,1050.0574000000001,1050.5659,1048.0240999999999,1050.0573,1051.0655000000002,1051.5655000000002,1051.5655000000002,1053.4155000000003,1443,1053.4155999999998,5,1053.4158,4,9,129,26,1,1,0.7,Time
,,312070,001,女,21,2025-06-03_12h39.48.200,Serial_Dependence_U,2023.2.3,Win32,120.48192771080113,,,,,,1053.4162,339,4,1053.4164,339,,,,1057.3989000000001,1057.8987,1056.8904,1057.3989000000001,1054.4239,1056.8903,1057.8987,1058.3988,1058.3988,1060.2985999999999,1475,1060.2985999999999,4,1060.2986999999998,4,10,130,13,1,1.4,0.3,Time
,,312070,001,女,21,2025-06-03_12h39.48.200,Serial_Dependence_U,2023.2.3,Win32,120.48192771080113,,,,,,1060.2990999999997,59,4,1060.2993,59,,,,1063.8488,1064.3487,1063.3404,1063.8487,1061.3072,1063.3403,1064.3488,1064.8485999999998,1064.8487,1066.5570999999998,1208,1066.5570999999998,4,1066.5574000000001,4,11,131,16,1,1,0.7,Time
,,312070,001,女,21,2025-06-03_12h39.48.200,Serial_Dependence_U,2023.2.3,Win32,120.48192771080113,,,,,,1066.5576999999998,236,4,1066.5578,236,,,,1070.7070999999999,1071.2067,1070.1985999999997,1070.7070999999999,1067.5653,1070.1985000000002,1071.2067,1071.7069000000001,1071.7069000000001,1073.8234,1633,1073.8235000000002,3,1073.8238,4,12,132,29,1,1.6,0.7,Time
,,312070,001,女,21,2025-06-03_12h39.48.200,Serial_Dependence_U,2023.2.3,Win32,120.48192771080113,,,,,,1073.8240999999998,159,4,1073.8243,159,,,,1077.3738,1077.8734000000002,1076.8654000000001,1077.3738,1074.8319000000001,1076.8653,1077.8735000000001,1078.3734000000002,1078.3734000000002,1080.0815999999998,1215,1080.0815999999998,4,1080.0819000000001,4,13,133,6,1,1,0.7,Time
,,312070,001,女,21,2025-06-03_12h39.48.200,Serial_Dependence_U,2023.2.3,Win32,120.48192771080113,,,,,,1080.0823,289,4,1080.0823,289,,,,1083.6655999999998,1084.1650999999997,1083.1571,1083.6655000000003,1081.0904,1083.1569000000002,1084.1652,1084.6650000000002,1084.6650999999997,1086.3819,1327,1086.3820999999998,5,1086.3822,4,14,134,21,1,1,0.3,Time
,,312070,001,女,21,2025-06-03_12h39.48.200,Serial_Dependence_U,2023.2.3,Win32,120.48192771080113,,,,,,1086.3826,99,4,1086.3826999999999,99,,,,1090.3652,1090.8648,1089.8570000000002,1090.3652,1087.3900999999998,1089.8569,1090.8648,1091.3649,1091.3650000000002,1093.3482,1624,1093.3482999999999,4,1093.3485000000003,4,15,135,3,1,1.4,0.3,Time
,,312070,001,女,21,2025-06-03_12h39.48.200,Serial_Dependence_U,2023.2.3,Win32,120.48192771080113,,,,,,1093.3488,120,4,1093.3490000000002,120,,,,1097.1319,1097.6315000000002,1096.6236,1097.1317999999999,1094.3572,1096.6235000000001,1097.6315000000002,1098.1315000000002,1098.1315000000002,1099.6395999999997,1110,1099.6395999999997,2,1099.6398,4,16,136,12,1,1.2,0.3,Time
,,312070,001,女,21,2025-06-03_12h39.48.200,Serial_Dependence_U,2023.2.3,Win32,120.48192771080113,,,,,,1099.6401999999998,213,4,1099.6403,213,,,,1103.0149000000001,1103.5147,1102.5065999999997,1103.0149000000001,1100.64,1102.5065000000002,1103.5147,1104.0145999999997,1104.0145999999997,1105.7312,1267,1105.7312,5,1105.7314000000001,4,17,137,20,1,0.8,0.3,Time
,,312070,001,女,21,2025-06-03_12h39.48.200,Serial_Dependence_U,2023.2.3,Win32,120.48192771080113,,,,,,1105.7316999999998,191,4,1105.7318,191,,,,1109.9148,1110.4145,1109.4064,1109.9148,1106.7398,1109.4063,1110.4145,1110.9148,1110.9148,1112.8728,1566,1112.8729,3,1112.8730000000003,4,18,138,4,1,1.6,0.3,Time
,,312070,001,女,21,2025-06-03_12h39.48.200,Serial_Dependence_U,2023.2.3,Win32,120.48192771080113,,,,,,1112.8733,233,4,1112.8734000000002,233,,,,1116.8233,1117.3228,1116.3148,1116.8231999999998,1113.8813,1116.3148,1117.3228,1117.823,1117.823,1119.8987,1627,1119.8987,4,1119.8990000000001,4,19,139,18,1,1.4,0.7,Time
,,312070,001,女,21,2025-06-03_12h39.48.200,Serial_Dependence_U,2023.2.3,Win32,120.48192771080113,,,,,,1119.8993,244,4,1119.8995000000002,244,,,,1123.6812,1124.1808,1123.1726999999998,1123.6812,1120.9062,1123.1725999999999,1124.1809,1124.6812,1124.6812,1126.6725999999999,1507,1126.6725999999999,4,1126.6730000000002,4,20,140,2,1,1.2,0.3,Time
,,312070,001,女,21,2025-06-03_12h39.48.200,Serial_Dependence_U,2023.2.3,Win32,120.48192771080113,,,,,,1126.6734000000001,63,4,1126.6735,63,,,,1130.4225999999999,1130.9225000000001,1129.9143,1130.4225999999999,1127.6812,1129.9143,1130.9225999999999,1131.4224000000002,1131.4225000000001,1133.7809,1867,1133.7809,5,1133.7810000000002,4,21,141,17,1,1.2,0.7,Time
,,312070,001,女,21,2025-06-03_12h39.48.200,Serial_Dependence_U,2023.2.3,Win32,120.48192771080113,,,,,,1133.7814,130,4,1133.7815000000003,130,,,,1137.3645000000001,1137.8645000000001,1136.8563,1137.3645000000001,1134.7894000000001,1136.8563,1137.8645999999999,1138.3642,1138.3642,1139.8389000000002,1083,1139.8390000000002,4,1139.8392,4,22,142,11,1,1,0.3,Time
,,312070,001,女,21,2025-06-03_12h39.48.200,Serial_Dependence_U,2023.2.3,Win32,120.48192771080113,,,,,,1139.8395000000003,220,4,1139.8395999999998,220,,,,1143.5892,1144.0891,1143.0810000000001,1143.5892,1140.8476999999998,1143.0809000000002,1144.0891,1144.5890000000002,1144.5890000000002,1146.6305999999997,1568,1146.6307,5,1146.6309,4,23,143,7,1,1.2,0.7,Time
,,312070,001,女,21,2025-06-03_12h39.48.200,Serial_Dependence_U,2023.2.3,Win32,120.48192771080113,,,,,,1146.6313,311,4,1146.6314,311,,,,1150.0143,1150.5138,1149.5059,1150.0141999999998,1147.6390000000001,1149.5059,1150.5139000000001,1151.0140000000001,1151.0140999999999,1152.5305,1000,1152.5305999999998,4,1152.5308,4,24,144,0,1,0.8,0.3,Time
,,312070,001,女,21,2025-06-03_12h39.48.200,Serial_Dependence_U,2023.2.3,Win32,120.48192771080113,,,,,,1152.5312,171,4,1152.5314,171,,,,1155.8808,1156.3805000000002,1155.3726,1155.8808,1153.5389,1155.3725000000002,1156.3805000000002,1156.8805000000002,1156.8805999999997,1158.4138,1083,1158.4138,5,1158.4140000000002,4,25,145,5,1,0.8,0.7,Time
,,312070,001,女,21,2025-06-03_12h39.48.200,Serial_Dependence_U,2023.2.3,Win32,120.48192771080113,,,,,,1158.4143,226,4,1158.4145,226,,,,1161.7640000000001,1162.2638,1161.2558,1161.7639000000001,1159.4222,1161.2557,1162.2638,1162.7635000000002,1162.7635000000002,1164.6054000000001,1383,1164.6054000000001,5,1164.6055999999999,4,26,146,15,1,0.8,0.7,Time
,,312070,001,女,21,2025-06-03_12h39.48.200,Serial_Dependence_U,2023.2.3,Win32,120.48192771080113,,,,,,1164.6059,259,4,1164.6063,259,,,,1168.5890000000002,1169.0889000000002,1168.0807,1168.5889000000002,1165.6140999999998,1168.0805999999998,1169.0889000000002,1169.5886999999998,1169.5886999999998,1171.2635000000002,1293,1171.2635000000002,2,1171.2637,4,27,147,23,1,1.4,0.3,Time
,,312070,001,女,21,2025-06-03_12h39.48.200,Serial_Dependence_U,2023.2.3,Win32,120.48192771080113,,,,,,1171.2640000000001,246,4,1171.2643,246,,,,1174.8470999999997,1175.3468,1174.3390000000002,1174.8470000000002,1172.2720000000002,1174.3388,1175.3468,1175.8466999999998,1175.8469,1177.4384,1082,1177.4385000000002,4,1177.4387,4,28,148,1,1,1,0.3,Time
,,312070,001,女,21,2025-06-03_12h39.48.200,Serial_Dependence_U,2023.2.3,Win32,120.48192771080113,,,,,,1177.4391999999998,117,4,1177.4391999999998,117,,,,1181.1885999999997,1181.6885000000002,1180.6805000000002,1181.1885000000002,1178.4470000000001,1180.6804000000002,1181.6885000000002,1182.1885000000002,1182.1885000000002,1184.0719000000001,1474,1184.0720000000001,4,1184.0721999999998,4,29,149,27,1,1.2,0.7,Time
,,312070,001,女,21,2025-06-03_12h39.48.200,Serial_Dependence_U,2023.2.3,Win32,120.48192771080113,,,,,,1184.0725999999997,100,5,1222.2296,100,s,38.147500000000036,,1226.3723,1226.8715999999997,1225.8689000000002,1226.3720999999998,1223.2347,1225.8688,1226.8715999999997,1227.3736999999999,1227.3736999999999,1229.5270999999998,1716,1229.5270999999998,4,1229.5274000000002,5,0,150,29,1,1.6,0.7,Time
,,312070,001,女,21,2025-06-03_12h39.48.200,Serial_Dependence_U,2023.2.3,Win32,120.48192771080113,,,,,,1229.5276,32,5,1229.5283,32,,,,1233.0972,1233.5959,1232.5962,1233.0970000000002,1230.5351999999998,1232.5960999999998,1233.5959,1234.1000999999999,1234.1000999999999,1236.0760999999998,1542,1236.0760999999998,5,1236.0764000000001,5,1,151,1,1,1,0.3,Time
,,312070,001,女,21,2025-06-03_12h39.48.200,Serial_Dependence_U,2023.2.3,Win32,120.48192771080113,,,,,,1236.0766999999998,297,5,1236.0768,297,,,,1239.8518,1240.3459,1239.3434,1239.8515999999997,1237.0760000000002,1239.3433,1240.3459,1240.8400000000001,1240.8400000000001,1242.2263,916,1242.2263,2,1242.2265000000002,5,2,152,2,1,1.2,0.3,Time
,,312070,001,女,21,2025-06-03_12h39.48.200,Serial_Dependence_U,2023.2.3,Win32,120.48192771080113,,,,,,1242.2267,156,5,1242.2268,156,,,,1245.8014,1246.3002,1245.2935000000002,1245.8013,1243.2295000000001,1245.2933,1246.3002,1246.7960000000003,1246.7960000000003,1248.2600999999997,1010,1248.2600999999997,3,1248.2604000000001,5,3,153,21,1,1,0.3,Time
,,312070,001,女,21,2025-06-03_12h39.48.200,Serial_Dependence_U,2023.2.3,Win32,120.48192771080113,,,,,,1248.2606999999998,194,5,1248.2606999999998,194,,,,1252.2067,1252.7040000000002,1251.7018,1252.2065999999998,1249.2683,1251.7018,1252.7040000000002,1253.2077,1253.2077,1255.4265000000003,1633,1255.4265000000003,4,1255.4268,5,4,154,8,1,1.4,0.7,Time
,,312070,001,女,21,2025-06-03_12h39.48.200,Serial_Dependence_U,2023.2.3,Win32,120.48192771080113,,,,,,1255.4270999999999,256,5,1255.4270999999999,256,,,,1258.9754,1259.4735999999998,1258.4679,1258.9754,1256.4344,1258.4678,1259.4735999999998,1259.9705000000001,1259.9705000000001,1262.1345999999999,1592,1262.1345999999999,5,1262.1352,5,5,155,16,1,1,0.7,Time
,,312070,001,女,21,2025-06-03_12h39.48.200,Serial_Dependence_U,2023.2.3,Win32,120.48192771080113,,,,,,1262.1354000000001,334,5,1262.1355,334,,,,1265.7141,1266.2122,1265.2094000000002,1265.7140000000002,1263.1425000000002,1265.2093,1266.2122,1266.7157,1266.7158,1268.3846999999998,1354,1268.3848,5,1268.3850000000002,5,6,156,11,1,1,0.3,Time
,,312070,001,女,21,2025-06-03_12h39.48.200,Serial_Dependence_U,2023.2.3,Win32,120.48192771080113,,,,,,1268.3853,254,5,1268.3853,254,,,,1271.7625999999998,1272.2620000000002,1271.2596999999998,1271.7625000000003,1269.3925000000002,1271.2595000000001,1272.2621,1272.7623,1272.7624,1274.3597,1167,1274.3598,5,1274.3600999999999,5,7,157,0,1,0.8,0.3,Time
,,312070,001,女,21,2025-06-03_12h39.48.200,Serial_Dependence_U,2023.2.3,Win32,120.48192771080113,,,,,,1274.3604,4,5,1274.3604,4,,,,1278.3425000000002,1278.8370999999997,1277.8346,1278.3425000000002,1275.3705999999997,1277.8346,1278.8370999999997,1279.3409000000001,1279.3409000000001,1281.6655000000003,1773,1281.6655999999998,4,1281.6655999999998,5,8,158,23,1,1.4,0.3,Time
,,312070,001,女,21,2025-06-03_12h39.48.200,Serial_Dependence_U,2023.2.3,Win32,120.48192771080113,,,,,,1281.6658,80,5,1281.6659000000002,80,,,,1285.4040999999997,1285.9035000000001,1284.9008,1285.4040000000002,1282.6665999999998,1284.9007,1285.9035000000001,1286.4032,1286.4033,1288.5615999999998,1718,1288.5618,5,1288.5620999999999,5,9,159,27,1,1.2,0.7,Time
,,312070,001,女,21,2025-06-03_12h39.48.200,Serial_Dependence_U,2023.2.3,Win32,120.48192771080113,,,,,,1288.5625000000002,227,5,1288.5625000000002,227,,,,1292.5431999999998,1293.0450999999998,1292.0425000000002,1292.5430999999999,1289.5701999999999,1292.0424,1293.0450999999998,1293.5453,1293.5453,1295.5935000000002,1628,1295.5935999999997,4,1295.5939,5,10,160,13,1,1.4,0.3,Time
,,312070,001,女,21,2025-06-03_12h39.48.200,Serial_Dependence_U,2023.2.3,Win32,120.48192771080113,,,,,,1295.5942,199,5,1295.5943,199,,,,1299.7674000000002,1300.2659,1299.2590999999998,1299.7674000000002,1296.5959,1299.2590000000002,1300.266,1300.7619000000002,1300.7619000000002,1303.3511999999998,2075,1303.3511999999998,4,1303.3515000000002,5,11,161,24,1,1.6,0.3,Time
,,312070,001,女,21,2025-06-03_12h39.48.200,Serial_Dependence_U,2023.2.3,Win32,120.48192771080113,,,,,,1303.3518,255,5,1303.3519000000001,255,,,,1307.3337999999999,1307.8285999999998,1306.8260000000002,1307.3337,1304.3587,1306.8258,1307.8285999999998,1308.3321999999998,1308.3323,1310.526,1860,1310.526,5,1310.5263,5,12,162,3,1,1.4,0.3,Time
,,312070,001,女,21,2025-06-03_12h39.48.200,Serial_Dependence_U,2023.2.3,Win32,120.48192771080113,,,,,,1310.5265000000002,85,5,1310.5265000000002,85,,,,1313.8842,1314.3813,1313.3760000000002,1313.8840999999998,1311.5425000000002,1313.3758,1314.3813,1314.8819,1314.8820000000003,1316.958,1422,1316.9580999999998,5,1316.9583,5,13,163,15,1,0.8,0.7,Time
,,312070,001,女,21,2025-06-03_12h39.48.200,Serial_Dependence_U,2023.2.3,Win32,120.48192771080113,,,,,,1316.9585000000002,273,5,1316.9585999999997,273,,,,1320.3255000000001,1320.8278,1319.8205999999998,1320.3254000000002,1317.9581999999998,1319.8205000000003,1320.8279,1321.324,1321.324,1322.9751999999999,1225,1322.9751999999999,5,1322.9754,5,14,164,20,1,0.8,0.3,Time
,,312070,001,女,21,2025-06-03_12h39.48.200,Serial_Dependence_U,2023.2.3,Win32,120.48192771080113,,,,,,1322.9755999999998,121,5,1322.9757,121,,,,1326.5154,1327.0145999999997,1326.0088,1326.5154,1323.9754,1326.0086999999999,1327.0147,1327.5160999999998,1327.5163,1329.6252,1593,1329.6253,5,1329.6254000000001,5,15,165,6,1,1,0.7,Time
,,312070,001,女,21,2025-06-03_12h39.48.200,Serial_Dependence_U,2023.2.3,Win32,120.48192771080113,,,,,,1329.6256999999998,89,5,1329.6258,89,,,,1333.0076999999999,1333.5065000000002,1332.4995999999999,1333.0076999999999,1330.6323,1332.4995999999999,1333.5065000000002,1334.0073,1334.0074000000002,1336.2835999999998,1503,1336.2837,5,1336.2838,5,16,166,10,1,0.8,0.3,Time
,,312070,001,女,21,2025-06-03_12h39.48.200,Serial_Dependence_U,2023.2.3,Win32,120.48192771080113,,,,,,1336.2840999999999,102,5,1336.2841999999998,102,,,,1340.0627,1340.5608,1339.5583,1340.0625000000002,1337.2920000000001,1339.5583,1340.5609000000002,1341.0609000000002,1341.0610000000001,1342.8836999999999,1469,1342.8836999999999,4,1342.8840000000002,5,17,167,12,1,1.2,0.3,Time
,,312070,001,女,21,2025-06-03_12h39.48.200,Serial_Dependence_U,2023.2.3,Win32,120.48192771080113,,,,,,1342.8843,257,5,1342.8844000000001,257,,,,1347.0665000000001,1347.5611,1346.5586999999998,1347.0664000000002,1343.8917,1346.5585999999998,1347.5611,1348.0610000000001,1348.0610000000001,1350.0086999999999,1534,1350.0086999999999,3,1350.0089,5,18,168,14,1,1.6,0.3,Time
,,312070,001,女,21,2025-06-03_12h39.48.200,Serial_Dependence_U,2023.2.3,Win32,120.48192771080113,,,,,,1350.0092,244,5,1350.0093,244,,,,1354.1530000000002,1354.6526999999999,1353.65,1354.1529,1351.0149000000001,1353.6499000000001,1354.6526999999999,1355.1525000000001,1355.1525000000001,1357.7580000000003,2133,1357.7580000000003,5,1357.7582,5,19,169,9,1,1.6,0.7,Time
,,312070,001,女,21,2025-06-03_12h39.48.200,Serial_Dependence_U,2023.2.3,Win32,120.48192771080113,,,,,,1357.7585000000001,331,5,1357.7586,331,,,,1361.1027,1361.5980000000002,1360.5995999999998,1361.1025000000002,1358.7664,1360.5995999999998,1361.5980999999997,1362.0985999999998,1362.0985999999998,1363.5083,1075,1363.5084000000002,5,1363.5086,5,20,170,5,1,0.8,0.7,Time
,,312070,001,女,21,2025-06-03_12h39.48.200,Serial_Dependence_U,2023.2.3,Win32,120.48192771080113,,,,,,1363.5088,344,5,1363.5089,344,,,,1367.6613,1368.1605000000002,1367.1580000000001,1367.6612,1364.5195,1367.1580000000001,1368.1605000000002,1368.6639,1368.6639,1371.1750000000002,1983,1371.1750000000002,4,1371.1750999999997,5,21,171,19,1,1.6,0.7,Time
,,312070,001,女,21,2025-06-03_12h39.48.200,Serial_Dependence_U,2023.2.3,Win32,120.48192771080113,,,,,,1371.1753,83,5,1371.1754,83,,,,1374.5167,1375.0151999999998,1374.0085000000001,1374.5167,1372.1750999999997,1374.0084000000002,1375.0151999999998,1375.5153,1375.5153,1377.4246999999998,1533,1377.4246999999998,5,1377.4248,5,22,172,25,1,0.8,0.7,Time
,,312070,001,女,21,2025-06-03_12h39.48.200,Serial_Dependence_U,2023.2.3,Win32,120.48192771080113,,,,,,1377.4250999999997,353,5,1377.4250999999997,353,,,,1381.3750000000002,1381.8733,1380.8665999999998,1381.3750000000002,1378.4332,1380.8665999999998,1381.8733,1382.3736999999999,1382.3736999999999,1384.8082,2017,1384.8083,5,1384.8083,5,23,173,18,1,1.4,0.7,Time
,,312070,001,女,21,2025-06-03_12h39.48.200,Serial_Dependence_U,2023.2.3,Win32,120.48192771080113,,,,,,1384.8085999999998,294,5,1384.8086999999998,294,,,,1388.5492,1389.0482,1388.0414,1388.5492,1385.8084000000001,1388.0413,1389.0483,1389.5486999999998,1389.5486999999998,1391.6915000000001,1716,1391.6915000000001,5,1391.6916999999999,5,24,174,7,1,1.2,0.7,Time
,,312070,001,女,21,2025-06-03_12h39.48.200,Serial_Dependence_U,2023.2.3,Win32,120.48192771080113,,,,,,1391.6919,310,5,1391.6920000000002,310,,,,1395.6334000000002,1396.1311999999998,1395.1248,1395.6334000000002,1392.6914000000002,1395.1246999999998,1396.1311999999998,1396.6315000000002,1396.6315999999997,1398.7405999999999,1682,1398.7405999999999,4,1398.7410000000002,5,25,175,28,1,1.4,0.7,Time
,,312070,001,女,21,2025-06-03_12h39.48.200,Serial_Dependence_U,2023.2.3,Win32,120.48192771080113,,,,,,1398.7410999999997,196,5,1398.7412,196,,,,1402.9238,1403.4184,1402.4156999999998,1402.9238,1399.7485000000001,1402.4156999999998,1403.4185000000002,1403.9143,1403.9143,1406.1994000000002,1775,1406.1994000000002,4,1406.1996,5,26,176,4,1,1.6,0.3,Time
,,312070,001,女,21,2025-06-03_12h39.48.200,Serial_Dependence_U,2023.2.3,Win32,120.48192771080113,,,,,,1406.1998,50,5,1406.1998,50,,,,1409.9355000000003,1410.4394,1409.4319,1409.9354,1407.1993,1409.4319,1410.4395000000002,1410.9373,1410.9373,1412.8825000000002,1575,1412.8825000000002,5,1412.8828,5,27,177,17,1,1.2,0.7,Time
,,312070,001,女,21,2025-06-03_12h39.48.200,Serial_Dependence_U,2023.2.3,Win32,120.48192771080113,,,,,,1412.8830000000003,280,5,1412.8830000000003,280,,,,1416.6603,1417.1599,1416.1574,1416.6601999999998,1413.8905000000002,1416.1573,1417.1599,1417.6554,1417.6554,1419.8739,1812,1419.8739,5,1419.8743,5,28,178,22,1,1.2,0.3,Time
,,312070,001,女,21,2025-06-03_12h39.48.200,Serial_Dependence_U,2023.2.3,Win32,120.48192771080113,,,,,,1419.8745000000001,235,5,1419.8745999999999,235,,,,1423.4075000000003,1423.9043,1422.9060000000002,1423.4074,1420.8735000000001,1422.9060000000002,1423.9043,1424.4049,1424.4049,1426.4655000000002,1747,1426.4655000000002,5,1426.4657,5,29,179,26,1,1,0.7,Time
,,312070,001,女,21,2025-06-03_12h39.48.200,Serial_Dependence_U,2023.2.3,Win32,120.48192771080113,,,,,,1426.4658,131,6,1458.4675999999997,131,s,31.99279999999976,,1461.8259,1462.3258,1461.3178,1461.8259,1459.4805000000001,1461.3178,1462.3258,1462.8258,1462.8258,1464.8674,1716,1464.8674,5,1464.8675000000003,6,0,180,5,1,0.8,0.7,Time
,,312070,001,女,21,2025-06-03_12h39.48.200,Serial_Dependence_U,2023.2.3,Win32,120.48192771080113,,,,,,1464.8677,54,6,1464.8691999999999,54,,,,1468.8178,1469.3173,1468.3093,1468.8178,1465.8765,1468.3093,1469.3174000000001,1469.8173,1469.8174000000001,1472.0255000000002,1566,1472.0255000000002,4,1472.0258,6,1,181,28,1,1.4,0.7,Time
,,312070,001,女,21,2025-06-03_12h39.48.200,Serial_Dependence_U,2023.2.3,Win32,120.48192771080113,,,,,,1472.026,308,6,1472.0261999999998,308,,,,1475.7757,1476.2755999999997,1475.2674000000002,1475.7757,1473.0343,1475.2674000000002,1476.2757,1476.7755000000002,1476.7755999999997,1478.8838,1692,1478.8839,5,1478.8840999999998,6,2,182,17,1,1.2,0.7,Time
,,312070,001,女,21,2025-06-03_12h39.48.200,Serial_Dependence_U,2023.2.3,Win32,120.48192771080113,,,,,,1478.8845000000001,46,6,1478.8845999999999,46,,,,1482.6674,1483.1671999999999,1482.1590999999999,1482.6673,1479.8922,1482.159,1483.1671999999999,1483.6671,1483.6671,1485.0504,1117,1485.0504,2,1485.0507,6,3,183,12,1,1.2,0.3,Time
,,312070,001,女,21,2025-06-03_12h39.48.200,Serial_Dependence_U,2023.2.3,Win32,120.48192771080113,,,,,,1485.0509000000002,40,6,1485.0510000000002,40,,,,1489.2340000000002,1489.7337,1488.7255999999998,1489.2339000000002,1486.0588,1488.7255000000002,1489.7338,1490.2338,1490.2338,1491.8253,1208,1491.8254000000002,2,1491.8255000000001,6,4,184,24,1,1.6,0.3,Time
,,312070,001,女,21,2025-06-03_12h39.48.200,Serial_Dependence_U,2023.2.3,Win32,120.48192771080113,,,,,,1491.8256999999999,326,6,1491.8259,326,,,,1495.8008,1496.3002,1495.2921999999999,1495.8008,1492.8258,1495.2921,1496.3003,1496.8002,1496.8003,1498.8253,1684,1498.8253,4,1498.8255000000001,6,5,185,23,1,1.4,0.3,Time
,,312070,001,女,21,2025-06-03_12h39.48.200,Serial_Dependence_U,2023.2.3,Win32,120.48192771080113,,,,,,1498.8258,288,6,1498.8260999999998,288,,,,1503.0006999999998,1503.5003,1502.4919,1503.0005999999998,1499.8254000000002,1502.4918,1503.5004000000001,1504.0000000000002,1504.0000000000002,1506.4667,2016,1506.4668,4,1506.4668,6,6,186,4,1,1.6,0.3,Time
,,312070,001,女,21,2025-06-03_12h39.48.200,Serial_Dependence_U,2023.2.3,Win32,120.48192771080113,,,,,,1506.4671999999998,239,6,1506.4673,239,,,,1510.0085000000001,1510.5084000000002,1509.5005,1510.0085000000001,1507.4670999999998,1509.5004000000001,1510.5084000000002,1511.0085000000001,1511.0086,1512.6665000000003,1293,1512.6665999999998,4,1512.6667,6,7,187,6,1,1,0.7,Time
,,312070,001,女,21,2025-06-03_12h39.48.200,Serial_Dependence_U,2023.2.3,Win32,120.48192771080113,,,,,,1512.6669000000002,314,6,1512.6669000000002,314,,,,1516.0500999999997,1516.5499,1515.5420000000001,1516.0500999999997,1513.6750000000002,1515.5419000000002,1516.5499,1517.0499,1517.0500000000002,1518.6332,1176,1518.6332,5,1518.6334000000002,6,8,188,0,1,0.8,0.3,Time
,,312070,001,女,21,2025-06-03_12h39.48.200,Serial_Dependence_U,2023.2.3,Win32,120.48192771080113,,,,,,1518.6336,359,6,1518.6338,359,,,,1522.4169000000002,1522.9165000000003,1521.9087,1522.4167,1519.6417,1521.9085999999998,1522.9165999999998,1523.4165000000003,1523.4165000000003,1525.4913,1624,1525.4914,5,1525.4915,6,9,189,2,1,1.2,0.3,Time
,,312070,001,女,21,2025-06-03_12h39.48.200,Serial_Dependence_U,2023.2.3,Win32,120.48192771080113,,,,,,1525.4919,294,6,1525.4920999999997,294,,,,1529.4751999999999,1529.9747,1528.9671999999998,1529.4750999999999,1526.5000000000002,1528.967,1529.9748,1530.4750000000001,1530.4750000000001,1532.6330999999998,1817,1532.6332,4,1532.6334000000002,6,10,190,3,1,1.4,0.3,Time
,,312070,001,女,21,2025-06-03_12h39.48.200,Serial_Dependence_U,2023.2.3,Win32,120.48192771080113,,,,,,1532.6338,278,6,1532.6340999999998,278,,,,1536.0167,1536.5164,1535.5083,1536.0167,1533.6415000000002,1535.5080999999998,1536.5164,1537.0164,1537.0165000000002,1538.6920000000002,1301,1538.6920000000002,5,1538.6922,6,11,191,10,1,0.8,0.3,Time
,,312070,001,女,21,2025-06-03_12h39.48.200,Serial_Dependence_U,2023.2.3,Win32,120.48192771080113,,,,,,1538.6925,32,6,1538.6926999999998,32,,,,1542.4664,1542.9665000000002,1541.958,1542.4664,1539.6918,1541.9579,1542.9665999999997,1543.4661999999998,1543.4661999999998,1545.2163,1417,1545.2163,4,1545.2165000000002,6,12,192,22,1,1.2,0.3,Time
,,312070,001,女,21,2025-06-03_12h39.48.200,Serial_Dependence_U,2023.2.3,Win32,120.48192771080113,,,,,,1545.2169000000001,321,6,1545.2170999999998,321,,,,1548.7661999999998,1549.2663,1548.2583,1548.7660999999998,1546.2249000000002,1548.2582,1549.2663,1549.7660999999998,1549.7660999999998,1551.8659,1741,1551.8660000000002,5,1551.8662,6,13,193,16,1,1,0.7,Time
,,312070,001,女,21,2025-06-03_12h39.48.200,Serial_Dependence_U,2023.2.3,Win32,120.48192771080113,,,,,,1551.8665,236,6,1551.8665999999998,236,,,,1556.0495999999998,1556.5492,1555.5414,1556.0495999999998,1552.8745999999999,1555.5413,1556.5494,1557.0498,1557.0498,1559.1978,1849,1559.1978,4,1559.1979000000001,6,14,194,14,1,1.6,0.3,Time
,,312070,001,女,21,2025-06-03_12h39.48.200,Serial_Dependence_U,2023.2.3,Win32,120.48192771080113,,,,,,1559.1981999999998,259,6,1559.1983,259,,,,1562.7715999999998,1563.2659,1562.2635000000002,1562.7715000000003,1560.1975000000002,1562.2635000000002,1563.2659,1563.7624,1563.7625000000003,1565.4965999999997,1384,1565.4965999999997,5,1565.4968,6,15,195,11,1,1,0.3,Time
,,312070,001,女,21,2025-06-03_12h39.48.200,Serial_Dependence_U,2023.2.3,Win32,120.48192771080113,,,,,,1565.4970999999998,331,6,1565.4973,331,,,,1568.8450999999998,1569.3420999999998,1568.3385999999998,1568.8450000000003,1566.5049000000001,1568.3384,1569.3421999999998,1569.8407,1569.8408,1571.5131999999999,1350,1571.5131999999999,5,1571.5134,6,16,196,25,1,0.8,0.7,Time
,,312070,001,女,21,2025-06-03_12h39.48.200,Serial_Dependence_U,2023.2.3,Win32,120.48192771080113,,,,,,1571.5135999999998,73,6,1571.5137,73,,,,1575.2505999999998,1575.7488,1574.7465000000002,1575.2505,1572.5118,1574.7464,1575.7488,1576.2490000000003,1576.2490000000003,1578.0656,1509,1578.0658,4,1578.0660000000003,6,17,197,27,1,1.2,0.7,Time
,,312070,001,女,21,2025-06-03_12h39.48.200,Serial_Dependence_U,2023.2.3,Win32,120.48192771080113,,,,,,1578.0663,300,6,1578.0665999999999,300,,,,1581.6493,1582.1489000000001,1581.1409,1581.6491999999998,1579.0740999999998,1581.1408,1582.1490999999999,1582.6490000000001,1582.6490000000001,1584.3156,1276,1584.3156,4,1584.3158,6,18,198,1,1,1,0.3,Time
,,312070,001,女,21,2025-06-03_12h39.48.200,Serial_Dependence_U,2023.2.3,Win32,120.48192771080113,,,,,,1584.3162,339,6,1584.3165000000001,339,,,,1588.0659,1588.5656,1587.5576999999998,1588.0658,1585.324,1587.5575000000001,1588.5656,1589.0655000000002,1589.0655000000002,1590.9570999999999,1533,1590.9570999999999,4,1590.9571999999998,6,19,199,7,1,1.2,0.7,Time
,,312070,001,女,21,2025-06-03_12h39.48.200,Serial_Dependence_U,2023.2.3,Win32,120.48192771080113,,,,,,1590.9575999999997,299,6,1590.9579,299,,,,1594.5075000000002,1595.0070999999998,1593.9988,1594.5074000000002,1591.9657,1593.9988,1595.0070999999998,1595.5070999999998,1595.5070999999998,1597.1736999999998,1083,1597.1736999999998,4,1597.1739,6,20,200,26,1,1,0.7,Time
,,312070,001,女,21,2025-06-03_12h39.48.200,Serial_Dependence_U,2023.2.3,Win32,120.48192771080113,,,,,,1597.1743,139,6,1597.1745,139,,,,1601.1240999999998,1601.6235000000001,1600.6155,1601.1240999999998,1598.1824000000001,1600.6155,1601.6236,1602.1236999999999,1602.1236999999999,1603.8235999999997,1416,1603.8237,3,1603.824,6,21,201,8,1,1.4,0.7,Time
,,312070,001,女,21,2025-06-03_12h39.48.200,Serial_Dependence_U,2023.2.3,Win32,120.48192771080113,,,,,,1603.8241999999998,341,6,1603.8244000000002,341,,,,1607.4071,1607.9069000000002,1606.8989000000001,1607.4070000000002,1604.8323,1606.8988,1607.9069000000002,1608.4070000000002,1608.4070000000002,1610.6650999999997,1631,1610.6652,5,1610.6652,6,22,202,21,1,1,0.3,Time
,,312070,001,女,21,2025-06-03_12h39.48.200,Serial_Dependence_U,2023.2.3,Win32,120.48192771080113,,,,,,1610.6655999999998,160,6,1610.6659000000002,160,,,,1614.8150999999998,1615.3154000000002,1614.3070999999998,1614.8150999999998,1611.6736999999998,1614.3069,1615.3154000000002,1615.8150999999998,1615.8150999999998,1618.7983,2133,1618.7983,5,1618.7985999999999,6,23,203,29,1,1.6,0.7,Time
,,312070,001,女,21,2025-06-03_12h39.48.200,Serial_Dependence_U,2023.2.3,Win32,120.48192771080113,,,,,,1618.7990999999997,248,6,1618.7993,248,,,,1622.7486,1623.2484000000002,1622.2402,1622.7486,1619.8070999999998,1622.2400999999998,1623.2484000000002,1623.7486,1623.7486999999999,1626.0982,1751,1626.0982,4,1626.0985000000003,6,24,204,18,1,1.4,0.7,Time
,,312070,001,女,21,2025-06-03_12h39.48.200,Serial_Dependence_U,2023.2.3,Win32,120.48192771080113,,,,,,1626.0990000000002,318,6,1626.0991,318,,,,1630.2486,1630.7482,1629.7403,1630.2484000000002,1627.1066999999998,1629.7403,1630.7482,1631.2482,1631.2482,1633.9315000000001,1875,1633.9315000000001,4,1633.9316,6,25,205,9,1,1.6,0.7,Time
,,312070,001,女,21,2025-06-03_12h39.48.200,Serial_Dependence_U,2023.2.3,Win32,120.48192771080113,,,,,,1633.9319,239,6,1633.9322,239,,,,1637.2819000000002,1637.7815000000003,1636.7733,1637.2818,1634.9399,1636.7731999999999,1637.7815000000003,1638.2815000000003,1638.2815999999998,1639.948,1291,1639.948,5,1639.9483,6,26,206,15,1,0.8,0.7,Time
,,312070,001,女,21,2025-06-03_12h39.48.200,Serial_Dependence_U,2023.2.3,Win32,120.48192771080113,,,,,,1639.9485000000002,99,6,1639.9487,99,,,,1643.3314,1643.8314,1642.8231999999998,1643.3314,1640.9565000000002,1642.8230999999998,1643.8314,1644.3313,1644.3314,1646.0793,1359,1646.0793,5,1646.0795000000003,6,27,207,20,1,0.8,0.3,Time
,,312070,001,女,21,2025-06-03_12h39.48.200,Serial_Dependence_U,2023.2.3,Win32,120.48192771080113,,,,,,1646.0797,44,6,1646.0798,44,,,,1650.2290999999998,1650.7239000000002,1649.7210000000002,1650.2290000000003,1647.0874000000001,1649.7210000000002,1650.7239000000002,1651.2229,1651.2230000000002,1653.4705000000001,1927,1653.4705000000001,4,1653.4706999999999,6,28,208,19,1,1.6,0.7,Time
,,312070,001,女,21,2025-06-03_12h39.48.200,Serial_Dependence_U,2023.2.3,Win32,120.48192771080113,,,,,,1653.4710000000002,127,6,1653.4710999999998,127,,,,1657.4518,1657.948,1656.9455000000003,1657.4516999999998,1654.4783,1656.9454,1657.9480999999998,1658.4475999999997,1658.4475999999997,1660.4455000000003,1658,1660.4455000000003,4,1660.4458,6,29,209,13,1,1.4,0.3,Time
,,312070,001,女,21,2025-06-03_12h39.48.200,Serial_Dependence_U,2023.2.3,Win32,120.48192771080113,,,,,,1660.4461,29,7,1662.8195000000003,29,s,2.3659000000000106,,1666.1816999999999,1666.6810000000003,1665.6789,1666.1816,1663.8152,1665.6787,1666.6810000000003,1667.1809,1667.1810000000003,1668.7620000000002,1141,1668.7620000000002,5,1668.7622,7,0,210,10,1,0.8,0.3,Time
,,312070,001,女,21,2025-06-03_12h39.48.200,Serial_Dependence_U,2023.2.3,Win32,120.48192771080113,,,,,,1668.7624,187,7,1668.7631999999999,187,,,,1672.3098,1672.8095,1671.8035999999997,1672.3098,1669.7616999999998,1671.8035000000002,1672.8095999999998,1673.3057,1673.3057,1675.0200999999997,1291,1675.0200999999997,4,1675.0204,7,1,211,6,1,1,0.7,Time
,,312070,001,女,21,2025-06-03_12h39.48.200,Serial_Dependence_U,2023.2.3,Win32,120.48192771080113,,,,,,1675.0206999999998,349,7,1675.0209,349,,,,1679.1978,1679.6974,1678.6940999999997,1679.1977,1676.0267,1678.6940000000002,1679.6974,1680.1974,1680.1975000000002,1681.9618,1333,1681.9618,2,1681.9620000000002,7,2,212,24,1,1.6,0.3,Time
,,312070,001,女,21,2025-06-03_12h39.48.200,Serial_Dependence_U,2023.2.3,Win32,120.48192771080113,,,,,,1681.9622,224,7,1681.9623,224,,,,1685.5113,1686.0088,1685.0031,1685.5113,1682.9602,1685.0030000000002,1686.0089,1686.5055999999997,1686.5057,1688.4320000000002,1528,1688.4320000000002,5,1688.4322,7,3,213,16,1,1,0.7,Time
,,312070,001,女,21,2025-06-03_12h39.48.200,Serial_Dependence_U,2023.2.3,Win32,120.48192771080113,,,,,,1688.4325000000001,293,7,1688.4325999999999,293,,,,1691.9976,1692.4976,1691.4950000000001,1691.9975000000002,1689.4313,1691.4950000000001,1692.4976,1692.9970999999998,1692.9971999999998,1694.8944000000001,1452,1694.8944000000001,5,1694.8945,7,4,214,1,1,1,0.3,Time
,,312070,001,女,21,2025-06-03_12h39.48.200,Serial_Dependence_U,2023.2.3,Win32,120.48192771080113,,,,,,1694.8946999999998,192,7,1694.8948,192,,,,1698.8276999999998,1699.3248,1698.3272,1698.8276999999998,1695.8905999999997,1698.3270000000002,1699.3248,1699.8265000000001,1699.8265000000001,1701.9529,1767,1701.9530000000002,4,1701.9532,7,5,215,8,1,1.4,0.7,Time
,,312070,001,女,21,2025-06-03_12h39.48.200,Serial_Dependence_U,2023.2.3,Win32,120.48192771080113,,,,,,1701.9534,205,7,1701.9535999999998,205,,,,1705.4977,1705.9934,1704.9945000000002,1705.4976,1702.9596,1704.9945000000002,1705.9935000000003,1706.4889,1706.4889,1708.3617,1508,1708.3618,5,1708.3619,7,6,216,26,1,1,0.7,Time
,,312070,001,女,21,2025-06-03_12h39.48.200,Serial_Dependence_U,2023.2.3,Win32,120.48192771080113,,,,,,1708.3621999999998,258,7,1708.3623,258,,,,1711.7450000000001,1712.2433,1711.2365000000002,1711.7449000000001,1709.3698,1711.2365000000002,1712.2433,1712.7437,1712.7437,1714.5368,1442,1714.5369,5,1714.5370000000003,7,7,217,0,1,0.8,0.3,Time
,,312070,001,女,21,2025-06-03_12h39.48.200,Serial_Dependence_U,2023.2.3,Win32,120.48192771080113,,,,,,1714.5372,5,7,1714.5374000000002,5,,,,1718.2866999999999,1718.7854,1717.7780000000002,1718.2866,1715.545,1717.7780000000002,1718.7854,1719.2853,1719.2853,1721.2618,1450,1721.2618,4,1721.2619000000002,7,8,218,17,1,1.2,0.7,Time
,,312070,001,女,21,2025-06-03_12h39.48.200,Serial_Dependence_U,2023.2.3,Win32,120.48192771080113,,,,,,1721.2621,346,7,1721.2623,346,,,,1724.6104,1725.1050000000002,1724.1031999999998,1724.6103,1722.2695999999999,1724.1030999999998,1725.1050999999998,1725.6050999999998,1725.6052,1727.5027,1331,1727.5028,5,1727.5031,7,9,219,25,1,0.8,0.7,Time
,,312070,001,女,21,2025-06-03_12h39.48.200,Serial_Dependence_U,2023.2.3,Win32,120.48192771080113,,,,,,1727.5033,180,7,1727.5034,180,,,,1731.6885000000002,1732.1880999999998,1731.1855999999998,1731.6884,1728.5185999999999,1731.1855999999998,1732.1880999999998,1732.6883,1732.6883,1734.9943,1750,1734.9943,4,1734.9944,7,10,220,14,1,1.6,0.3,Time
,,312070,001,女,21,2025-06-03_12h39.48.200,Serial_Dependence_U,2023.2.3,Win32,120.48192771080113,,,,,,1734.9945999999998,5,7,1734.9947,5,,,,1738.9715999999999,1739.4715999999999,1738.4690999999998,1738.9715,1736.0020999999997,1738.4690000000003,1739.4716999999998,1739.9715,1739.9715999999999,1742.2028,1775,1742.2028,4,1742.2030000000002,7,11,221,23,1,1.4,0.3,Time
,,312070,001,女,21,2025-06-03_12h39.48.200,Serial_Dependence_U,2023.2.3,Win32,120.48192771080113,,,,,,1742.2032,70,7,1742.2034,70,,,,1746.1520999999998,1746.6465999999998,1745.6438,1746.1520999999998,1743.2104000000002,1745.6436999999999,1746.6465999999998,1747.1464,1747.1464,1749.2522,1742,1749.2522,4,1749.2525000000003,7,12,222,28,1,1.4,0.7,Time
,,312070,001,女,21,2025-06-03_12h39.48.200,Serial_Dependence_U,2023.2.3,Win32,120.48192771080113,,,,,,1749.2528,104,7,1749.2529000000002,104,,,,1753.2300000000002,1753.7296999999999,1752.7216999999998,1753.2299,1750.2547,1752.7215,1753.7296999999999,1754.2295000000001,1754.2295000000001,1756.5523,1957,1756.5523,5,1756.5524,7,13,223,13,1,1.4,0.3,Time
,,312070,001,女,21,2025-06-03_12h39.48.200,Serial_Dependence_U,2023.2.3,Win32,120.48192771080113,,,,,,1756.5525999999998,208,7,1756.5527,208,,,,1760.5300000000002,1761.0295,1760.0214,1760.5299,1757.5525999999998,1760.0214,1761.0295,1761.5295,1761.5295,1764.0293,1925,1764.0293,5,1764.0295999999998,7,14,224,3,1,1.4,0.3,Time
,,312070,001,女,21,2025-06-03_12h39.48.200,Serial_Dependence_U,2023.2.3,Win32,120.48192771080113,,,,,,1764.0298,264,7,1764.0300000000002,264,,,,1767.7798,1768.2795,1767.2712999999999,1767.7796999999998,1765.0379,1767.2712,1768.2795999999998,1768.7794000000001,1768.7794000000001,1770.8292,1625,1770.8293,5,1770.8294,7,15,225,27,1,1.2,0.7,Time
,,312070,001,女,21,2025-06-03_12h39.48.200,Serial_Dependence_U,2023.2.3,Win32,120.48192771080113,,,,,,1770.8298,65,7,1770.8300000000002,65,,,,1774.1800000000003,1774.6794,1773.6714000000002,1774.1799,1771.8378,1773.6713,1774.6795000000002,1775.1793,1775.1793,1776.7709,1208,1776.7709,5,1776.7710999999997,7,16,226,5,1,0.8,0.7,Time
,,312070,001,女,21,2025-06-03_12h39.48.200,Serial_Dependence_U,2023.2.3,Win32,120.48192771080113,,,,,,1776.7715000000003,149,7,1776.7717,149,,,,1780.9213,1781.4209,1780.4130000000002,1780.9212,1777.7795,1780.4128,1781.4210000000003,1781.9209,1781.9210000000003,1784.0460999999998,1801,1784.0460999999998,4,1784.0464000000002,7,17,227,9,1,1.6,0.7,Time
,,312070,001,女,21,2025-06-03_12h39.48.200,Serial_Dependence_U,2023.2.3,Win32,120.48192771080113,,,,,,1784.0466999999999,168,7,1784.0470999999998,168,,,,1788.1959000000002,1788.6960000000001,1787.6879000000001,1788.1958,1785.0544,1787.6878,1788.6960000000001,1789.1960000000001,1789.1961,1791.2623,1924,1791.2624,4,1791.2625000000003,7,18,228,29,1,1.6,0.7,Time
,,312070,001,女,21,2025-06-03_12h39.48.200,Serial_Dependence_U,2023.2.3,Win32,120.48192771080113,,,,,,1791.2627,233,7,1791.2630000000001,233,,,,1795.0459,1795.5455999999997,1794.5376999999999,1795.0459,1792.2708,1794.5375999999999,1795.5455999999997,1796.0455999999997,1796.0455999999997,1798.6205000000002,2075,1798.6205000000002,5,1798.6207,7,19,229,12,1,1.2,0.3,Time
,,312070,001,女,21,2025-06-03_12h39.48.200,Serial_Dependence_U,2023.2.3,Win32,120.48192771080113,,,,,,1798.621,151,7,1798.6211999999998,151,,,,1802.7709,1803.2705,1802.2623,1802.7708,1799.6290999999999,1802.2623,1803.2705,1803.7706999999998,1803.7706999999998,1806.1704000000002,1983,1806.1705000000002,4,1806.1707,7,20,230,19,1,1.6,0.7,Time
,,312070,001,女,21,2025-06-03_12h39.48.200,Serial_Dependence_U,2023.2.3,Win32,120.48192771080113,,,,,,1806.1710999999998,181,7,1806.1713,181,,,,1809.7543,1810.2538,1809.2459000000001,1809.7541999999999,1807.1791999999998,1809.2458,1810.2539000000002,1810.7537,1810.7537,1812.2619000000002,1151,1812.2619000000002,4,1812.2622,7,21,231,21,1,1,0.3,Time
,,312070,001,女,21,2025-06-03_12h39.48.200,Serial_Dependence_U,2023.2.3,Win32,120.48192771080113,,,,,,1812.2625999999998,299,7,1812.2628,299,,,,1816.0375000000001,1816.5370000000003,1815.5289,1816.0373,1813.2624,1815.5286999999998,1816.5370000000003,1817.0370999999998,1817.0370999999998,1818.8619,1534,1818.8619,4,1818.8620999999998,7,22,232,22,1,1.2,0.3,Time
,,312070,001,女,21,2025-06-03_12h39.48.200,Serial_Dependence_U,2023.2.3,Win32,120.48192771080113,,,,,,1818.8624,172,7,1818.8625999999997,172,,,,1823.0433,1823.5415999999998,1822.5347,1823.0433,1819.8705000000002,1822.5345999999997,1823.5415999999998,1824.0417,1824.0418,1826.2015999999999,1900,1826.2016999999998,4,1826.2018,7,23,233,4,1,1.6,0.3,Time
,,312070,001,女,21,2025-06-03_12h39.48.200,Serial_Dependence_U,2023.2.3,Win32,120.48192771080113,,,,,,1826.2020999999997,149,7,1826.2022,149,,,,1829.9761999999998,1830.4749000000002,1829.4680999999998,1829.9761999999998,1827.2013,1829.468,1830.4749000000002,1830.9749000000002,1830.9749000000002,1832.851,1600,1832.851,5,1832.8513,7,24,234,2,1,1.2,0.3,Time
,,312070,001,女,21,2025-06-03_12h39.48.200,Serial_Dependence_U,2023.2.3,Win32,120.48192771080113,,,,,,1832.8515000000002,126,7,1832.8515999999997,126,,,,1836.2259000000001,1836.7198,1835.7177,1836.2259000000001,1833.8540000000003,1835.7175999999997,1836.7199,1837.2159000000001,1837.2159000000001,1838.9258,1422,1838.9259000000002,5,1838.9260000000002,7,25,235,20,1,0.8,0.3,Time
,,312070,001,女,21,2025-06-03_12h39.48.200,Serial_Dependence_U,2023.2.3,Win32,120.48192771080113,,,,,,1838.9263,43,7,1838.9264,43,,,,1842.5176999999999,1843.0115999999998,1842.0095000000001,1842.5176999999999,1839.9425,1842.0095000000001,1843.0116999999998,1843.5116999999998,1843.5116999999998,1845.2676,1399,1845.2676,5,1845.2678,7,26,236,11,1,1,0.3,Time
,,312070,001,女,21,2025-06-03_12h39.48.200,Serial_Dependence_U,2023.2.3,Win32,120.48192771080113,,,,,,1845.2680000000003,330,7,1845.2680999999998,330,,,,1848.6173,1849.112,1848.1085999999998,1848.6172,1846.2710999999997,1848.1085000000003,1849.112,1849.6075,1849.6075,1851.2839000000001,1350,1851.2839000000001,5,1851.2840999999999,7,27,237,15,1,0.8,0.7,Time
,,312070,001,女,21,2025-06-03_12h39.48.200,Serial_Dependence_U,2023.2.3,Win32,120.48192771080113,,,,,,1851.2843,296,7,1851.2844,296,,,,1855.2292,1855.7280000000003,1854.7284000000002,1855.2290999999998,1852.2949,1854.7283,1855.7280000000003,1856.2280000000003,1856.2280999999998,1858.1529,1542,1858.1529,4,1858.1530999999998,7,28,238,18,1,1.4,0.7,Time
,,312070,001,女,21,2025-06-03_12h39.48.200,Serial_Dependence_U,2023.2.3,Win32,120.48192771080113,,,,,,1858.1535000000001,338,7,1858.1538,338,,,,1861.9030999999998,1862.4030000000002,1861.3949,1861.9030999999998,1859.1616,1861.3948,1862.4030999999998,1862.9029,1862.9030000000002,1865.1279000000002,1774,1865.1280000000002,5,1865.1283,7,29,239,7,1,1.2,0.7,Time
,,312070,001,女,21,2025-06-03_12h39.48.200,Serial_Dependence_U,2023.2.3,Win32,120.48192771080113,,,,,,1865.1288,134,8,1886.8840000000002,134,s,21.74779999999987,,1890.8529,1891.3523,1890.3498,1890.8528,1887.8840000000002,1890.3497,1891.3524,1891.8525000000002,1891.8525999999997,1894.3665999999998,2255,1894.3666999999998,5,1894.3669,8,0,240,3,1,1.4,0.3,Time
,,312070,001,女,21,2025-06-03_12h39.48.200,Serial_Dependence_U,2023.2.3,Win32,120.48192771080113,,,,,,1894.3670999999997,228,8,1894.3678,228,,,,1897.9026999999999,1898.3980999999999,1897.3997,1897.9026999999999,1895.3663,1897.3997,1898.3980999999999,1898.8975000000003,1898.8975000000003,1900.9418,1708,1900.9418,5,1900.9419,8,1,241,16,1,1,0.7,Time
,,312070,001,女,21,2025-06-03_12h39.48.200,Serial_Dependence_U,2023.2.3,Win32,120.48192771080113,,,,,,1900.9422,156,8,1900.9423,156,,,,1904.3245000000002,1904.8235999999997,1903.8166999999999,1904.3244000000002,1901.9495000000002,1903.8165999999999,1904.8235999999997,1905.3233,1905.3233,1906.8080000000002,1150,1906.8080999999997,5,1906.8083,8,2,242,20,1,0.8,0.3,Time
,,312070,001,女,21,2025-06-03_12h39.48.200,Serial_Dependence_U,2023.2.3,Win32,120.48192771080113,,,,,,1906.8085,76,8,1906.8085999999998,76,,,,1910.3665,1910.8605000000002,1909.8580000000002,1910.3664,1907.8190999999997,1909.8579000000002,1910.8605000000002,1911.3605999999997,1911.3607,1912.8253,1183,1912.8253,4,1912.8256999999999,8,3,243,26,1,1,0.7,Time
,,312070,001,女,21,2025-06-03_12h39.48.200,Serial_Dependence_U,2023.2.3,Win32,120.48192771080113,,,,,,1912.8259,319,8,1912.8260999999998,319,,,,1916.5875999999998,1917.0894,1916.0831999999998,1916.5875,1913.8414,1916.083,1917.0894,1917.5853,1917.5853,1919.7330000000002,1806,1919.7330000000002,5,1919.7332,8,4,244,17,1,1.2,0.7,Time
,,312070,001,女,21,2025-06-03_12h39.48.200,Serial_Dependence_U,2023.2.3,Win32,120.48192771080113,,,,,,1919.7333,30,8,1919.7335000000003,30,,,,1923.0692999999999,1923.5686999999998,1922.5662,1923.0690999999997,1920.7328,1922.5662,1923.5686999999998,1924.0730999999998,1924.0730999999998,1925.8247,1385,1925.8248,5,1925.8250000000003,8,5,245,15,1,0.8,0.7,Time
,,312070,001,女,21,2025-06-03_12h39.48.200,Serial_Dependence_U,2023.2.3,Win32,120.48192771080113,,,,,,1925.8253,127,8,1925.8255000000001,127,,,,1929.2084,1929.7064,1928.6997,1929.2083,1926.8327,1928.6996,1929.7064,1930.2068,1930.2068,1931.9161,1232,1931.9161,5,1931.9163,8,6,246,0,1,0.8,0.3,Time
,,312070,001,女,21,2025-06-03_12h39.48.200,Serial_Dependence_U,2023.2.3,Win32,120.48192771080113,,,,,,1931.9165000000003,61,8,1931.9167,61,,,,1935.2889000000002,1935.7852,1934.7824000000003,1935.2888,1932.9207,1934.7823,1935.7852999999998,1936.2816,1936.2816,1938.4330000000002,1408,1938.4331,5,1938.4333,8,7,247,10,1,0.8,0.3,Time
,,312070,001,女,21,2025-06-03_12h39.48.200,Serial_Dependence_U,2023.2.3,Win32,120.48192771080113,,,,,,1938.4335000000003,100,8,1938.4335999999996,100,,,,1942.6108000000002,1943.1100999999996,1942.1080000000004,1942.6105999999997,1939.4368000000002,1942.1079000000002,1943.1101999999998,1943.6100999999996,1943.6100999999996,1945.4832,1584,1945.4834000000003,3,1945.4835,8,8,248,24,1,1.6,0.3,Time
,,312070,001,女,21,2025-06-03_12h39.48.200,Serial_Dependence_U,2023.2.3,Win32,120.48192771080113,,,,,,1945.4837,96,8,1945.4839,96,,,,1949.4330000000002,1949.9315000000004,1948.9248,1949.4330000000002,1946.4907,1948.9248,1949.9315000000004,1950.4311999999998,1950.4311999999998,1952.5502,1892,1952.5503,5,1952.5505,8,9,249,28,1,1.4,0.7,Time
,,312070,001,女,21,2025-06-03_12h39.48.200,Serial_Dependence_U,2023.2.3,Win32,120.48192771080113,,,,,,1952.5507,168,8,1952.5509,168,,,,1956.0939,1956.5975999999998,1955.5912,1956.0937000000001,1953.5575999999999,1955.5912,1956.5975999999998,1957.0935000000002,1957.0935000000002,1958.8240000000003,1325,1958.8240999999996,5,1958.8243,8,10,250,6,1,1,0.7,Time
,,312070,001,女,21,2025-06-03_12h39.48.200,Serial_Dependence_U,2023.2.3,Win32,120.48192771080113,,,,,,1958.8245000000004,188,8,1958.8245999999997,188,,,,1962.7931999999998,1963.2930000000003,1962.2848999999999,1962.7930999999996,1959.8239,1962.2848999999999,1963.2930999999996,1963.7930999999996,1963.7931999999998,1965.7930000000003,1658,1965.7930000000003,4,1965.7930999999996,8,11,251,23,1,1.4,0.3,Time
,,312070,001,女,21,2025-06-03_12h39.48.200,Serial_Dependence_U,2023.2.3,Win32,120.48192771080113,,,,,,1965.7935999999997,137,8,1965.7938000000001,137,,,,1969.9432,1970.4429000000002,1969.4349,1969.9430999999997,1966.8016,1969.4347999999998,1970.4429000000002,1970.9430999999997,1970.9430999999997,1973.6595,2317,1973.6595,5,1973.6597,8,12,252,19,1,1.6,0.7,Time
,,312070,001,女,21,2025-06-03_12h39.48.200,Serial_Dependence_U,2023.2.3,Win32,120.48192771080113,,,,,,1973.66,87,8,1973.6602,87,,,,1977.2431,1977.7429,1976.7348,1977.2430000000002,1974.6680999999996,1976.7346,1977.7431,1978.2431,1978.2431,1980.5347,1533,1980.5347,5,1980.5348999999999,8,13,253,11,1,1,0.3,Time
,,312070,001,女,21,2025-06-03_12h39.48.200,Serial_Dependence_U,2023.2.3,Win32,120.48192771080113,,,,,,1980.5352999999998,7,8,1980.5354,7,,,,1984.6862999999996,1985.1842,1984.1819000000003,1984.6862000000003,1981.5430000000003,1984.1817999999996,1985.1842999999997,1985.6870000000001,1985.6870000000001,1988.1570999999997,2023,1988.1572000000003,4,1988.1574000000003,8,14,254,9,1,1.6,0.7,Time
,,312070,001,女,21,2025-06-03_12h39.48.200,Serial_Dependence_U,2023.2.3,Win32,120.48192771080113,,,,,,1988.1575999999998,202,8,1988.1577,202,,,,1992.3397000000002,1992.8342,1991.8264000000001,1992.3394999999998,1989.1647,1991.8263,1992.8342,1993.3294000000003,1993.3294000000003,1995.9569000000004,2108,1995.957,5,1995.9572,8,15,255,4,1,1.6,0.3,Time
,,312070,001,女,21,2025-06-03_12h39.48.200,Serial_Dependence_U,2023.2.3,Win32,120.48192771080113,,,,,,1995.9574000000005,233,8,1995.9574999999998,233,,,,1999.7400999999998,2000.2340000000002,1999.2312999999997,1999.7400999999998,1996.9657,1999.2312,2000.2340999999994,2000.7389999999998,2000.7389999999998,2003.0734999999997,1872,2003.0735999999995,5,2003.0737000000001,8,16,256,12,1,1.2,0.3,Time
,,312070,001,女,21,2025-06-03_12h39.48.200,Serial_Dependence_U,2023.2.3,Win32,120.48192771080113,,,,,,2003.0739999999998,280,8,2003.0739999999998,280,,,,2007.251,2007.7529000000002,2006.7475999999995,2007.2509000000002,2004.0819000000004,2006.7475999999995,2007.7529000000002,2008.2507999999996,2008.2509000000002,2010.74,2010,2010.74,4,2010.7402,8,17,257,14,1,1.6,0.3,Time
,,312070,001,女,21,2025-06-03_12h39.48.200,Serial_Dependence_U,2023.2.3,Win32,120.48192771080113,,,,,,2010.7404000000004,254,8,2010.7405,254,,,,2014.3262000000002,2014.8257999999998,2013.823,2014.3260999999995,2011.7567999999999,2013.8229000000003,2014.8257999999998,2015.3259000000005,2015.3259999999998,2017.6174000000003,1931,2017.6174000000003,5,2017.6177,8,18,258,1,1,1,0.3,Time
,,312070,001,女,21,2025-06-03_12h39.48.200,Serial_Dependence_U,2023.2.3,Win32,120.48192771080113,,,,,,2017.6180999999995,216,8,2017.6182000000001,216,,,,2021.2005999999994,2021.7005999999994,2020.6924000000001,2021.2005999999994,2018.6259000000002,2020.6923,2021.7005999999994,2022.2005000000001,2022.2005000000001,2023.6588,1058,2023.6588,4,2023.6589000000001,8,19,259,21,1,1,0.3,Time
,,312070,001,女,21,2025-06-03_12h39.48.200,Serial_Dependence_U,2023.2.3,Win32,120.48192771080113,,,,,,2023.6592000000003,71,8,2023.6592999999996,71,,,,2027.0089999999998,2027.5087999999998,2026.5004999999999,2027.0089999999998,2024.6670999999994,2026.5004999999999,2027.5087999999998,2028.0089000000005,2028.0089000000005,2029.3419999999999,1025,2029.3419999999999,4,2029.3422000000003,8,20,260,25,1,0.8,0.7,Time
,,312070,001,女,21,2025-06-03_12h39.48.200,Serial_Dependence_U,2023.2.3,Win32,120.48192771080113,,,,,,2029.3427,161,8,2029.3429000000003,161,,,,2033.2839999999999,2033.7837000000002,2032.7835999999995,2033.2839999999999,2030.3505999999995,2032.7834999999998,2033.7837000000002,2034.2842000000003,2034.2842000000003,2036.392,1775,2036.392,4,2036.3922999999998,8,21,261,8,1,1.4,0.7,Time
,,312070,001,女,21,2025-06-03_12h39.48.200,Serial_Dependence_U,2023.2.3,Win32,120.48192771080113,,,,,,2036.3927,322,8,2036.3929999999998,322,,,,2039.7337,2040.2335999999998,2039.2259000000001,2039.7337,2037.3937000000003,2039.2257000000002,2040.2335999999998,2040.7335,2040.7335999999998,2042.3750999999995,1240,2042.3750999999995,5,2042.3753,8,22,262,5,1,0.8,0.7,Time
,,312070,001,女,21,2025-06-03_12h39.48.200,Serial_Dependence_U,2023.2.3,Win32,120.48192771080113,,,,,,2042.3757000000003,192,8,2042.3759000000002,192,,,,2046.1224000000004,2046.6167999999996,2045.6144000000002,2046.1224000000004,2043.3837999999998,2045.6143,2046.6167999999996,2047.1165999999996,2047.1167000000003,2049.1479,1558,2049.1479,4,2049.1480999999994,8,23,263,7,1,1.2,0.7,Time
,,312070,001,女,21,2025-06-03_12h39.48.200,Serial_Dependence_U,2023.2.3,Win32,120.48192771080113,,,,,,2049.1484,0,8,2049.1485,0,,,,2053.0952999999995,2053.5942,2052.5892999999996,2053.0952999999995,2050.1522,2052.5892,2053.5942999999997,2054.095,2054.0950999999995,2056.4982,2075,2056.4982999999997,5,2056.4985999999994,8,24,264,18,1,1.4,0.7,Time
,,312070,001,女,21,2025-06-03_12h39.48.200,Serial_Dependence_U,2023.2.3,Win32,120.48192771080113,,,,,,2056.4987999999994,282,8,2056.4989,282,,,,2060.2807999999995,2060.7749,2059.7724999999996,2060.2807,2057.5055999999995,2059.7724000000003,2060.7749999999996,2061.2781999999997,2061.2782999999995,2063.3307999999997,1652,2063.3309,5,2063.3309999999997,8,25,265,22,1,1.2,0.3,Time
,,312070,001,女,21,2025-06-03_12h39.48.200,Serial_Dependence_U,2023.2.3,Win32,120.48192771080113,,,,,,2063.3312999999994,273,8,2063.3314,273,,,,2067.1202999999996,2067.6162,2066.6137,2067.1202999999996,2064.3452999999995,2066.6137,2067.6162999999997,2068.1165999999994,2068.1165999999994,2070.1644,1717,2070.164599999999,5,2070.1647999999996,8,26,266,2,1,1.2,0.3,Time
,,312070,001,女,21,2025-06-03_12h39.48.200,Serial_Dependence_U,2023.2.3,Win32,120.48192771080113,,,,,,2070.1650999999993,63,8,2070.1652,63,,,,2074.1469,2074.6412999999993,2073.6390999999994,2074.1469,2071.1725999999994,2073.6389999999997,2074.6412999999993,2075.1357,2075.1357,2076.9137999999994,1451,2076.9137999999994,3,2076.9140999999995,8,27,267,13,1,1.4,0.3,Time
,,312070,001,女,21,2025-06-03_12h39.48.200,Serial_Dependence_U,2023.2.3,Win32,120.48192771080113,,,,,,2076.9144,31,8,2076.9144,31,,,,2081.0582,2081.5615999999995,2080.5547999999994,2081.0580999999993,2077.9222999999997,2080.5546999999997,2081.5615999999995,2082.0579999999995,2082.0580999999993,2084.3637999999996,2018,2084.3639000000003,4,2084.3640999999993,8,28,268,29,1,1.6,0.7,Time
,,312070,001,女,21,2025-06-03_12h39.48.200,Serial_Dependence_U,2023.2.3,Win32,120.48192771080113,,,,,,2084.3647,326,8,2084.3647,326,,,,2088.1055999999994,2088.6077999999993,2087.5969,2088.1055999999994,2085.3624999999997,2087.5969,2088.6079,2089.1120999999994,2089.1122,2091.1389999999997,1809,2091.1389999999997,5,2091.1392,8,29,269,27,1,1.2,0.7,Time