Scale_setup.started,Scale_setup.stopped,participant,session,sex,age,date,expName,psychopyVersion,OS,frameRate,Intro.started,Intro.stopped,key_resp_2.keys,key_resp_2.rt,key_resp_2.duration,block.started,direction,Block_id,block.stopped,trial_direction,Block_resp_2.keys,Block_resp_2.rt,Block_resp_2.duration,ITI.started,ITI.stopped,Mask_2.started,Mask_2.stopped,encoding.started,encoding.stopped,Cue.started,Cue.stopped,Response.started,Response.stopped,keyDuration,Feedback_Time.started,FeedbackID_T,Feedback_Time.stopped,trials.thisRepN,trials.thisTrialN,trials.thisN,trials.thisIndex,trials.ran,TimeDur,Coherence1,TrialType
0.00019999998806952135,0.0003000000119186552,328537,001,,,2025-06-04_14h55.23.145,Serial_Dependence_U,2023.2.3,Win32,163.93442622935177,,,,,,,,,,,,,,,,,,,,,,,,,,,,,,,,,,,
,,328537,001,,,2025-06-04_14h55.23.145,Serial_Dependence_U,2023.2.3,Win32,163.93442622935177,4.927100000023842,7.465900000035759,space,2.5193999999761445,,,,,,,,,,,,,,,,,,,,,,,,,,,,,,,
,,328537,001,,,2025-06-04_14h55.23.145,Serial_Dependence_U,2023.2.3,Win32,163.93442622935177,,,,,,7.469400000035762,301,0,9.859400000035748,301,s,2.375199999988098,,14.028900000035748,14.525499999999994,13.525999999999982,14.028800000011927,10.859900000035765,13.525999999999982,14.525600000023843,15.02240000003576,15.022600000023829,16.98599999999999,1576,16.986199999988088,3,17.98580000001192,0,0,0,24,1,1.6,0.3,Time
,,328537,001,,,2025-06-04_14h55.23.145,Serial_Dependence_U,2023.2.3,Win32,163.93442622935177,,,,,,17.986199999988088,339,0,17.987600000023832,339,,,,21.35530000001191,21.851800000011906,20.85260000002384,21.355199999988088,18.99190000003577,20.852499999999992,21.851800000011906,22.34869999998807,22.34880000001192,24.488,1607,24.48810000002385,5,25.4878000000119,0,1,1,0,1,0.8,0.3,Time
,,328537,001,,,2025-06-04_14h55.23.145,Serial_Dependence_U,2023.2.3,Win32,163.93442622935177,,,,,,25.488,215,0,25.48810000002385,215,,,,28.857499999999987,29.354400000035753,28.354400000035753,28.857400000035767,26.48790000003575,28.354400000035753,29.354400000035753,29.85090000003575,29.85090000003575,31.020699999988068,915,31.020699999988068,4,32.02040000003575,0,2,2,10,1,0.8,0.3,Time
,,328537,001,,,2025-06-04_14h55.23.145,Serial_Dependence_U,2023.2.3,Win32,163.93442622935177,,,,,,32.02080000001192,186,0,32.020900000035766,186,,,,36.18990000003575,36.686400000035746,35.68690000003576,36.18980000001193,33.0205,35.686800000011914,36.686400000035746,37.18340000003576,37.18340000003576,39.41969999998807,1860,39.41969999998807,4,40.41940000003575,0,3,3,14,1,1.6,0.3,Time
,,328537,001,,,2025-06-04_14h55.23.145,Serial_Dependence_U,2023.2.3,Win32,163.93442622935177,,,,,,40.41960000002385,162,0,40.41980000001192,162,,,,44.35849999999999,44.85519999998809,43.85560000002383,44.35849999999999,41.4195,43.855500000000006,44.85519999998809,45.352100000023825,45.352100000023825,51.93340000003573,1495,51.93340000003573,4,52.93310000002381,0,4,4,8,1,1.4,0.7,Time
,,328537,001,,,2025-06-04_14h55.23.145,Serial_Dependence_U,2023.2.3,Win32,163.93442622935177,,,,,,52.93340000003573,17,0,52.93350000000001,17,,,,57.072300000011865,57.56880000001189,56.56919999998803,57.07219999998807,53.93319999998809,56.56919999998803,57.56890000003574,58.065800000011905,58.065800000011905,104.19980000001186,1008,104.19980000001186,1,105.19949999999994,0,5,5,29,1,1.6,0.7,Time
,,328537,001,,,2025-06-04_14h55.23.145,Serial_Dependence_U,2023.2.3,Win32,163.93442622935177,,,,,,105.19969999998807,337,0,105.19990000003571,337,,,,108.96299999999997,109.45960000002378,108.46010000002383,108.96299999999997,106.19960000002379,108.46010000002383,109.45969999998806,109.9566000000238,109.95669999998802,111.48980000001188,1117,111.48990000003573,2,112.48960000002381,0,6,6,12,1,1.2,0.3,Time
,,328537,001,,,2025-06-04_14h55.23.145,Serial_Dependence_U,2023.2.3,Win32,163.93442622935177,,,,,,112.48980000001188,300,0,112.48990000003573,300,,,,116.05910000002382,116.55580000001191,115.55619999998805,116.05899999999997,113.4901000000238,115.55610000002383,116.55580000001191,117.05269999998802,117.05269999998802,118.32549999999998,908,118.32549999999998,2,119.32510000002378,0,7,7,1,1,1,0.3,Time
,,328537,001,,,2025-06-04_14h55.23.145,Serial_Dependence_U,2023.2.3,Win32,163.93442622935177,,,,,,119.32540000003576,207,0,119.32549999999998,207,,,,122.8643000000119,123.36099999999999,122.3614000000357,122.8643000000119,120.32519999998806,122.3614000000357,123.36099999999999,123.85790000003573,123.85799999999995,125.56080000001191,1377,125.5609000000357,5,126.56069999998806,0,8,8,16,1,1,0.7,Time
,,328537,001,,,2025-06-04_14h55.23.145,Serial_Dependence_U,2023.2.3,Win32,163.93442622935177,,,,,,126.56080000001191,302,0,126.5609000000357,302,,,,129.89990000003576,130.3966000000238,129.3969000000357,129.8998000000119,127.56080000001191,129.3969000000357,130.3966000000238,130.89340000003574,130.8936000000238,131.97840000003572,806,131.97849999999994,3,132.97799999999995,0,9,9,5,1,0.8,0.7,Time
,,328537,001,,,2025-06-04_14h55.23.145,Serial_Dependence_U,2023.2.3,Win32,163.93442622935177,,,,,,132.97830000001187,300,0,132.97840000003572,300,,,,136.71740000003575,137.21390000003572,136.21140000003572,136.7173000000119,133.97819999998802,136.21140000003572,137.21390000003572,137.71090000003574,137.71090000003574,139.25030000001186,1126,139.25030000001186,2,140.24999999999994,0,10,10,7,1,1.2,0.7,Time
,,328537,001,,,2025-06-04_14h55.23.145,Serial_Dependence_U,2023.2.3,Win32,163.93442622935177,,,,,,140.25019999998807,206,0,140.25030000001186,206,,,,144.38899999999995,144.88569999998805,143.88610000002382,144.38899999999995,141.2501000000238,143.88599999999997,144.8858000000119,145.38269999998806,145.38269999998806,147.78249999999997,1842,147.78249999999997,4,148.7823000000119,0,11,11,9,1,1.6,0.7,Time
,,328537,001,,,2025-06-04_14h55.23.145,Serial_Dependence_U,2023.2.3,Win32,163.93442622935177,,,,,,148.78249999999997,207,0,148.78260000002382,207,,,,152.32149999999996,152.81810000002383,151.81860000002382,152.32140000003574,149.78240000003575,151.81849999999997,152.81810000002383,153.31499999999994,153.3151000000238,154.38180000001188,732,154.38180000001188,2,155.38149999999996,0,12,12,26,1,1,0.7,Time
,,328537,001,,,2025-06-04_14h55.23.145,Serial_Dependence_U,2023.2.3,Win32,163.93442622935177,,,,,,155.38169999998803,167,0,155.38180000001188,167,,,,159.35099999999994,159.84749999999997,158.84799999999996,159.35099999999994,156.3816000000238,158.84799999999996,159.84760000002382,160.34449999999998,160.34460000002383,161.8718000000119,1224,161.8718000000119,2,162.87140000003575,0,13,13,13,1,1.4,0.3,Time
,,328537,001,,,2025-06-04_14h55.23.145,Serial_Dependence_U,2023.2.3,Win32,163.93442622935177,,,,,,162.87169999998804,303,0,162.8718000000119,303,,,,166.6106000000238,167.1073000000119,166.10769999998803,166.6106000000238,163.87149999999997,166.1076000000238,167.1073000000119,167.6043000000119,167.6043000000119,168.9376000000238,1087,168.9376000000238,2,169.93730000001187,0,14,14,27,1,1.2,0.7,Time
,,328537,001,,,2025-06-04_14h55.23.145,Serial_Dependence_U,2023.2.3,Win32,163.93442622935177,,,,,,169.9376000000238,111,0,169.93769999998807,111,,,,173.70069999998805,174.1974000000357,173.1978000000119,173.70069999998805,170.93740000003572,173.1978000000119,174.1975,174.69430000001188,174.69430000001188,176.28830000001187,1333,176.28840000003572,4,177.28799999999995,0,15,15,2,1,1.2,0.3,Time
,,328537,001,,,2025-06-04_14h55.23.145,Serial_Dependence_U,2023.2.3,Win32,163.93442622935177,,,,,,177.28819999998802,252,0,177.28830000001187,252,,,,181.25760000002379,181.75399999999996,180.75449999999995,181.2575,178.2881000000238,180.75440000003573,181.7541000000238,182.25099999999998,182.25099999999998,183.9176000000238,1376,183.9176000000238,3,184.9173000000119,0,16,16,3,1,1.4,0.3,Time
,,328537,001,,,2025-06-04_14h55.23.145,Serial_Dependence_U,2023.2.3,Win32,163.93442622935177,,,,,,184.91749999999996,11,0,184.9176000000238,11,,,,188.48080000001187,188.97740000003574,187.97790000003573,188.48080000001187,185.91749999999996,187.97780000001188,188.97749999999996,189.47440000003576,189.47440000003576,190.97130000001187,1254,190.97140000003571,4,191.9711000000238,0,17,17,21,1,1,0.3,Time
,,328537,001,,,2025-06-04_14h55.23.145,Serial_Dependence_U,2023.2.3,Win32,163.93442622935177,,,,,,191.97140000003571,147,0,191.97160000002378,147,,,,195.91019999998804,196.4069000000357,195.40719999998805,195.91019999998804,192.97119999998807,195.40719999998805,196.4069000000357,196.90380000001187,196.90390000003572,198.59469999998805,1393,198.5948000000119,3,199.5944000000357,0,18,18,28,1,1.4,0.7,Time
,,328537,001,,,2025-06-04_14h55.23.145,Serial_Dependence_U,2023.2.3,Win32,163.93442622935177,,,,,,199.59460000002383,168,0,199.59469999998805,168,,,,202.95790000003575,203.45449999999994,202.45499999999998,202.95790000003575,200.59449999999998,202.45499999999998,203.45449999999994,203.95149999999995,203.95149999999995,205.25449999999995,1066,205.25449999999995,5,206.25430000001188,0,19,19,20,1,0.8,0.3,Time
,,328537,001,,,2025-06-04_14h55.23.145,Serial_Dependence_U,2023.2.3,Win32,163.93442622935177,,,,,,206.25449999999995,124,0,206.2546000000238,124,,,,209.8238000000119,210.3204000000357,209.3208000000119,209.8238000000119,207.25430000001188,209.3208000000119,210.3204000000357,210.81740000003572,210.81740000003572,212.11419999998805,1062,212.11419999998805,4,213.11410000002383,0,20,20,11,1,1,0.3,Time
,,328537,001,,,2025-06-04_14h55.23.145,Serial_Dependence_U,2023.2.3,Win32,163.93442622935177,,,,,,213.1143000000119,114,0,213.11440000003574,114,,,,216.45319999998804,216.9499000000357,215.95019999998806,216.45319999998804,214.11410000002383,215.95019999998806,216.9499000000357,217.44680000001188,217.44680000001188,219.0651000000238,1121,219.0651000000238,5,220.06469999998802,0,21,21,15,1,0.8,0.7,Time
,,328537,001,,,2025-06-04_14h55.23.145,Serial_Dependence_U,2023.2.3,Win32,163.93442622935177,,,,,,220.0651000000238,301,0,220.06519999998807,301,,,,223.83430000001186,224.3308000000119,223.33130000001188,223.83430000001186,221.06480000001187,223.33130000001188,224.3308000000119,224.82769999998806,224.82769999998806,225.91260000002382,939,225.91269999998804,2,226.91240000003575,0,22,22,22,1,1.2,0.3,Time
,,328537,001,,,2025-06-04_14h55.23.145,Serial_Dependence_U,2023.2.3,Win32,163.93442622935177,,,,,,226.91280000001188,259,0,226.91280000001188,259,,,,230.6516000000238,231.1483000000119,230.1486000000238,230.6516000000238,227.91249999999997,230.14849999999996,231.1483000000119,231.64510000002383,231.64519999998805,233.49369999998805,1483,233.4938000000119,4,234.49319999998806,0,23,23,17,1,1.2,0.7,Time
,,328537,001,,,2025-06-04_14h55.23.145,Serial_Dependence_U,2023.2.3,Win32,163.93442622935177,,,,,,234.4934000000357,287,0,234.49360000002383,287,,,,238.43249999999995,238.92899999999997,237.9296000000238,238.43240000003573,235.4934000000357,237.92949999999996,238.92910000002382,239.42610000002378,239.42610000002378,241.49869999998805,1757,241.49869999998805,4,242.49849999999998,0,24,24,18,1,1.4,0.7,Time
,,328537,001,,,2025-06-04_14h55.23.145,Serial_Dependence_U,2023.2.3,Win32,163.93442622935177,,,,,,242.4988000000119,204,0,242.49890000003575,204,,,,246.03769999998804,246.5343000000119,245.53460000002383,246.03760000002382,243.49849999999998,245.53460000002383,246.5343000000119,247.0311000000238,247.03119999998802,248.32199999999995,958,248.3221000000238,3,249.32180000001188,0,25,25,6,1,1,0.7,Time
,,328537,001,,,2025-06-04_14h55.23.145,Serial_Dependence_U,2023.2.3,Win32,163.93442622935177,,,,,,249.3221000000238,125,0,249.3221000000238,125,,,,252.6611000000238,253.15769999998804,252.1581000000238,252.66099999999994,250.32199999999995,252.1581000000238,253.15769999998804,253.65469999998805,253.65469999998805,254.71540000003574,825,254.71540000003574,3,255.71499999999997,0,26,26,25,1,0.8,0.7,Time
,,328537,001,,,2025-06-04_14h55.23.145,Serial_Dependence_U,2023.2.3,Win32,163.93442622935177,,,,,,255.71519999998804,28,0,255.7153000000119,28,,,,259.8543000000119,260.3508000000119,259.35119999998807,259.85419999998805,256.71519999998804,259.3511000000238,260.3508000000119,260.84769999998804,260.8478000000119,262.66580000001187,1299,262.66580000001187,2,263.6656000000238,0,27,27,19,1,1.6,0.7,Time
,,328537,001,,,2025-06-04_14h55.23.145,Serial_Dependence_U,2023.2.3,Win32,163.93442622935177,,,,,,263.665699999988,304,0,263.6659000000357,304,,,,267.6351000000238,268.13169999998803,267.1321000000238,267.6351000000238,264.665699999988,267.1321000000238,268.13169999998803,268.6286000000238,268.6286000000238,270.25890000003574,1265,270.25890000003574,2,271.2586000000238,0,28,28,23,1,1.4,0.3,Time
,,328537,001,,,2025-06-04_14h55.23.145,Serial_Dependence_U,2023.2.3,Win32,163.93442622935177,,,,,,271.2588000000119,37,0,271.25899999999996,37,,,,275.4281000000238,275.92469999998804,274.9251000000238,275.42799999999994,272.25869999998804,274.9251000000238,275.92469999998804,276.42169999998805,276.42169999998805,278.28219999998805,1448,278.28219999998805,2,279.2819000000357,0,29,29,4,1,1.6,0.3,Time
,,328537,001,,,2025-06-04_14h55.23.145,Serial_Dependence_U,2023.2.3,Win32,163.93442622935177,,,,,,279.28210000002383,112,1,330.08810000002387,112,s,50.79680000001201,,333.62719999998814,334.1239000000358,333.12430000001194,333.62719999998814,331.088300000012,333.1241999999881,334.1239000000358,334.62090000003576,334.62090000003576,336.1546000000239,1230,336.1546000000239,4,336.1588000000119,1,0,30,6,1,1,0.7,Time
,,328537,001,,,2025-06-04_14h55.23.145,Serial_Dependence_U,2023.2.3,Win32,163.93442622935177,,,,,,336.15890000003577,302,1,336.15940000003576,302,,,,340.0991999999881,340.5959000000358,339.5963000000119,340.09910000002384,337.16069999998814,339.5961999999881,340.5959000000358,341.0928000000119,341.0928000000119,342.93519999998813,1569,342.93519999998813,4,342.93910000002387,1,1,31,28,1,1.4,0.7,Time
,,328537,001,,,2025-06-04_14h55.23.145,Serial_Dependence_U,2023.2.3,Win32,163.93442622935177,,,,,,342.939300000012,261,1,342.93940000003573,261,,,,346.7106000000238,347.20719999998806,346.20750000000004,346.71049999999997,343.9411999999881,346.20750000000004,347.20719999998806,347.70410000002386,347.70410000002386,349.195,1218,349.195,3,349.199,1,2,32,2,1,1.2,0.3,Time
,,328537,001,,,2025-06-04_14h55.23.145,Serial_Dependence_U,2023.2.3,Win32,163.93442622935177,,,,,,349.19919999998814,72,1,349.19919999998814,72,,,,352.7403000000119,353.23669999998805,352.23719999998815,352.7401999999881,350.2010000000001,352.23719999998815,353.23669999998805,353.73360000002384,353.73360000002384,355.1519000000358,1170,355.1519000000358,4,355.156,1,3,33,16,1,1,0.7,Time
,,328537,001,,,2025-06-04_14h55.23.145,Serial_Dependence_U,2023.2.3,Win32,163.93442622935177,,,,,,355.15619999998813,230,1,355.15619999998813,230,,,,359.29110000002385,359.7874000000358,358.78919999998806,359.291,356.1579000000358,358.78919999998806,359.7875000000001,360.28440000003576,360.28440000003576,362.46010000002383,1532,362.46010000002383,3,362.464300000012,1,4,34,19,1,1.6,0.7,Time
,,328537,001,,,2025-06-04_14h55.23.145,Serial_Dependence_U,2023.2.3,Win32,163.93442622935177,,,,,,362.4644000000358,152,1,362.46460000002384,152,,,,366.0355,366.53210000002383,365.5326000000238,366.0355,363.4661999999881,365.5326000000238,366.53210000002383,367.02900000000005,367.02900000000005,368.68960000002386,1078,368.68960000002386,4,368.69350000000003,1,5,35,21,1,1,0.3,Time
,,328537,001,,,2025-06-04_14h55.23.145,Serial_Dependence_U,2023.2.3,Win32,163.93442622935177,,,,,,368.6936000000239,358,1,368.69369999998816,358,,,,372.4651000000238,372.96169999998807,371.9621000000239,372.465,369.69560000002383,371.96200000000005,372.96169999998807,373.45860000002386,373.45860000002386,385.1805,982,385.1805,2,385.184800000012,1,6,36,22,1,1.2,0.3,Time
,,328537,001,,,2025-06-04_14h55.23.145,Serial_Dependence_U,2023.2.3,Win32,163.93442622935177,,,,,,385.18490000003584,268,1,385.18490000003584,268,,,,389.354,389.8506000000239,388.85100000000006,389.3539000000358,386.18460000002386,388.85100000000006,389.8506000000239,390.3475,390.3475,392.15969999998805,1339,392.15969999998805,2,392.16390000003577,1,7,37,24,1,1.6,0.3,Time
,,328537,001,,,2025-06-04_14h55.23.145,Serial_Dependence_U,2023.2.3,Win32,163.93442622935177,,,,,,392.1641000000239,195,1,392.1641000000239,195,,,,395.5269000000358,396.02560000002387,395.026,395.5269000000358,393.16560000002386,395.026,396.02560000002387,396.5225,396.5225,398.0255,1194,398.02560000002387,5,398.02940000003576,1,8,38,20,1,0.8,0.3,Time
,,328537,001,,,2025-06-04_14h55.23.145,Serial_Dependence_U,2023.2.3,Win32,163.93442622935177,,,,,,398.0296000000239,220,1,398.0296000000239,220,,,,401.5706999999881,402.0673000000119,401.0678000000119,401.5706999999881,399.0315,401.06769999998806,402.0673000000119,402.564300000012,402.564300000012,403.8128000000119,1151,403.8128000000119,4,403.81700000000006,1,9,39,26,1,1,0.7,Time
,,328537,001,,,2025-06-04_14h55.23.145,Serial_Dependence_U,2023.2.3,Win32,163.93442622935177,,,,,,403.8171000000239,73,1,403.8171999999881,73,,,,407.5519000000358,408.04850000000005,407.04969999998815,407.5519000000358,404.8188000000119,407.0496000000239,408.04850000000005,408.5455,408.5455,410.49090000003577,1648,410.49090000003577,5,410.4958000000119,1,10,40,7,1,1.2,0.7,Time
,,328537,001,,,2025-06-04_14h55.23.145,Serial_Dependence_U,2023.2.3,Win32,163.93442622935177,,,,,,410.49600000000004,138,1,410.4961000000239,138,,,,414.66610000002385,415.1626999999881,414.1631000000239,414.66610000002385,411.4968000000119,414.1631000000239,415.1626999999881,415.65969999998805,415.65969999998805,417.6111000000239,1600,417.6111000000239,3,417.61550000000005,1,11,41,14,1,1.6,0.3,Time
,,328537,001,,,2025-06-04_14h55.23.145,Serial_Dependence_U,2023.2.3,Win32,163.93442622935177,,,,,,417.6156000000239,237,1,417.61569999998807,237,,,,420.9501999999881,421.44740000003577,420.44800000000004,420.95010000002384,418.61710000002387,420.44800000000004,421.44740000003577,421.9499000000358,421.9499000000358,423.38019999998806,1169,423.38019999998806,5,423.3844000000358,1,12,42,25,1,0.8,0.7,Time
,,328537,001,,,2025-06-04_14h55.23.145,Serial_Dependence_U,2023.2.3,Win32,163.93442622935177,,,,,,423.38450000000006,11,1,423.3846000000239,11,,,,426.7251999999881,427.22190000003576,426.22240000003575,426.7251999999881,424.38619999998815,426.22240000003575,427.22190000003576,427.719,427.719,429.2765,1273,429.2765,5,429.28060000002387,1,13,43,5,1,0.8,0.7,Time
,,328537,001,,,2025-06-04_14h55.23.145,Serial_Dependence_U,2023.2.3,Win32,163.93442622935177,,,,,,429.280800000012,250,1,429.28090000003584,250,,,,433.0519000000358,433.54840000003577,432.5488000000119,433.05180000001195,430.2824000000358,432.5488000000119,433.54840000003577,434.045300000012,434.04540000003584,435.63330000001196,1291,435.63330000001196,4,435.63760000002384,1,14,44,12,1,1.2,0.3,Time
,,328537,001,,,2025-06-04_14h55.23.145,Serial_Dependence_U,2023.2.3,Win32,163.93442622935177,,,,,,435.63780000001196,222,1,435.63780000001196,222,,,,439.0086999999881,439.5053000000119,438.5058000000119,439.0086000000238,436.63930000001193,438.50569999998805,439.5053000000119,440.002300000012,440.002300000012,441.4931999999881,1277,441.4931999999881,5,441.497300000012,1,15,45,10,1,0.8,0.3,Time
,,328537,001,,,2025-06-04_14h55.23.145,Serial_Dependence_U,2023.2.3,Win32,163.93442622935177,,,,,,441.4975,268,1,441.4975,268,,,,445.4383000000119,445.934800000012,444.935300000012,445.43819999998806,442.4991000000238,444.935300000012,445.934800000012,446.4316999999881,446.4316999999881,448.1530000000001,1478,448.1530000000001,4,448.15710000002383,1,16,46,18,1,1.4,0.7,Time
,,328537,001,,,2025-06-04_14h55.23.145,Serial_Dependence_U,2023.2.3,Win32,163.93442622935177,,,,,,448.15730000001196,160,1,448.1574000000358,160,,,,451.52230000001197,452.0189000000358,451.0194000000358,451.5221999999881,449.15890000003577,451.0194000000358,452.01900000000006,452.5098000000119,452.5098000000119,453.78249999999997,998,453.78249999999997,4,453.7866999999881,1,17,47,0,1,0.8,0.3,Time
,,328537,001,,,2025-06-04_14h55.23.145,Serial_Dependence_U,2023.2.3,Win32,163.93442622935177,,,,,,453.7869000000358,260,1,453.7869000000358,260,,,,457.127800000012,457.6244000000358,456.62480000001193,457.1276999999881,454.7886000000239,456.6246999999881,457.6244000000358,458.12119999998805,458.1213000000119,460.2546999999881,1093,460.2548000000119,5,460.2589000000358,1,18,48,15,1,0.8,0.7,Time
,,328537,001,,,2025-06-04_14h55.23.145,Serial_Dependence_U,2023.2.3,Win32,163.93442622935177,,,,,,460.2591000000239,302,1,460.2591000000239,302,,,,464.2299000000358,464.7266000000239,463.72700000000003,464.2299000000358,461.2606000000239,463.72700000000003,464.7266000000239,465.2235,465.2235,467.14469999998806,1617,467.14469999998806,4,467.1486999999881,1,19,49,13,1,1.4,0.3,Time
,,328537,001,,,2025-06-04_14h55.23.145,Serial_Dependence_U,2023.2.3,Win32,163.93442622935177,,,,,,467.14880000001193,46,1,467.1489000000358,46,,,,470.8898000000119,471.386300000012,470.386800000012,470.88969999998807,468.15069999998815,470.386800000012,471.386300000012,471.8831999999881,471.88330000001196,473.74380000001196,1501,473.7439000000358,4,473.7479000000358,1,20,50,17,1,1.2,0.7,Time
,,328537,001,,,2025-06-04_14h55.23.145,Serial_Dependence_U,2023.2.3,Win32,163.93442622935177,,,,,,473.74810000002384,54,1,473.7481999999881,54,,,,477.88900000000007,478.3856000000239,477.38590000003575,477.8889000000358,474.7499000000358,477.38590000003575,478.3856000000239,478.8825,478.88260000002384,481.05819999998806,1818,481.0583000000119,4,481.06250000000006,1,21,51,9,1,1.6,0.7,Time
,,328537,001,,,2025-06-04_14h55.23.145,Serial_Dependence_U,2023.2.3,Win32,163.93442622935177,,,,,,481.06269999998807,261,1,481.0628000000119,261,,,,484.6275,485.1241000000238,484.1258000000119,484.62740000003583,482.06419999998815,484.12569999998806,485.1241000000238,485.6211000000239,485.6211000000239,487.2391999999881,1285,487.23930000001195,4,487.24310000002384,1,22,52,1,1,1,0.3,Time
,,328537,001,,,2025-06-04_14h55.23.145,Serial_Dependence_U,2023.2.3,Win32,163.93442622935177,,,,,,487.2434000000358,191,1,487.2434000000358,191,,,,491.3841999999881,491.88090000003575,490.88140000003574,491.3841999999881,488.2451999999881,490.8813000000119,491.88090000003575,492.377800000012,492.377800000012,495.208,2121,495.208,5,495.21219999998806,1,23,53,29,1,1.6,0.7,Time
,,328537,001,,,2025-06-04_14h55.23.145,Serial_Dependence_U,2023.2.3,Win32,163.93442622935177,,,,,,495.21240000003576,107,1,495.21250000000003,107,,,,498.78330000001193,499.2801000000239,498.2805,498.78330000001193,496.214,498.28040000003574,499.2801000000239,499.7769000000358,499.7769000000358,506.65500000000003,1031,506.6551000000239,3,506.6591000000239,1,24,54,11,1,1,0.3,Time
,,328537,001,,,2025-06-04_14h55.23.145,Serial_Dependence_U,2023.2.3,Win32,163.93442622935177,,,,,,506.6593000000119,139,1,506.6593000000119,139,,,,510.63050000000004,511.1331999999881,510.1275,510.63040000003576,507.66110000002385,510.1275,511.1331999999881,511.6301000000239,511.63019999998806,513.8664000000358,1666,513.8664000000358,4,513.8705,1,25,55,3,1,1.4,0.3,Time
,,328537,001,,,2025-06-04_14h55.23.145,Serial_Dependence_U,2023.2.3,Win32,163.93442622935177,,,,,,513.8706999999881,337,1,513.870800000012,337,,,,517.8416999999881,518.3383000000119,517.338800000012,517.8416999999881,514.872300000012,517.3386999999882,518.3384000000358,518.835300000012,518.835300000012,521.2471999999882,1771,521.247300000012,4,521.251300000012,1,26,56,23,1,1.4,0.3,Time
,,328537,001,,,2025-06-04_14h55.23.145,Serial_Dependence_U,2023.2.3,Win32,163.93442622935177,,,,,,521.2516000000239,242,1,521.2516000000239,242,,,,524.9924000000358,525.4891000000239,524.4894000000359,524.9924000000358,522.2533000000119,524.489300000012,525.4891000000239,525.9860000000001,525.9860000000001,528.3495,2077,528.3495,5,528.3538000000119,1,27,57,27,1,1.2,0.7,Time
,,328537,001,,,2025-06-04_14h55.23.145,Serial_Dependence_U,2023.2.3,Win32,163.93442622935177,,,,,,528.354,208,1,528.3541000000239,208,,,,532.2946000000238,532.7911999999881,531.7916000000239,532.2945,529.3555000000001,531.7915,532.7911999999881,533.2881000000239,533.2881000000239,535.5001999999881,1836,535.500300000012,5,535.5044000000357,1,28,58,8,1,1.4,0.7,Time
,,328537,001,,,2025-06-04_14h55.23.145,Serial_Dependence_U,2023.2.3,Win32,163.93442622935177,,,,,,535.5046000000239,320,1,535.5046999999881,320,,,,539.6755,540.1721000000239,539.172600000024,539.6754000000358,536.5061999999882,539.1725000000001,540.1721999999882,540.669100000024,540.669100000024,542.7418000000118,1703,542.7418000000118,4,542.7460000000001,1,29,59,4,1,1.6,0.3,Time
,,328537,001,,,2025-06-04_14h55.23.145,Serial_Dependence_U,2023.2.3,Win32,163.93442622935177,,,,,,542.746199999988,132,2,619.0823000000119,132,s,76.32309999996426,,623.0233000000119,623.5198000000119,622.5201999999881,623.023199999988,620.0841999999882,622.5201999999881,623.5198000000119,624.0166999999881,624.0166999999881,626.3585,1867,626.3585,5,626.3626000000238,2,0,60,18,1,1.4,0.7,Time
,,328537,001,,,2025-06-04_14h55.23.145,Serial_Dependence_U,2023.2.3,Win32,163.93442622935177,,,,,,626.3628000000119,46,2,626.3634000000359,46,,,,630.5071999999882,631.0039000000359,630.004199999988,630.5071000000239,627.3681000000238,630.0041000000238,631.0039000000359,631.500600000024,631.500699999988,633.7188000000119,1814,633.7188000000119,4,633.7228000000121,2,1,61,9,1,1.6,0.7,Time
,,328537,001,,,2025-06-04_14h55.23.145,Serial_Dependence_U,2023.2.3,Win32,163.93442622935177,,,,,,633.723,189,2,633.7231000000238,189,,,,637.8638000000119,638.3605,637.3610000000001,637.8638000000119,634.7249000000359,637.3610000000001,638.3605,638.8574000000358,638.8575000000001,652.6863000000119,1946,652.6863000000119,4,652.6906000000238,2,2,62,29,1,1.6,0.7,Time
,,328537,001,,,2025-06-04_14h55.23.145,Serial_Dependence_U,2023.2.3,Win32,163.93442622935177,,,,,,652.6908000000119,208,2,652.6909000000358,208,,,,656.6556000000239,657.1521000000239,656.1526000000238,656.6556000000239,653.6921999999881,656.1526000000238,657.1521999999882,657.6431000000239,657.6431000000239,659.6915000000001,1721,659.6915000000001,4,659.6959000000359,2,3,63,13,1,1.4,0.3,Time
,,328537,001,,,2025-06-04_14h55.23.145,Serial_Dependence_U,2023.2.3,Win32,163.93442622935177,,,,,,659.6961000000238,124,2,659.696199999988,124,,,,663.2671000000239,663.7636000000239,662.764100000024,663.267,660.6975,662.764100000024,663.7636000000239,664.2604000000358,664.2605000000001,665.799800000012,1253,665.7999000000357,4,665.8040000000001,2,4,64,21,1,1,0.3,Time
,,328537,001,,,2025-06-04_14h55.23.145,Serial_Dependence_U,2023.2.3,Win32,163.93442622935177,,,,,,665.8041999999882,51,2,665.8043000000118,51,,,,669.7450000000001,670.2415000000001,669.242,669.7449000000358,666.8058000000119,669.2419000000357,670.2415000000001,670.7386000000238,670.7386000000238,675.0369000000358,1864,675.0369000000358,5,675.0413000000119,2,5,65,8,1,1.4,0.7,Time
,,328537,001,,,2025-06-04_14h55.23.145,Serial_Dependence_U,2023.2.3,Win32,163.93442622935177,,,,,,675.0415,279,2,675.0415,279,,,,678.580199999988,679.0768000000119,678.0771999999881,678.580199999988,676.0409999999999,678.0771999999881,679.0768000000119,679.5738000000119,679.5738000000119,681.579800000012,1630,681.579800000012,5,681.5838000000119,2,6,66,6,1,1,0.7,Time
,,328537,001,,,2025-06-04_14h55.23.145,Serial_Dependence_U,2023.2.3,Win32,163.93442622935177,,,,,,681.5840000000001,12,2,681.5840000000001,12,,,,685.7553000000119,686.251800000012,685.2521999999881,685.755199999988,682.5859000000357,685.2521000000238,686.251800000012,686.748699999988,686.748699999988,688.8335,1819,688.8335,4,688.8376000000239,2,7,67,24,1,1.6,0.3,Time
,,328537,001,,,2025-06-04_14h55.23.145,Serial_Dependence_U,2023.2.3,Win32,163.93442622935177,,,,,,688.837699999988,187,2,688.8378000000118,187,,,,692.5786000000239,693.0751999999882,692.0756000000238,692.5786000000239,689.8395,692.0756000000238,693.0751999999882,693.572100000024,693.572100000024,695.6751999999881,1836,695.6751999999881,5,695.6791999999882,2,8,68,27,1,1.2,0.7,Time
,,328537,001,,,2025-06-04_14h55.23.145,Serial_Dependence_U,2023.2.3,Win32,163.93442622935177,,,,,,695.6794000000357,237,2,695.6795,237,,,,699.8505,700.3471000000238,699.3474000000358,699.8505,696.6811999999882,699.3474000000358,700.3471000000238,700.844,700.844,703.0984000000358,2012,703.0984000000358,4,703.1026999999881,2,9,69,14,1,1.6,0.3,Time
,,328537,001,,,2025-06-04_14h55.23.145,Serial_Dependence_U,2023.2.3,Win32,163.93442622935177,,,,,,703.1029000000358,33,2,703.1030000000001,33,,,,706.8738000000119,707.3705,706.3710000000001,706.8738000000119,704.1054000000358,706.3709000000358,707.3705,707.8675000000001,707.8675000000001,709.7644000000357,1685,709.7644000000357,5,709.7684000000359,2,10,70,2,1,1.2,0.3,Time
,,328537,001,,,2025-06-04_14h55.23.145,Serial_Dependence_U,2023.2.3,Win32,163.93442622935177,,,,,,709.7686000000238,223,2,709.768699999988,223,,,,713.5095000000001,714.0061000000239,713.0065,713.5094000000358,710.770300000012,713.0064000000357,714.0061000000239,714.5029999999999,714.5029999999999,716.8248000000119,2009,716.8248000000119,5,716.8289000000357,2,11,71,17,1,1.2,0.7,Time
,,328537,001,,,2025-06-04_14h55.23.145,Serial_Dependence_U,2023.2.3,Win32,163.93442622935177,,,,,,716.8291000000238,317,2,716.8291999999881,317,,,,721.0001000000238,721.4960000000001,720.4965,721,717.8299999999999,720.4965,721.4960000000001,721.9931000000238,721.9931000000238,723.9686000000238,1777,723.9686000000238,4,723.9726000000239,2,12,72,4,1,1.6,0.3,Time
,,328537,001,,,2025-06-04_14h55.23.145,Serial_Dependence_U,2023.2.3,Win32,163.93442622935177,,,,,,723.9726999999882,249,2,723.9728000000121,249,,,,727.313800000012,727.8105,726.8109000000359,727.313800000012,724.9746999999882,726.810800000012,727.8105,728.3074000000358,728.3074000000358,730.3679000000359,957,730.3679000000359,4,730.3720000000001,2,13,73,15,1,0.8,0.7,Time
,,328537,001,,,2025-06-04_14h55.23.145,Serial_Dependence_U,2023.2.3,Win32,163.93442622935177,,,,,,730.3721000000239,354,2,730.3721999999882,354,,,,733.7374000000357,734.2339000000359,733.2344000000357,733.737300000012,731.3739000000357,733.2343000000119,734.2339000000359,734.7309000000357,734.7309000000357,735.9005,1111,735.9006000000238,5,735.9045000000001,2,14,74,20,1,0.8,0.3,Time
,,328537,001,,,2025-06-04_14h55.23.145,Serial_Dependence_U,2023.2.3,Win32,163.93442622935177,,,,,,735.904699999988,53,2,735.904699999988,53,,,,739.876,740.3726000000238,739.373,739.876,736.9066000000239,739.373,740.3726000000238,740.8696000000239,740.8696000000239,742.5605,1485,742.5605,4,742.5648000000119,2,15,75,3,1,1.4,0.3,Time
,,328537,001,,,2025-06-04_14h55.23.145,Serial_Dependence_U,2023.2.3,Win32,163.93442622935177,,,,,,742.565,207,2,742.5651000000239,207,,,,745.9298000000119,746.4265,745.4269000000359,745.9298000000119,743.5665000000001,745.4269000000359,746.4265,746.923300000012,746.923300000012,748.414300000012,1121,748.414300000012,5,748.418100000024,2,16,76,0,1,0.8,0.3,Time
,,328537,001,,,2025-06-04_14h55.23.145,Serial_Dependence_U,2023.2.3,Win32,163.93442622935177,,,,,,748.4183000000119,356,2,748.4184000000357,356,,,,752.1898000000119,752.6863000000119,751.6866999999882,752.1898000000119,749.420300000012,751.6866999999882,752.6864000000357,753.1831999999881,753.183300000012,755.0559000000358,1550,755.0559000000358,4,755.0601999999881,2,17,77,12,1,1.2,0.3,Time
,,328537,001,,,2025-06-04_14h55.23.145,Serial_Dependence_U,2023.2.3,Win32,163.93442622935177,,,,,,755.0603000000119,142,2,755.0604000000358,142,,,,758.8009999999999,759.297699999988,758.298,758.8009999999999,756.0619000000358,758.2979000000357,759.297699999988,759.7945,759.7945,761.431,1382,761.431,4,761.4351999999881,2,18,78,7,1,1.2,0.7,Time
,,328537,001,,,2025-06-04_14h55.23.145,Serial_Dependence_U,2023.2.3,Win32,163.93442622935177,,,,,,761.4353000000119,114,2,761.4354000000358,114,,,,765.5759000000357,766.0726000000238,765.0730000000001,765.5758000000119,762.4370000000001,765.0729000000358,766.0726000000238,766.5695000000001,766.5696000000239,771.2721000000238,1501,771.2721000000238,2,771.2761999999882,2,19,79,19,1,1.6,0.7,Time
,,328537,001,,,2025-06-04_14h55.23.145,Serial_Dependence_U,2023.2.3,Win32,163.93442622935177,,,,,,771.276300000012,250,2,771.2764000000359,250,,,,774.8476000000239,775.3441999999882,774.344699999988,774.8476000000239,772.2781999999881,774.344699999988,775.344300000012,775.841100000024,775.841199999988,777.4956000000238,1442,777.4956000000238,5,777.4998000000119,2,20,80,11,1,1,0.3,Time
,,328537,001,,,2025-06-04_14h55.23.145,Serial_Dependence_U,2023.2.3,Win32,163.93442622935177,,,,,,777.5,54,2,777.5,54,,,,780.840800000012,781.3375000000001,780.3379000000357,780.840800000012,778.5016999999882,780.3379000000357,781.3375000000001,781.8344000000359,781.8344000000359,783.2646000000238,1364,783.2646000000238,5,783.2685000000001,2,21,81,25,1,0.8,0.7,Time
,,328537,001,,,2025-06-04_14h55.23.145,Serial_Dependence_U,2023.2.3,Win32,163.93442622935177,,,,,,783.268699999988,206,2,783.268699999988,206,,,,786.6404000000357,787.1366999999882,786.1371999999881,786.6403000000118,784.2708000000118,786.1371999999881,787.136800000012,787.633699999988,787.633699999988,788.9064000000358,1079,788.9065,5,788.9101999999882,2,22,82,10,1,0.8,0.3,Time
,,328537,001,,,2025-06-04_14h55.23.145,Serial_Dependence_U,2023.2.3,Win32,163.93442622935177,,,,,,788.9104000000357,100,2,788.9105,100,,,,792.8764000000358,793.372300000012,792.3728000000119,792.8764000000358,789.9064000000358,792.3726999999881,793.3724000000359,793.8693000000119,793.8693000000119,795.9421999999881,1784,795.9421999999881,4,795.9461000000238,2,23,83,23,1,1.4,0.3,Time
,,328537,001,,,2025-06-04_14h55.23.145,Serial_Dependence_U,2023.2.3,Win32,163.93442622935177,,,,,,795.946199999988,256,2,795.9463000000119,256,,,,799.8871000000238,800.383699999988,799.384,799.887,796.9479000000358,799.384,800.383699999988,800.8806000000238,800.8806999999881,802.6684000000357,1546,802.6684000000357,4,802.672300000012,2,24,84,28,1,1.4,0.7,Time
,,328537,001,,,2025-06-04_14h55.23.145,Serial_Dependence_U,2023.2.3,Win32,163.93442622935177,,,,,,802.6725000000001,114,2,802.6725000000001,114,,,,806.2378000000119,806.7344000000357,805.7349000000359,806.2376999999881,803.6745000000001,805.734800000012,806.7344000000357,807.231300000012,807.231300000012,808.8313000000119,1229,808.8314000000357,4,808.835300000012,2,25,85,1,1,1,0.3,Time
,,328537,001,,,2025-06-04_14h55.23.145,Serial_Dependence_U,2023.2.3,Win32,163.93442622935177,,,,,,808.8354999999999,322,2,808.8354999999999,322,,,,812.6068000000118,813.103300000012,812.1038000000119,812.6068000000118,809.8374000000358,812.1036999999881,813.103300000012,813.6003000000119,813.6003000000119,815.1458000000118,1297,815.1458000000118,4,815.1500000000001,2,26,86,22,1,1.2,0.3,Time
,,328537,001,,,2025-06-04_14h55.23.145,Serial_Dependence_U,2023.2.3,Win32,163.93442622935177,,,,,,815.150199999988,272,2,815.1503000000118,272,,,,818.4909000000359,818.9875000000002,817.9879000000358,818.4908000000121,816.1518000000119,817.9879000000358,818.9875000000002,819.4845,819.4845,820.902600000024,1182,820.902600000024,5,820.9066000000239,2,27,87,5,1,0.8,0.7,Time
,,328537,001,,,2025-06-04_14h55.23.145,Serial_Dependence_U,2023.2.3,Win32,163.93442622935177,,,,,,820.9066999999882,357,2,820.906800000012,357,,,,824.4478000000117,824.9443000000117,823.9448000000118,824.4478000000117,821.9086000000239,823.9448000000118,824.9444000000356,825.4413000000118,825.4413000000118,826.8474000000356,1207,826.8474999999999,4,826.8514999999998,2,28,88,26,1,1,0.7,Time
,,328537,001,,,2025-06-04_14h55.23.145,Serial_Dependence_U,2023.2.3,Win32,163.93442622935177,,,,,,826.8516999999879,203,2,826.8518000000117,203,,,,830.3926000000238,830.889199999988,829.8896000000236,830.3926000000238,827.8534000000357,829.8896000000236,830.889199999988,831.3859999999997,831.3859999999997,832.9619000000357,1351,832.9619000000357,5,832.9661000000237,2,29,89,16,1,1,0.7,Time
,,328537,001,,,2025-06-04_14h55.23.145,Serial_Dependence_U,2023.2.3,Win32,163.93442622935177,,,,,,832.966199999988,303,3,992.8256999999878,303,s,159.84839999997598,,996.1971000000237,996.6938000000118,995.6941000000236,996.1969999999999,993.827699999988,995.6941000000236,996.6938000000118,997.1906999999878,997.1906999999878,998.554199999988,993,998.554199999988,4,998.5581000000236,3,0,90,10,1,0.8,0.3,Time
,,328537,001,,,2025-06-04_14h55.23.145,Serial_Dependence_U,2023.2.3,Win32,163.93442622935177,,,,,,998.5583000000117,216,3,998.5593000000117,216,,,,1002.729699999988,1003.2263000000119,1002.2266999999879,1002.7296000000238,999.5603000000117,1002.2266999999879,1003.2263000000119,1003.7231999999879,1003.7233000000117,1005.9473000000119,1836,1005.9474000000357,4,1005.9514999999999,3,1,91,14,1,1.6,0.3,Time
,,328537,001,,,2025-06-04_14h55.23.145,Serial_Dependence_U,2023.2.3,Win32,163.93442622935177,,,,,,1005.951699999988,218,3,1005.951699999988,218,,,,1009.5226999999879,1010.0194000000356,1009.0199000000357,1009.5226999999879,1006.9534000000356,1009.0199000000357,1010.0194000000356,1010.5164000000357,1010.5164000000357,1012.1648000000118,1327,1012.1649000000357,5,1012.1689000000356,3,2,92,11,1,1,0.3,Time
,,328537,001,,,2025-06-04_14h55.23.145,Serial_Dependence_U,2023.2.3,Win32,163.93442622935177,,,,,,1012.1691000000237,260,3,1012.1691000000237,260,,,,1015.9341000000236,1016.4308000000117,1015.4319999999998,1015.9339999999997,1013.1708000000117,1015.4319999999998,1016.4308000000117,1016.9276999999879,1016.9276999999879,1036.040699999988,1170,1036.0408000000118,3,1036.0448000000117,3,3,93,12,1,1.2,0.3,Time
,,328537,001,,,2025-06-04_14h55.23.145,Serial_Dependence_U,2023.2.3,Win32,163.93442622935177,,,,,,1036.0449999999998,325,3,1036.0449999999998,325,,,,1040.0161000000237,1040.5128000000118,1039.5131999999878,1040.0161000000237,1037.0468000000117,1039.5131000000238,1040.5128000000118,1041.009699999988,1041.009699999988,1042.4339000000357,1230,1042.4339000000357,2,1042.4379999999999,3,4,94,13,1,1.4,0.3,Time
,,328537,001,,,2025-06-04_14h55.23.145,Serial_Dependence_U,2023.2.3,Win32,163.93442622935177,,,,,,1042.4381000000237,336,3,1042.438199999988,336,,,,1046.6093000000117,1047.1059999999998,1046.1064000000356,1046.6091999999878,1043.4399000000355,1046.1063000000117,1047.1059999999998,1047.6029000000356,1047.6029000000356,1049.439199999988,1582,1049.4393000000118,3,1049.4433000000117,3,5,95,24,1,1.6,0.3,Time
,,328537,001,,,2025-06-04_14h55.23.145,Serial_Dependence_U,2023.2.3,Win32,163.93442622935177,,,,,,1049.4434000000356,111,3,1049.4434999999999,111,,,,1053.584199999988,1054.0809000000356,1053.0813000000119,1053.584199999988,1050.4451000000238,1053.081199999988,1054.0809000000356,1054.5778000000118,1054.5778000000118,1056.7534000000355,1849,1056.7534999999998,4,1056.7576999999878,3,6,96,29,1,1.6,0.7,Time
,,328537,001,,,2025-06-04_14h55.23.145,Serial_Dependence_U,2023.2.3,Win32,163.93442622935177,,,,,,1056.7579000000355,138,3,1056.7579999999998,138,,,,1060.4985,1060.9951000000237,1059.9956000000236,1060.4985,1057.7595,1059.9956000000236,1060.9951000000237,1061.492,1061.492,1063.7708000000118,1752,1063.7708000000118,5,1063.7751000000237,3,7,97,7,1,1.2,0.7,Time
,,328537,001,,,2025-06-04_14h55.23.145,Serial_Dependence_U,2023.2.3,Win32,163.93442622935177,,,,,,1063.7753000000118,26,3,1063.7753000000118,26,,,,1067.916,1068.4125,1067.4129000000355,1067.9158000000118,1064.7768000000117,1067.4129000000355,1068.4125,1068.9094000000357,1068.9094000000357,1071.2063000000119,1964,1071.2063000000119,4,1071.2104000000356,3,8,98,19,1,1.6,0.7,Time
,,328537,001,,,2025-06-04_14h55.23.145,Serial_Dependence_U,2023.2.3,Win32,163.93442622935177,,,,,,1071.210699999988,357,3,1071.210699999988,357,,,,1075.1816000000238,1075.678199999988,1074.6786999999879,1075.1815,1072.2123000000117,1074.6786999999879,1075.678199999988,1076.1753000000117,1076.1753000000117,1078.1994000000357,1684,1078.1994000000357,4,1078.2036000000237,3,9,99,3,1,1.4,0.3,Time
,,328537,001,,,2025-06-04_14h55.23.145,Serial_Dependence_U,2023.2.3,Win32,163.93442622935177,,,,,,1078.203699999988,262,3,1078.2038000000118,262,,,,1081.5748000000117,1082.0714999999998,1081.0719000000356,1081.5748000000117,1079.2054000000355,1081.0718000000118,1082.0714999999998,1082.5684000000356,1082.5684000000356,1084.344199999988,1478,1084.344199999988,5,1084.3481999999879,3,10,100,20,1,0.8,0.3,Time
,,328537,001,,,2025-06-04_14h55.23.145,Serial_Dependence_U,2023.2.3,Win32,163.93442622935177,,,,,,1084.3483000000117,243,3,1084.3484000000356,243,,,,1088.1194000000355,1088.6161000000236,1087.6166000000237,1088.1194000000355,1085.3501000000238,1087.6164999999999,1088.6161000000236,1089.1131000000237,1089.1131000000237,1091.0161000000237,1552,1091.0161000000237,4,1091.0201999999879,3,11,101,2,1,1.2,0.3,Time
,,328537,001,,,2025-06-04_14h55.23.145,Serial_Dependence_U,2023.2.3,Win32,163.93442622935177,,,,,,1091.0203000000117,298,3,1091.0204000000356,298,,,,1094.5611999999878,1095.0578000000119,1094.058199999988,1094.5611999999878,1092.022,1094.058199999988,1095.0578000000119,1095.5546999999879,1095.5546999999879,1097.6698000000117,1782,1097.6699000000356,5,1097.6738000000119,3,12,102,16,1,1,0.7,Time
,,328537,001,,,2025-06-04_14h55.23.145,Serial_Dependence_U,2023.2.3,Win32,163.93442622935177,,,,,,1097.6739999999998,295,3,1097.6741000000236,295,,,,1101.4148000000118,1101.9115,1100.9119000000355,1101.4148000000118,1098.6764000000355,1100.9119000000355,1101.9115,1102.4084999999998,1102.4084999999998,1104.2084000000357,1545,1104.2084000000357,4,1104.2124999999999,3,13,103,27,1,1.2,0.7,Time
,,328537,001,,,2025-06-04_14h55.23.145,Serial_Dependence_U,2023.2.3,Win32,163.93442622935177,,,,,,1104.2126000000237,294,3,1104.2126000000237,294,,,,1108.1535,1108.650199999988,1107.6506000000236,1108.1534000000356,1105.2144999999998,1107.6505,1108.650199999988,1109.147,1109.147,1110.819699999988,1353,1110.819699999988,3,1110.8234999999997,3,14,104,28,1,1.4,0.7,Time
,,328537,001,,,2025-06-04_14h55.23.145,Serial_Dependence_U,2023.2.3,Win32,163.93442622935177,,,,,,1110.8236999999879,335,3,1110.8238000000117,335,,,,1114.1951999999878,1114.6918000000119,1113.692199999988,1114.1951000000238,1111.8256999999878,1113.692199999988,1114.6919000000355,1115.1888000000117,1115.1888000000117,1116.3343000000118,908,1116.3343000000118,4,1116.3383000000117,3,15,105,0,1,0.8,0.3,Time
,,328537,001,,,2025-06-04_14h55.23.145,Serial_Dependence_U,2023.2.3,Win32,163.93442622935177,,,,,,1116.3384999999998,27,3,1116.3384999999998,27,,,,1120.0794000000355,1120.5759999999998,1119.5764000000356,1120.0794000000355,1117.3404000000355,1119.5763000000118,1120.5759999999998,1121.0729000000356,1121.0729000000356,1122.7819000000356,1427,1122.7819000000356,4,1122.7858000000117,3,16,106,17,1,1.2,0.7,Time
,,328537,001,,,2025-06-04_14h55.23.145,Serial_Dependence_U,2023.2.3,Win32,163.93442622935177,,,,,,1122.7859000000356,295,3,1122.7859999999998,295,,,,1126.9573000000119,1127.454,1126.4544000000355,1126.9573000000119,1123.7879999999998,1126.4544000000355,1127.454,1127.9509000000355,1127.9509000000355,1129.9206000000238,1672,1129.9206999999878,3,1129.9248000000118,3,17,107,4,1,1.6,0.3,Time
,,328537,001,,,2025-06-04_14h55.23.145,Serial_Dependence_U,2023.2.3,Win32,163.93442622935177,,,,,,1129.925,246,3,1129.9251000000238,246,,,,1133.4959000000356,1133.9926000000237,1132.993,1133.4959000000356,1130.9266000000237,1132.993,1133.9926000000237,1134.4894000000356,1134.4895,1136.3258000000117,1429,1136.3258000000117,5,1136.329699999988,3,18,108,1,1,1,0.3,Time
,,328537,001,,,2025-06-04_14h55.23.145,Serial_Dependence_U,2023.2.3,Win32,163.93442622935177,,,,,,1136.3298000000118,243,3,1136.3298000000118,243,,,,1140.4708000000119,1140.9674999999997,1139.9679999999998,1140.4708000000119,1137.3319000000356,1139.9679000000356,1140.9674999999997,1141.4644000000355,1141.4644999999998,1144.2096999999878,2153,1144.2098000000117,5,1144.2138000000118,3,19,109,9,1,1.6,0.7,Time
,,328537,001,,,2025-06-04_14h55.23.145,Serial_Dependence_U,2023.2.3,Win32,163.93442622935177,,,,,,1144.2139000000357,127,3,1144.214,127,,,,1148.1789999999999,1148.6756000000237,1147.6778000000118,1148.1789999999999,1145.215699999988,1147.677699999988,1148.675699999988,1149.1726000000237,1149.1726000000237,1151.5846000000238,1945,1151.5848000000117,5,1151.589,3,20,110,23,1,1.4,0.3,Time
,,328537,001,,,2025-06-04_14h55.23.145,Serial_Dependence_U,2023.2.3,Win32,163.93442622935177,,,,,,1151.5891000000238,22,3,1151.5891999999878,22,,,,1155.129699999988,1155.6264000000356,1154.626699999988,1155.129699999988,1152.5906000000236,1154.626699999988,1155.6264000000356,1156.1233000000118,1156.1233000000118,1157.9049999999997,1470,1157.9051000000236,5,1157.9089000000356,3,21,111,26,1,1,0.7,Time
,,328537,001,,,2025-06-04_14h55.23.145,Serial_Dependence_U,2023.2.3,Win32,163.93442622935177,,,,,,1157.9091000000237,321,3,1157.909199999988,321,,,,1161.850199999988,1162.3468000000119,1161.3473000000117,1161.850199999988,1158.9109999999998,1161.3473000000117,1162.3468000000119,1162.8436999999878,1162.8436999999878,1165.0679999999998,1891,1165.0681000000236,5,1165.0724999999998,3,22,112,8,1,1.4,0.7,Time
,,328537,001,,,2025-06-04_14h55.23.145,Serial_Dependence_U,2023.2.3,Win32,163.93442622935177,,,,,,1165.0724999999998,12,3,1165.0726000000236,12,,,,1168.8433000000118,1169.3398000000118,1168.340199999988,1168.8433000000118,1166.0739999999998,1168.340199999988,1169.3399000000356,1169.8368000000119,1169.8368000000119,1172.279199999988,1959,1172.2793000000117,5,1172.283199999988,3,23,113,22,1,1.2,0.3,Time
,,328537,001,,,2025-06-04_14h55.23.145,Serial_Dependence_U,2023.2.3,Win32,163.93442622935177,,,,,,1172.2834000000357,187,3,1172.2834999999998,187,,,,1175.6243000000118,1176.1209000000356,1175.1213000000118,1175.624199999988,1173.2851000000237,1175.121199999988,1176.1209000000356,1176.6178000000118,1176.6179000000357,1178.1026000000236,1042,1178.1028000000117,5,1178.106699999988,3,24,114,15,1,0.8,0.7,Time
,,328537,001,,,2025-06-04_14h55.23.145,Serial_Dependence_U,2023.2.3,Win32,163.93442622935177,,,,,,1178.1069000000357,59,3,1178.1069000000357,59,,,,1182.0478000000119,1182.5444000000357,1181.5448000000117,1182.0478000000119,1179.108699999988,1181.5448000000117,1182.5444000000357,1183.0411999999878,1183.0413000000117,1185.4479999999999,1600,1185.4481000000237,4,1185.452199999988,3,25,115,18,1,1.4,0.7,Time
,,328537,001,,,2025-06-04_14h55.23.145,Serial_Dependence_U,2023.2.3,Win32,163.93442622935177,,,,,,1185.4523000000117,300,3,1185.4524999999999,300,,,,1188.992699999988,1189.4891000000237,1188.4894000000356,1188.9924999999998,1186.4534000000356,1188.4894000000356,1189.4891000000237,1189.9859999999999,1189.9859999999999,1192.6953000000117,1264,1192.6954000000355,4,1192.6995,3,26,116,6,1,1,0.7,Time
,,328537,001,,,2025-06-04_14h55.23.145,Serial_Dependence_U,2023.2.3,Win32,163.93442622935177,,,,,,1192.6996000000238,38,3,1192.6996999999878,38,,,,1196.0401000000236,1196.5366999999878,1195.5369999999998,1196.04,1193.7009999999998,1195.5369999999998,1196.5366999999878,1197.0336000000236,1197.0336000000236,1199.5304999999998,1460,1199.5306000000237,5,1199.5346999999879,3,27,117,5,1,0.8,0.7,Time
,,328537,001,,,2025-06-04_14h55.23.145,Serial_Dependence_U,2023.2.3,Win32,163.93442622935177,,,,,,1199.5349000000356,193,3,1199.5349999999999,193,,,,1203.1059000000357,1203.6025,1202.6029000000356,1203.1059000000357,1200.5364000000357,1202.6028000000117,1203.6025,1204.0994000000355,1204.0994000000355,1205.5781999999879,1178,1205.5781999999879,4,1205.5819999999999,3,28,118,21,1,1,0.3,Time
,,328537,001,,,2025-06-04_14h55.23.145,Serial_Dependence_U,2023.2.3,Win32,163.93442622935177,,,,,,1205.582199999988,302,3,1205.5823000000119,302,,,,1208.9234999999999,1209.4199999999998,1208.4204000000357,1208.9234999999999,1206.5843000000118,1208.4203000000118,1209.4199999999998,1209.9169000000356,1209.9169000000356,1211.3291999999878,1098,1211.3293000000117,5,1211.3333000000118,3,29,119,25,1,0.8,0.7,Time
,,328537,001,,,2025-06-04_14h55.23.145,Serial_Dependence_U,2023.2.3,Win32,163.93442622935177,,,,,,1211.3334000000357,1,4,1295.0624999999998,1,s,83.71870000004765,,1299.0036000000237,1299.500199999988,1298.5008000000118,1299.0036000000237,1296.0645,1298.500699999988,1299.500199999988,1299.997199999988,1299.9973000000118,1303.4999999999998,1673,1303.4999999999998,4,1303.504199999988,4,0,120,8,1,1.4,0.7,Time
,,328537,001,,,2025-06-04_14h55.23.145,Serial_Dependence_U,2023.2.3,Win32,163.93442622935177,,,,,,1303.5044000000355,11,4,1303.5049999999999,11,,,,1307.2451000000237,1307.7416000000237,1306.7421999999879,1307.2451000000237,1304.5059000000356,1306.7421000000236,1307.7416000000237,1308.2386000000238,1308.2386000000238,1310.4446000000237,1736,1310.444699999988,5,1310.4486999999879,4,1,121,7,1,1.2,0.7,Time
,,328537,001,,,2025-06-04_14h55.23.145,Serial_Dependence_U,2023.2.3,Win32,163.93442622935177,,,,,,1310.4489000000356,291,4,1310.4489999999998,291,,,,1314.0201000000236,1314.5166000000238,1313.5179000000355,1314.0199999999998,1311.4506000000238,1313.5178000000117,1314.5166000000238,1315.0136000000236,1315.013699999988,1316.2378000000117,933,1316.2378000000117,2,1316.2418000000118,4,2,122,21,1,1,0.3,Time
,,328537,001,,,2025-06-04_14h55.23.145,Serial_Dependence_U,2023.2.3,Win32,163.93442622935177,,,,,,1316.242,149,4,1316.242,149,,,,1320.0133000000117,1320.5098000000119,1319.5104000000356,1320.0133000000117,1317.2439000000356,1319.5103000000117,1320.5098000000119,1321.0066999999879,1321.0066999999879,1322.7946999999879,1410,1322.7948000000117,4,1322.7989000000357,4,3,123,12,1,1.2,0.3,Time
,,328537,001,,,2025-06-04_14h55.23.145,Serial_Dependence_U,2023.2.3,Win32,163.93442622935177,,,,,,1322.7991999999879,338,4,1322.7993000000117,338,,,,1326.9699999999998,1327.4666000000236,1326.4671000000237,1326.9699999999998,1323.8006000000237,1326.4669999999999,1327.4666000000236,1327.9634999999998,1327.9634999999998,1330.090699999988,1846,1330.090699999988,4,1330.0951000000236,4,4,124,4,1,1.6,0.3,Time
,,328537,001,,,2025-06-04_14h55.23.145,Serial_Dependence_U,2023.2.3,Win32,163.93442622935177,,,,,,1330.095199999988,326,4,1330.0953000000118,326,,,,1334.2358000000117,1334.7324999999998,1333.7328000000118,1334.2358000000117,1331.0966000000237,1333.732699999988,1334.7324999999998,1335.2293000000118,1335.2293000000118,1337.7746000000236,1983,1337.774699999988,4,1337.7789000000357,4,5,125,19,1,1.6,0.7,Time
,,328537,001,,,2025-06-04_14h55.23.145,Serial_Dependence_U,2023.2.3,Win32,163.93442622935177,,,,,,1337.7791000000236,201,4,1337.7791000000236,201,,,,1341.3199000000357,1341.8166000000238,1340.8169000000355,1341.3198000000118,1338.7808000000118,1340.8168000000119,1341.8166000000238,1342.3133000000118,1342.3134000000357,1343.9436000000237,1311,1343.9436000000237,5,1343.9476000000236,4,6,126,6,1,1,0.7,Time
,,328537,001,,,2025-06-04_14h55.23.145,Serial_Dependence_U,2023.2.3,Win32,163.93442622935177,,,,,,1343.9478000000117,51,4,1343.9478000000117,51,,,,1347.2889000000357,1347.7854000000357,1346.7858000000117,1347.2889000000357,1344.9499999999998,1346.7858000000117,1347.7854000000357,1348.2823000000117,1348.2823000000117,1350.5674999999999,1396,1350.5674999999999,5,1350.5716000000236,4,7,127,5,1,0.8,0.7,Time
,,328537,001,,,2025-06-04_14h55.23.145,Serial_Dependence_U,2023.2.3,Win32,163.93442622935177,,,,,,1350.571699999988,164,4,1350.5718000000118,164,,,,1354.7424999999998,1355.2389999999998,1354.2395,1354.7424000000356,1351.5731000000237,1354.2395,1355.2389999999998,1355.7359999999999,1355.7359999999999,1357.8999000000356,1803,1357.8999000000356,4,1357.9039000000357,4,8,128,14,1,1.6,0.3,Time
,,328537,001,,,2025-06-04_14h55.23.145,Serial_Dependence_U,2023.2.3,Win32,163.93442622935177,,,,,,1357.9041000000236,358,4,1357.9041000000236,358,,,,1362.0749000000355,1362.5716000000236,1361.5719000000356,1362.0749000000355,1358.9056000000237,1361.5719000000356,1362.5716000000236,1363.0686000000237,1363.0686000000237,1403.7608000000118,1083,1403.7608000000118,1,1403.7653000000118,4,9,129,24,1,1.6,0.3,Time
,,328537,001,,,2025-06-04_14h55.23.145,Serial_Dependence_U,2023.2.3,Win32,163.93442622935177,,,,,,1403.7654999999997,81,4,1403.7654999999997,81,,,,1407.7361000000237,1408.2328000000118,1407.2333000000117,1407.7361000000237,1404.7666999999878,1407.2331999999878,1408.2328000000118,1408.729699999988,1408.729699999988,1410.978199999988,1780,1410.978199999988,4,1410.9824999999998,4,10,130,23,1,1.4,0.3,Time
,,328537,001,,,2025-06-04_14h55.23.145,Serial_Dependence_U,2023.2.3,Win32,163.93442622935177,,,,,,1410.9826000000237,0,4,1410.9828000000118,0,,,,1414.5474000000356,1415.0439999999999,1414.0444999999997,1414.5473000000118,1411.9841000000238,1414.0444999999997,1415.0439999999999,1415.541,1415.541,1417.3471000000236,1485,1417.3471000000236,5,1417.3509999999999,4,11,131,11,1,1,0.3,Time
,,328537,001,,,2025-06-04_14h55.23.145,Serial_Dependence_U,2023.2.3,Win32,163.93442622935177,,,,,,1417.351199999988,201,4,1417.351199999988,201,,,,1421.0921000000237,1421.588699999988,1420.5891000000238,1421.0921000000237,1418.3531000000237,1420.5891000000238,1421.588699999988,1422.085699999988,1422.085699999988,1424.194699999988,1776,1424.194699999988,5,1424.1988000000117,4,12,132,17,1,1.2,0.7,Time
,,328537,001,,,2025-06-04_14h55.23.145,Serial_Dependence_U,2023.2.3,Win32,163.93442622935177,,,,,,1424.1989999999998,72,4,1424.1991000000237,72,,,,1427.739699999988,1428.2364999999998,1427.2369000000356,1427.739699999988,1425.2006999999878,1427.2368000000117,1428.2364999999998,1428.7333000000117,1428.7334000000355,1430.3576000000237,1602,1430.3576000000237,5,1430.3614000000357,4,13,133,26,1,1,0.7,Time
,,328537,001,,,2025-06-04_14h55.23.145,Serial_Dependence_U,2023.2.3,Win32,163.93442622935177,,,,,,1430.3616000000236,20,4,1430.3616000000236,20,,,,1434.1329999999998,1434.6296000000236,1433.6299999999999,1434.1329999999998,1431.3635,1433.6299999999999,1434.6296000000236,1435.1266000000237,1435.1266000000237,1437.2114000000356,1763,1437.2114000000356,5,1437.2154000000355,4,14,134,22,1,1.2,0.3,Time
,,328537,001,,,2025-06-04_14h55.23.145,Serial_Dependence_U,2023.2.3,Win32,163.93442622935177,,,,,,1437.215699999988,26,4,1437.215699999988,26,,,,1441.3563000000117,1441.8529000000356,1440.8534000000357,1441.3563000000117,1438.2174000000357,1440.8533000000118,1441.8529999999998,1442.35,1442.35,1444.537699999988,1809,1444.5378000000119,4,1444.5416000000237,4,15,135,29,1,1.6,0.7,Time
,,328537,001,,,2025-06-04_14h55.23.145,Serial_Dependence_U,2023.2.3,Win32,163.93442622935177,,,,,,1444.5419000000356,233,4,1444.5419000000356,233,,,,1447.8828000000117,1448.3796000000236,1447.3799000000356,1447.8828000000117,1445.5438000000117,1447.3799000000356,1448.3796000000236,1448.8764999999999,1448.8764999999999,1450.052199999988,956,1450.052199999988,4,1450.0563000000118,4,16,136,15,1,0.8,0.7,Time
,,328537,001,,,2025-06-04_14h55.23.145,Serial_Dependence_U,2023.2.3,Win32,163.93442622935177,,,,,,1450.0565,17,4,1450.0565,17,,,,1453.5974000000356,1454.0939999999998,1453.0944000000356,1453.5974000000356,1451.058199999988,1453.0943000000118,1454.0939999999998,1454.5909000000356,1454.5909000000356,1455.9364000000355,1058,1455.9364000000355,4,1455.9405,4,17,137,16,1,1,0.7,Time
,,328537,001,,,2025-06-04_14h55.23.145,Serial_Dependence_U,2023.2.3,Win32,163.93442622935177,,,,,,1455.9406999999878,243,4,1455.9408000000117,243,,,,1459.8815,1460.378,1459.3786000000237,1459.8815,1456.9424000000356,1459.3784999999998,1460.3781000000238,1460.8749000000357,1460.8749999999998,1462.5174000000357,1425,1462.5175,3,1462.5214000000356,4,18,138,18,1,1.4,0.7,Time
,,328537,001,,,2025-06-04_14h55.23.145,Serial_Dependence_U,2023.2.3,Win32,163.93442622935177,,,,,,1462.5216000000237,218,4,1462.5216000000237,218,,,,1466.4624999999999,1466.9591000000237,1465.9595,1466.4624000000356,1463.5234999999998,1465.9594000000357,1466.9591000000237,1467.4561000000238,1467.4561000000238,1469.3468000000119,1518,1469.3468000000119,4,1469.3509000000356,4,19,139,28,1,1.4,0.7,Time
,,328537,001,,,2025-06-04_14h55.23.145,Serial_Dependence_U,2023.2.3,Win32,163.93442622935177,,,,,,1469.3511000000237,208,4,1469.351199999988,208,,,,1473.0919999999999,1473.5886000000237,1472.5891999999878,1473.0919000000356,1470.3529999999998,1472.5891000000238,1473.5886000000237,1474.0856000000238,1474.0856000000238,1475.831,1488,1475.831,4,1475.8349000000355,4,20,140,27,1,1.2,0.7,Time
,,328537,001,,,2025-06-04_14h55.23.145,Serial_Dependence_U,2023.2.3,Win32,163.93442622935177,,,,,,1475.8349999999998,238,4,1475.8351000000237,238,,,,1479.2004000000356,1479.6971000000237,1478.6974000000357,1479.2004000000356,1476.8369999999998,1478.6974000000357,1479.6971000000237,1480.1939000000357,1480.1939000000357,1481.6181999999878,1031,1481.6181999999878,4,1481.622199999988,4,21,141,20,1,0.8,0.3,Time
,,328537,001,,,2025-06-04_14h55.23.145,Serial_Dependence_U,2023.2.3,Win32,163.93442622935177,,,,,,1481.6224000000357,286,4,1481.6225,286,,,,1485.5936000000238,1486.090199999988,1485.0906000000236,1485.5935,1482.624199999988,1485.0906000000236,1486.090199999988,1486.5871000000236,1486.587199999988,1488.9141999999879,1751,1488.9143000000117,4,1488.9183000000119,4,22,142,3,1,1.4,0.3,Time
,,328537,001,,,2025-06-04_14h55.23.145,Serial_Dependence_U,2023.2.3,Win32,163.93442622935177,,,,,,1488.9184999999998,216,4,1488.9186000000236,216,,,,1493.0594000000356,1493.5559999999998,1492.5564000000356,1493.0593000000117,1489.9203000000118,1492.5563000000118,1493.5559999999998,1494.0529000000356,1494.0529999999999,1496.0891000000238,1800,1496.0891000000238,4,1496.0929999999998,4,23,143,9,1,1.6,0.7,Time
,,328537,001,,,2025-06-04_14h55.23.145,Serial_Dependence_U,2023.2.3,Win32,163.93442622935177,,,,,,1496.093199999988,158,4,1496.093199999988,158,,,,1499.8646000000238,1500.361199999988,1499.3616000000236,1499.8646000000238,1497.0959999999998,1499.3616000000236,1500.361199999988,1500.8581000000238,1500.8581000000238,1502.706699999988,1512,1502.706699999988,4,1502.7106000000238,4,24,144,2,1,1.2,0.3,Time
,,328537,001,,,2025-06-04_14h55.23.145,Serial_Dependence_U,2023.2.3,Win32,163.93442622935177,,,,,,1502.710699999988,137,4,1502.710800000012,137,,,,1506.0821000000237,1506.5786000000237,1505.5791000000238,1506.0821000000237,1503.712699999988,1505.5791000000238,1506.5786000000237,1507.0756000000238,1507.0756000000238,1508.4756000000236,1040,1508.4756000000236,5,1508.4796000000238,4,25,145,0,1,0.8,0.3,Time
,,328537,001,,,2025-06-04_14h55.23.145,Serial_Dependence_U,2023.2.3,Win32,163.93442622935177,,,,,,1508.4798000000117,291,4,1508.4799000000355,291,,,,1511.8449999999998,1512.341699999988,1511.3421000000237,1511.8449000000355,1509.4816000000237,1511.3419999999999,1512.341699999988,1512.8384999999998,1512.8384999999998,1514.250699999988,1178,1514.2508000000118,5,1514.2546000000236,4,26,146,10,1,0.8,0.3,Time
,,328537,001,,,2025-06-04_14h55.23.145,Serial_Dependence_U,2023.2.3,Win32,163.93442622935177,,,,,,1514.254699999988,210,4,1514.2548000000118,210,,,,1518.2259999999999,1518.722699999988,1517.7231000000238,1518.2259999999999,1515.2568000000117,1517.7231000000238,1518.722699999988,1519.2196000000238,1519.2196000000238,1520.9286999999879,1463,1520.9286999999879,3,1520.9328000000119,4,27,147,13,1,1.4,0.3,Time
,,328537,001,,,2025-06-04_14h55.23.145,Serial_Dependence_U,2023.2.3,Win32,163.93442622935177,,,,,,1520.9329000000357,286,4,1520.9329999999998,286,,,,1524.2738000000118,1524.7704999999999,1523.7708000000118,1524.2738000000118,1521.934699999988,1523.7708000000118,1524.7704999999999,1525.2674000000357,1525.2674000000357,1526.5279999999998,963,1526.5279999999998,4,1526.532,4,28,148,25,1,0.8,0.7,Time
,,328537,001,,,2025-06-04_14h55.23.145,Serial_Dependence_U,2023.2.3,Win32,163.93442622935177,,,,,,1526.5321999999878,314,4,1526.5321999999878,314,,,,1530.1035,1530.6,1529.6004999999998,1530.1034000000357,1527.5339999999999,1529.6004999999998,1530.6,1531.0969000000357,1531.0969000000357,1532.7273000000118,1382,1532.7273000000118,5,1532.7314000000356,4,29,149,1,1,1,0.3,Time
,,328537,001,,,2025-06-04_14h55.23.145,Serial_Dependence_U,2023.2.3,Win32,163.93442622935177,,,,,,1532.7314999999999,76,5,1614.1035,76,s,81.35869999998795,,1618.2444999999998,1618.7411000000236,1617.7421000000236,1618.2444000000355,1615.1054000000356,1617.7421000000236,1618.7411000000236,1619.2381000000237,1619.2381000000237,1621.5469999999998,1868,1621.5469999999998,4,1621.5509000000357,5,0,150,29,1,1.6,0.7,Time
,,328537,001,,,2025-06-04_14h55.23.145,Serial_Dependence_U,2023.2.3,Win32,163.93442622935177,,,,,,1621.5511000000238,200,5,1621.551699999988,200,,,,1624.8923000000118,1625.3888000000118,1624.3891000000237,1624.892199999988,1622.5531000000237,1624.3891000000237,1625.3888000000118,1625.885699999988,1625.885699999988,1627.4191000000237,1219,1627.419199999988,5,1627.4231000000236,5,1,151,25,1,0.8,0.7,Time
,,328537,001,,,2025-06-04_14h55.23.145,Serial_Dependence_U,2023.2.3,Win32,163.93442622935177,,,,,,1627.423199999988,6,5,1627.4233000000117,6,,,,1630.9641000000238,1631.460699999988,1630.4613000000118,1630.964,1628.4251000000238,1630.4613000000118,1631.460800000012,1631.9576999999879,1631.9576999999879,1633.6971000000237,1418,1633.6971000000237,5,1633.7011000000236,5,2,152,6,1,1,0.7,Time
,,328537,001,,,2025-06-04_14h55.23.145,Serial_Dependence_U,2023.2.3,Win32,163.93442622935177,,,,,,1633.7013000000118,239,5,1633.7014000000356,239,,,,1637.6421000000237,1638.1388000000118,1637.139199999988,1637.6419999999998,1634.7031000000236,1637.139199999988,1638.1388000000118,1638.635699999988,1638.635699999988,1640.5811000000238,1632,1640.5811000000238,4,1640.585199999988,5,3,153,18,1,1.4,0.7,Time
,,328537,001,,,2025-06-04_14h55.23.145,Serial_Dependence_U,2023.2.3,Win32,163.93442622935177,,,,,,1640.5853000000118,66,5,1640.5854000000356,66,,,,1644.3263000000118,1644.8229000000356,1643.8233000000118,1644.326199999988,1641.5871000000236,1643.8233000000118,1644.8229000000356,1645.3198000000118,1645.3198000000118,1647.2046000000237,1546,1647.2046000000237,4,1647.2086999999879,5,4,154,27,1,1.2,0.7,Time
,,328537,001,,,2025-06-04_14h55.23.145,Serial_Dependence_U,2023.2.3,Win32,163.93442622935177,,,,,,1647.2089000000356,148,5,1647.2089999999998,148,,,,1650.9799000000355,1651.4766999999879,1650.477199999988,1650.9799000000355,1648.2106000000238,1650.4771000000237,1651.4766999999879,1651.9734999999998,1651.9734999999998,1653.7189000000355,1478,1653.7189999999998,4,1653.722699999988,5,5,155,12,1,1.2,0.3,Time
,,328537,001,,,2025-06-04_14h55.23.145,Serial_Dependence_U,2023.2.3,Win32,163.93442622935177,,,,,,1653.7229000000357,84,5,1653.7229000000357,84,,,,1657.0641000000237,1657.560699999988,1656.5611000000238,1657.0641000000237,1654.725,1656.5611000000238,1657.560699999988,1658.057699999988,1658.057699999988,1659.7546000000236,1454,1659.7546000000236,5,1659.758699999988,5,6,156,15,1,0.8,0.7,Time
,,328537,001,,,2025-06-04_14h55.23.145,Serial_Dependence_U,2023.2.3,Win32,163.93442622935177,,,,,,1659.7588000000117,164,5,1659.7589000000355,164,,,,1663.4998000000119,1663.9963000000118,1662.9966999999879,1663.499699999988,1660.7609999999997,1662.9966999999879,1663.9963000000118,1664.4931999999878,1664.4931999999878,1666.4386999999879,1688,1666.4386999999879,5,1666.4429000000357,5,7,157,7,1,1.2,0.7,Time
,,328537,001,,,2025-06-04_14h55.23.145,Serial_Dependence_U,2023.2.3,Win32,163.93442622935177,,,,,,1666.4431000000236,123,5,1666.4431000000236,123,,,,1670.4139999999998,1670.9106999999879,1669.911199999988,1670.4139999999998,1667.444699999988,1669.9111000000237,1670.9106999999879,1671.407699999988,1671.407699999988,1673.5044999999998,1807,1673.5044999999998,4,1673.508699999988,5,8,158,23,1,1.4,0.3,Time
,,328537,001,,,2025-06-04_14h55.23.145,Serial_Dependence_U,2023.2.3,Win32,163.93442622935177,,,,,,1673.5089000000355,330,5,1673.5089999999998,330,,,,1677.4798000000117,1677.9764999999998,1676.9769999999999,1677.4798000000117,1674.5104999999999,1676.9769000000356,1677.9764999999998,1678.4734000000356,1678.4734999999998,1680.570699999988,1788,1680.570699999988,4,1680.575199999988,5,9,159,13,1,1.4,0.3,Time
,,328537,001,,,2025-06-04_14h55.23.145,Serial_Dependence_U,2023.2.3,Win32,163.93442622935177,,,,,,1680.5753000000118,209,5,1680.5754000000356,209,,,,1683.9396999999879,1684.4363000000117,1683.4368000000118,1683.9396999999879,1681.5763000000118,1683.4368000000118,1684.4363000000117,1684.933199999988,1684.933199999988,1687.7511999999879,1439,1687.7513000000117,5,1687.7554999999998,5,10,160,0,1,0.8,0.3,Time
,,328537,001,,,2025-06-04_14h55.23.145,Serial_Dependence_U,2023.2.3,Win32,163.93442622935177,,,,,,1687.7556000000236,46,5,1687.7556999999879,46,,,,1691.9266000000237,1692.423199999988,1691.423699999988,1691.9266000000237,1688.7573000000118,1691.4236000000237,1692.423199999988,1692.920199999988,1692.920199999988,1695.0594999999998,1755,1695.0594999999998,4,1695.0639999999999,5,11,161,24,1,1.6,0.3,Time
,,328537,001,,,2025-06-04_14h55.23.145,Serial_Dependence_U,2023.2.3,Win32,163.93442622935177,,,,,,1695.064199999988,191,5,1695.0643000000118,191,,,,1698.4048000000118,1698.901199999988,1697.9018000000117,1698.404699999988,1696.0655,1697.9016999999878,1698.9013000000118,1699.398199999988,1699.398199999988,1701.029199999988,1277,1701.0293000000117,5,1701.033699999988,5,12,162,5,1,0.8,0.7,Time
,,328537,001,,,2025-06-04_14h55.23.145,Serial_Dependence_U,2023.2.3,Win32,163.93442622935177,,,,,,1701.0339000000356,230,5,1701.0339000000356,230,,,,1705.1736000000237,1705.6703000000118,1704.6706000000238,1705.1736000000237,1702.0346000000236,1704.6706000000238,1705.6703000000118,1706.1671000000238,1706.167199999988,1708.4216000000238,1866,1708.4216000000238,4,1708.4259000000357,5,13,163,9,1,1.6,0.7,Time
,,328537,001,,,2025-06-04_14h55.23.145,Serial_Dependence_U,2023.2.3,Win32,163.93442622935177,,,,,,1708.4261000000238,6,5,1708.4261000000238,6,,,,1712.1664999999998,1712.6634000000356,1711.663699999988,1712.1664999999998,1709.4274999999998,1711.6636000000237,1712.6634000000356,1713.160199999988,1713.160199999988,1715.129699999988,1710,1715.1298000000118,5,1715.133699999988,5,14,164,17,1,1.2,0.7,Time
,,328537,001,,,2025-06-04_14h55.23.145,Serial_Dependence_U,2023.2.3,Win32,163.93442622935177,,,,,,1715.1338000000117,162,5,1715.1339000000355,162,,,,1719.105199999988,1719.6018000000117,1718.6023000000118,1719.105199999988,1716.1359000000357,1718.6023000000118,1719.6019000000356,1720.0988000000118,1720.0988000000118,1722.0684999999999,1594,1722.0684999999999,4,1722.0729000000356,5,15,165,3,1,1.4,0.3,Time
,,328537,001,,,2025-06-04_14h55.23.145,Serial_Dependence_U,2023.2.3,Win32,163.93442622935177,,,,,,1722.0729999999999,241,5,1722.0731000000237,241,,,,1726.2136000000237,1726.7101000000237,1725.7106000000238,1726.2134999999998,1723.0743000000118,1725.7104000000356,1726.7101000000237,1727.2069999999999,1727.2069999999999,1729.1161000000236,1542,1729.1161000000236,3,1729.1204999999998,5,16,166,19,1,1.6,0.7,Time
,,328537,001,,,2025-06-04_14h55.23.145,Serial_Dependence_U,2023.2.3,Win32,163.93442622935177,,,,,,1729.1206000000236,86,5,1729.1208000000117,86,,,,1732.6915,1733.1881000000237,1732.1886000000236,1732.6914000000356,1730.1221000000237,1732.1886000000236,1733.1881000000237,1733.685,1733.685,1736.9029000000355,1360,1736.9029000000355,5,1736.9074000000355,5,17,167,1,1,1,0.3,Time
,,328537,001,,,2025-06-04_14h55.23.145,Serial_Dependence_U,2023.2.3,Win32,163.93442622935177,,,,,,1736.9074999999998,114,5,1736.9076000000236,114,,,,1741.0784000000356,1741.5749999999998,1740.5754000000356,1741.0784000000356,1737.9089999999999,1740.5754000000356,1741.5749999999998,1742.0719000000356,1742.072,1744.0476000000237,1529,1744.0476000000237,3,1744.0518000000118,5,18,168,14,1,1.6,0.3,Time
,,328537,001,,,2025-06-04_14h55.23.145,Serial_Dependence_U,2023.2.3,Win32,163.93442622935177,,,,,,1744.052,135,5,1744.0521000000238,135,,,,1747.5926999999879,1748.0894000000355,1747.089699999988,1747.5926999999879,1745.0536999999879,1747.089699999988,1748.0894000000355,1748.5863000000118,1748.5863000000118,1750.4469000000356,1576,1750.447,5,1750.451199999988,5,19,169,26,1,1,0.7,Time
,,328537,001,,,2025-06-04_14h55.23.145,Serial_Dependence_U,2023.2.3,Win32,163.93442622935177,,,,,,1750.4514000000356,91,5,1750.4515,91,,,,1754.0223000000117,1754.5189000000357,1753.5193000000118,1754.0221999999878,1751.4529000000357,1753.519199999988,1754.5189999999998,1755.0158000000117,1755.0158000000117,1761.1183000000117,1536,1761.1183000000117,5,1761.1224000000357,5,20,170,21,1,1,0.3,Time
,,328537,001,,,2025-06-04_14h55.23.145,Serial_Dependence_U,2023.2.3,Win32,163.93442622935177,,,,,,1761.1226000000238,152,5,1761.1226000000238,152,,,,1764.493699999988,1764.9904000000356,1763.9908000000119,1764.493699999988,1762.1244000000356,1763.9908000000119,1764.9904000000356,1765.4874000000357,1765.4875,1766.8629999999998,1057,1766.8631000000237,5,1766.8671999999879,5,21,171,10,1,0.8,0.3,Time
,,328537,001,,,2025-06-04_14h55.23.145,Serial_Dependence_U,2023.2.3,Win32,163.93442622935177,,,,,,1766.8674000000356,101,5,1766.8674000000356,101,,,,1770.4083000000119,1770.9048000000118,1769.9053000000117,1770.408199999988,1767.869199999988,1769.9053000000117,1770.9048000000118,1771.4018000000117,1771.4018000000117,1773.038199999988,1282,1773.038199999988,4,1773.042199999988,5,22,172,16,1,1,0.7,Time
,,328537,001,,,2025-06-04_14h55.23.145,Serial_Dependence_U,2023.2.3,Win32,163.93442622935177,,,,,,1773.0423000000117,115,5,1773.0424999999998,115,,,,1776.413699999988,1776.910199999988,1775.9106000000238,1776.413699999988,1774.0444000000357,1775.9105,1776.910199999988,1777.4071999999878,1777.4071999999878,1780.2191000000237,1308,1780.219199999988,5,1780.2234000000356,5,23,173,20,1,0.8,0.3,Time
,,328537,001,,,2025-06-04_14h55.23.145,Serial_Dependence_U,2023.2.3,Win32,163.93442622935177,,,,,,1780.2234999999998,143,5,1780.2236000000237,143,,,,1783.9946000000236,1784.4911999999879,1783.4914999999999,1783.9946000000236,1781.2251000000238,1783.4914999999999,1784.4911999999879,1784.9879999999998,1784.9879999999998,1786.8608000000117,1315,1786.8608000000117,4,1786.864699999988,5,24,174,22,1,1.2,0.3,Time
,,328537,001,,,2025-06-04_14h55.23.145,Serial_Dependence_U,2023.2.3,Win32,163.93442622935177,,,,,,1786.8649000000355,39,5,1786.8649999999998,39,,,,1790.8058000000117,1791.3024000000355,1790.3029000000356,1790.8058000000117,1787.8668000000118,1790.3028000000118,1791.3024000000355,1791.7993000000117,1791.7993000000117,1793.8356000000238,1528,1793.8356000000238,4,1793.839699999988,5,25,175,8,1,1.4,0.7,Time
,,328537,001,,,2025-06-04_14h55.23.145,Serial_Dependence_U,2023.2.3,Win32,163.93442622935177,,,,,,1793.8398000000118,25,5,1793.8399000000356,25,,,,1797.780699999988,1798.2774000000356,1797.2778000000117,1797.780699999988,1794.841699999988,1797.2778000000117,1798.2774000000356,1798.774199999988,1798.7743000000119,1801.0226000000237,1572,1801.022699999988,4,1801.0266999999878,5,26,176,28,1,1.4,0.7,Time
,,328537,001,,,2025-06-04_14h55.23.145,Serial_Dependence_U,2023.2.3,Win32,163.93442622935177,,,,,,1801.0269000000355,38,5,1801.0269000000355,38,,,,1805.1979999999999,1805.6948000000118,1804.6953000000117,1805.1979999999999,1802.028699999988,1804.6953000000117,1805.6948000000118,1806.1915,1806.1915,1822.8201000000238,1757,1822.8201000000238,4,1822.8245,5,27,177,4,1,1.6,0.3,Time
,,328537,001,,,2025-06-04_14h55.23.145,Serial_Dependence_U,2023.2.3,Win32,163.93442622935177,,,,,,1822.8248000000117,232,5,1822.8248000000117,232,,,,1826.3954999999999,1826.8921000000237,1825.8926000000238,1826.3954999999999,1823.826199999988,1825.8926000000238,1826.892199999988,1827.3891000000237,1827.3891000000237,1829.104199999988,1297,1829.104199999988,4,1829.108699999988,5,28,178,11,1,1,0.3,Time
,,328537,001,,,2025-06-04_14h55.23.145,Serial_Dependence_U,2023.2.3,Win32,163.93442622935177,,,,,,1829.1089000000356,147,5,1829.109,147,,,,1832.8796000000236,1833.3761999999879,1832.3766000000237,1832.8796000000236,1830.1103000000119,1832.3766000000237,1833.3761999999879,1833.873199999988,1833.873199999988,1835.867,1613,1835.867,5,1835.8711000000237,5,29,179,2,1,1.2,0.3,Time
,,328537,001,,,2025-06-04_14h55.23.145,Serial_Dependence_U,2023.2.3,Win32,163.93442622935177,,,,,,1835.8714000000357,32,6,1837.7818000000118,32,s,1.901600000023791,,1841.9513000000118,1842.4536000000237,1841.4481999999878,1841.9513000000118,1838.7819000000356,1841.4481999999878,1842.4536000000237,1842.9509000000355,1842.9509000000355,1845.1325,1475,1845.1325,2,1845.136699999988,6,0,180,24,1,1.6,0.3,Time
,,328537,001,,,2025-06-04_14h55.23.145,Serial_Dependence_U,2023.2.3,Win32,163.93442622935177,,,,,,1845.1369000000357,238,6,1845.1375,238,,,,1848.908,1849.404600000024,1848.4050000000002,1848.9079000000356,1846.1399000000358,1848.4050000000002,1849.404600000024,1849.9015,1849.9015,1852.386199999988,1554,1852.386199999988,4,1852.3901000000237,6,1,181,22,1,1.2,0.3,Time
,,328537,001,,,2025-06-04_14h55.23.145,Serial_Dependence_U,2023.2.3,Win32,163.93442622935177,,,,,,1852.3903000000118,334,6,1852.3903000000118,334,,,,1855.7556999999883,1856.252300000012,1855.252800000012,1855.755600000024,1853.3923000000118,1855.252800000012,1856.252300000012,1856.7491999999884,1856.7491999999884,1858.6461999999883,1195,1858.6461999999883,5,1858.6501999999882,6,2,182,0,1,0.8,0.3,Time
,,328537,001,,,2025-06-04_14h55.23.145,Serial_Dependence_U,2023.2.3,Win32,163.93442622935177,,,,,,1858.650300000012,21,6,1858.6505000000002,21,,,,1862.1911999999884,1862.6879000000358,1861.688400000036,1862.1911999999884,1859.6521999999882,1861.688300000012,1862.688,1863.1848000000118,1863.1848000000118,1865.808900000036,1650,1865.808900000036,5,1865.813,6,3,183,16,1,1,0.7,Time
,,328537,001,,,2025-06-04_14h55.23.145,Serial_Dependence_U,2023.2.3,Win32,163.93442622935177,,,,,,1865.813100000024,111,6,1865.8131999999882,111,,,,1869.754,1870.250600000024,1869.251100000024,1869.754,1866.8149000000358,1869.251100000024,1870.250600000024,1870.7476000000238,1870.7476000000238,1872.596,1639,1872.596,4,1872.5998000000118,6,4,184,28,1,1.4,0.7,Time
,,328537,001,,,2025-06-04_14h55.23.145,Serial_Dependence_U,2023.2.3,Win32,163.93442622935177,,,,,,1872.5999000000356,335,6,1872.6,335,,,,1875.965400000036,1876.4621000000238,1875.4624000000358,1875.9653000000121,1873.6019999999999,1875.4624000000358,1876.4621000000238,1876.9590000000003,1876.9590000000003,1878.110600000024,871,1878.110600000024,4,1878.1145000000001,6,5,185,10,1,0.8,0.3,Time
,,328537,001,,,2025-06-04_14h55.23.145,Serial_Dependence_U,2023.2.3,Win32,163.93442622935177,,,,,,1878.114800000012,114,6,1878.114800000012,114,,,,1881.8556999999882,1882.352199999988,1881.352699999988,1881.855600000024,1879.1165,1881.352699999988,1882.3523000000118,1882.849100000024,1882.849100000024,1885.1218000000122,1680,1885.121900000036,5,1885.1260000000002,6,6,186,27,1,1.2,0.7,Time
,,328537,001,,,2025-06-04_14h55.23.145,Serial_Dependence_U,2023.2.3,Win32,163.93442622935177,,,,,,1885.1261999999883,63,6,1885.1263000000122,63,,,,1888.8974000000358,1889.393800000012,1888.3941999999884,1888.8974000000358,1886.127800000012,1888.3941999999884,1889.393800000012,1889.890699999988,1889.890699999988,1926.5229000000359,1312,1926.5230000000001,4,1926.5271999999882,6,7,187,2,1,1.2,0.3,Time
,,328537,001,,,2025-06-04_14h55.23.145,Serial_Dependence_U,2023.2.3,Win32,163.93442622935177,,,,,,1926.5274000000359,330,6,1926.5275000000001,330,,,,1930.6680000000001,1931.1646000000237,1930.165,1930.6679000000358,1927.529,1930.165,1931.1646000000237,1931.6615000000002,1931.6615000000002,1934.061400000036,1916,1934.0615000000003,4,1934.0656999999883,6,8,188,19,1,1.6,0.7,Time
,,328537,001,,,2025-06-04_14h55.23.145,Serial_Dependence_U,2023.2.3,Win32,163.93442622935177,,,,,,1934.0658000000121,99,6,1934.065900000036,99,,,,1938.0368000000121,1938.5335,1937.533800000012,1938.0368000000121,1935.0675,1937.533800000012,1938.5335,1939.030400000036,1939.030400000036,1941.0243000000119,1678,1941.0244000000357,4,1941.0284000000356,6,9,189,23,1,1.4,0.3,Time
,,328537,001,,,2025-06-04_14h55.23.145,Serial_Dependence_U,2023.2.3,Win32,163.93442622935177,,,,,,1941.0286000000237,77,6,1941.028699999988,77,,,,1945.199600000024,1945.696199999988,1944.6966999999881,1945.199600000024,1942.0301999999883,1944.6966000000239,1945.696199999988,1946.193100000024,1946.193100000024,1948.386900000036,1896,1948.3870000000002,4,1948.391,6,10,190,14,1,1.6,0.3,Time
,,328537,001,,,2025-06-04_14h55.23.145,Serial_Dependence_U,2023.2.3,Win32,163.93442622935177,,,,,,1948.391100000024,120,6,1948.391300000012,120,,,,1951.938300000012,1952.4348000000118,1951.432100000024,1951.938300000012,1949.3931000000239,1951.432100000024,1952.4348000000118,1952.9316999999883,1952.9318000000121,1954.9014000000357,1601,1954.9014000000357,5,1954.905400000036,6,11,191,26,1,1,0.7,Time
,,328537,001,,,2025-06-04_14h55.23.145,Serial_Dependence_U,2023.2.3,Win32,163.93442622935177,,,,,,1954.9056000000237,289,6,1954.905699999988,289,,,,1958.246600000024,1958.7431000000238,1957.7435,1958.2465000000002,1955.907400000036,1957.7435,1958.7431000000238,1959.2400000000002,1959.2400000000002,1960.525,998,1960.525,4,1960.529,6,12,192,15,1,0.8,0.7,Time
,,328537,001,,,2025-06-04_14h55.23.145,Serial_Dependence_U,2023.2.3,Win32,163.93442622935177,,,,,,1960.5291000000238,64,6,1960.5291999999881,64,,,,1964.663900000036,1965.1605,1964.161,1964.663900000036,1961.525,1964.161,1965.1605,1965.6575000000003,1965.6575000000003,1967.9665,1964,1967.9666000000238,4,1967.970699999988,6,13,193,29,1,1.6,0.7,Time
,,328537,001,,,2025-06-04_14h55.23.145,Serial_Dependence_U,2023.2.3,Win32,163.93442622935177,,,,,,1967.9708000000119,299,6,1967.9709000000357,299,,,,1972.1115,1972.608100000024,1971.6086000000241,1972.1115,1968.9724999999999,1971.6085000000003,1972.608100000024,1973.1051000000239,1973.1051000000239,1975.3716999999883,1884,1975.3716999999883,4,1975.3756999999882,6,14,194,9,1,1.6,0.7,Time
,,328537,001,,,2025-06-04_14h55.23.145,Serial_Dependence_U,2023.2.3,Win32,163.93442622935177,,,,,,1975.375900000036,291,6,1975.375900000036,291,,,,1979.341,1979.837800000012,1978.8385000000003,1979.341,1976.3776999999882,1978.838400000036,1979.837800000012,1980.3345,1980.3345,1982.455800000012,2073,1982.4559000000359,5,1982.459800000012,6,15,195,13,1,1.4,0.3,Time
,,328537,001,,,2025-06-04_14h55.23.145,Serial_Dependence_U,2023.2.3,Win32,163.93442622935177,,,,,,1982.46,328,6,1982.4601000000239,328,,,,1986.031,1986.5278000000121,1985.5283000000122,1986.031,1983.461699999988,1985.5281999999884,1986.5278000000121,1987.0246999999881,1987.0246999999881,1989.0065,1532,1989.0066000000238,5,1989.0106000000237,6,16,196,11,1,1,0.3,Time
,,328537,001,,,2025-06-04_14h55.23.145,Serial_Dependence_U,2023.2.3,Win32,163.93442622935177,,,,,,1989.0108000000118,98,6,1989.0109000000357,98,,,,1992.9818000000118,1993.4785000000002,1992.4788000000121,1992.9818000000118,1990.0125000000003,1992.4788000000121,1993.4785000000002,1993.9756999999881,1993.975800000012,1995.8299000000357,1574,1995.83,4,1995.8341000000241,6,17,197,3,1,1.4,0.3,Time
,,328537,001,,,2025-06-04_14h55.23.145,Serial_Dependence_U,2023.2.3,Win32,163.93442622935177,,,,,,1995.8343000000118,238,6,1995.8344000000357,238,,,,1999.605300000012,2000.101900000036,1999.1024000000357,1999.6051999999881,1996.835900000036,1999.1023000000118,2000.101900000036,2000.598800000012,2000.598800000012,2002.0776000000237,1225,2002.0776000000237,3,2002.081600000024,6,18,198,12,1,1.2,0.3,Time
,,328537,001,,,2025-06-04_14h55.23.145,Serial_Dependence_U,2023.2.3,Win32,163.93442622935177,,,,,,2002.0818000000122,254,6,2002.081900000036,254,,,,2005.653100000024,2006.1496000000238,2005.150100000024,2005.6530000000002,2003.083600000024,2005.15,2006.1496000000238,2006.6465000000003,2006.6465000000003,2008.5193000000122,1561,2008.5193000000122,5,2008.523400000036,6,19,199,21,1,1,0.3,Time
,,328537,001,,,2025-06-04_14h55.23.145,Serial_Dependence_U,2023.2.3,Win32,163.93442622935177,,,,,,2008.523600000024,231,6,2008.523600000024,231,,,,2011.864300000012,2012.3611000000237,2011.3615,2011.864300000012,2009.525300000012,2011.3614000000357,2012.3611000000237,2012.8580000000002,2012.8580000000002,2014.421699999988,1303,2014.421699999988,5,2014.4259000000357,6,20,200,5,1,0.8,0.7,Time
,,328537,001,,,2025-06-04_14h55.23.145,Serial_Dependence_U,2023.2.3,Win32,163.93442622935177,,,,,,2014.4261000000238,293,6,2014.426199999988,293,,,,2017.991,2018.487600000024,2017.4881000000241,2017.991,2015.4275000000002,2017.4881000000241,2018.487600000024,2018.9845,2018.9845,2020.784600000024,1442,2020.784600000024,5,2020.7885,6,21,201,1,1,1,0.3,Time
,,328537,001,,,2025-06-04_14h55.23.145,Serial_Dependence_U,2023.2.3,Win32,163.93442622935177,,,,,,2020.7886999999882,153,6,2020.7886999999882,153,,,,2024.159900000036,2024.6566999999882,2023.657100000024,2024.1598000000122,2021.7905,2023.657100000024,2024.656800000012,2025.1534000000356,2025.1534000000356,2026.8504000000357,1335,2026.8504000000357,5,2026.8545,6,22,202,20,1,0.8,0.3,Time
,,328537,001,,,2025-06-04_14h55.23.145,Serial_Dependence_U,2023.2.3,Win32,163.93442622935177,,,,,,2026.854699999988,139,6,2026.854699999988,139,,,,2030.7955000000002,2031.2921000000238,2030.2925,2030.795400000036,2027.856400000036,2030.2925,2031.292199999988,2031.789100000024,2031.789100000024,2033.7890000000002,1571,2033.7890000000002,4,2033.7931999999882,6,23,203,18,1,1.4,0.7,Time
,,328537,001,,,2025-06-04_14h55.23.145,Serial_Dependence_U,2023.2.3,Win32,163.93442622935177,,,,,,2033.793400000036,211,6,2033.793400000036,211,,,,2037.534100000024,2038.030699999988,2037.031199999988,2037.534100000024,2034.795,2037.0311000000238,2038.0308000000118,2038.527600000024,2038.5276999999883,2040.6185,1666,2040.6185,5,2040.6225,6,24,204,17,1,1.2,0.7,Time
,,328537,001,,,2025-06-04_14h55.23.145,Serial_Dependence_U,2023.2.3,Win32,163.93442622935177,,,,,,2040.622699999988,230,6,2040.622800000012,230,,,,2044.163600000024,2044.6603000000118,2043.660699999988,2044.1635,2041.6245,2043.6606000000238,2044.6603000000118,2045.157100000024,2045.1571999999883,2047.823699999988,1363,2047.823699999988,5,2047.8278000000118,6,25,205,6,1,1,0.7,Time
,,328537,001,,,2025-06-04_14h55.23.145,Serial_Dependence_U,2023.2.3,Win32,163.93442622935177,,,,,,2047.8279000000357,174,6,2047.828,174,,,,2051.999100000024,2052.495600000024,2051.496100000024,2051.9990000000003,2048.829800000012,2051.496,2052.495699999988,2052.987900000036,2052.987900000036,2054.762300000012,1458,2054.762300000012,2,2054.766199999988,6,26,206,4,1,1.6,0.3,Time
,,328537,001,,,2025-06-04_14h55.23.145,Serial_Dependence_U,2023.2.3,Win32,163.93442622935177,,,,,,2054.766300000012,255,6,2054.766400000036,255,,,,2058.507300000012,2059.0039000000356,2058.0044000000357,2058.507199999988,2055.768300000012,2058.004300000012,2059.0039000000356,2059.500900000036,2059.500900000036,2061.622100000024,1637,2061.622199999988,5,2061.6261999999883,6,27,207,7,1,1.2,0.7,Time
,,328537,001,,,2025-06-04_14h55.23.145,Serial_Dependence_U,2023.2.3,Win32,163.93442622935177,,,,,,2061.626400000036,100,6,2061.6265000000003,100,,,,2065.567100000024,2066.063800000012,2065.064199999988,2065.567100000024,2062.628100000024,2065.0641000000237,2066.063900000036,2066.560600000024,2066.560600000024,2070.0635,1777,2070.0635,4,2070.0676999999882,6,28,208,8,1,1.4,0.7,Time
,,328537,001,,,2025-06-04_14h55.23.145,Serial_Dependence_U,2023.2.3,Win32,163.93442622935177,,,,,,2070.067900000036,305,6,2070.067900000036,305,,,,2073.408600000024,2073.905300000012,2072.9056000000237,2073.4085,2071.0695,2072.9055000000003,2073.905300000012,2074.402100000024,2074.402100000024,2076.177900000036,1524,2076.177900000036,5,2076.1816999999883,6,29,209,25,1,0.8,0.7,Time
,,328537,001,,,2025-06-04_14h55.23.145,Serial_Dependence_U,2023.2.3,Win32,163.93442622935177,,,,,,2076.181800000012,353,7,2100.1935,353,s,24.00639999997611,,2103.756600000024,2104.2531999999883,2103.253600000024,2103.7565,2101.1931999999883,2103.253600000024,2104.2531999999883,2104.750100000024,2104.750100000024,2106.683400000036,1381,2106.683400000036,5,2106.687699999988,7,0,210,11,1,1,0.3,Time
,,328537,001,,,2025-06-04_14h55.23.145,Serial_Dependence_U,2023.2.3,Win32,163.93442622935177,,,,,,2106.687900000036,201,7,2106.688600000024,201,,,,2110.258699999988,2110.755400000036,2109.755900000036,2110.258699999988,2107.6894000000357,2109.755800000012,2110.755400000036,2111.252300000012,2111.252300000012,2112.925,1323,2112.925100000024,5,2112.929100000024,7,1,211,21,1,1,0.3,Time
,,328537,001,,,2025-06-04_14h55.23.145,Serial_Dependence_U,2023.2.3,Win32,163.93442622935177,,,,,,2112.929199999988,117,7,2112.929300000012,117,,,,2116.3005000000003,2116.797100000024,2115.7975,2116.300400000036,2113.931100000024,2115.7975,2116.797100000024,2117.294,2117.294,2118.963100000024,1284,2118.963100000024,5,2118.967,7,2,212,10,1,0.8,0.3,Time
,,328537,001,,,2025-06-04_14h55.23.145,Serial_Dependence_U,2023.2.3,Win32,163.93442622935177,,,,,,2118.967199999988,308,7,2118.967300000012,308,,,,2122.53,2123.026699999988,2122.027100000024,2122.53,2119.966699999988,2122.027,2123.026699999988,2123.5235000000002,2123.523600000024,2151.0901999999883,1363,2151.090300000012,5,2151.094400000036,7,3,213,1,1,1,0.3,Time
,,328537,001,,,2025-06-04_14h55.23.145,Serial_Dependence_U,2023.2.3,Win32,163.93442622935177,,,,,,2151.0945,305,7,2151.094600000024,305,,,,2155.235300000012,2155.731800000012,2154.732300000012,2155.235300000012,2152.096300000012,2154.732300000012,2155.731800000012,2156.228800000012,2156.228800000012,2170.081800000012,1381,2170.081900000036,2,2170.086300000012,7,4,214,29,1,1.6,0.7,Time
,,328537,001,,,2025-06-04_14h55.23.145,Serial_Dependence_U,2023.2.3,Win32,163.93442622935177,,,,,,2170.086400000036,317,7,2170.0865,317,,,,2174.027100000024,2174.5244000000357,2173.524,2174.027,2171.087900000036,2173.524,2174.5244000000357,2175.0205,2175.0205,2177.184100000024,1654,2177.1841999999883,4,2177.188600000024,7,5,215,18,1,1.4,0.7,Time
,,328537,001,,,2025-06-04_14h55.23.145,Serial_Dependence_U,2023.2.3,Win32,163.93442622935177,,,,,,2177.188900000036,168,7,2177.188900000036,168,,,,2181.3594000000357,2181.856100000024,2180.856400000036,2181.3594000000357,2178.19,2180.856400000036,2181.856100000024,2182.352900000036,2182.352900000036,2184.322600000024,1637,2184.322600000024,3,2184.326800000012,7,6,216,14,1,1.6,0.3,Time
,,328537,001,,,2025-06-04_14h55.23.145,Serial_Dependence_U,2023.2.3,Win32,163.93442622935177,,,,,,2184.327,349,7,2184.327,349,,,,2187.667699999988,2188.164300000012,2187.164800000012,2187.667699999988,2185.328600000024,2187.164800000012,2188.164300000012,2188.661400000036,2188.661400000036,2189.728,970,2189.728100000024,4,2189.7325,7,7,217,15,1,0.8,0.7,Time
,,328537,001,,,2025-06-04_14h55.23.145,Serial_Dependence_U,2023.2.3,Win32,163.93442622935177,,,,,,2189.732699999988,187,7,2189.732699999988,187,,,,2193.5035000000003,2194.000100000024,2193.0005,2193.503400000036,2190.734100000024,2193.000400000036,2194.000100000024,2194.4970000000003,2194.4970000000003,2196.430199999988,1663,2196.430199999988,5,2196.4341999999883,7,8,218,22,1,1.2,0.3,Time
,,328537,001,,,2025-06-04_14h55.23.145,Serial_Dependence_U,2023.2.3,Win32,163.93442622935177,,,,,,2196.434400000036,123,7,2196.4345000000003,123,,,,2200.205800000012,2200.702300000012,2199.702699999988,2200.205699999988,2197.4361999999883,2199.7026000000237,2200.702300000012,2201.199199999988,2201.199199999988,2203.1204000000357,1623,2203.1204000000357,5,2203.1244000000356,7,9,219,12,1,1.2,0.3,Time
,,328537,001,,,2025-06-04_14h55.23.145,Serial_Dependence_U,2023.2.3,Win32,163.93442622935177,,,,,,2203.1246000000237,216,7,2203.124699999988,216,,,,2206.4655000000002,2206.962400000036,2205.962600000024,2206.465400000036,2204.126400000036,2205.962600000024,2206.962400000036,2207.4590000000003,2207.459100000024,2209.107600000024,1261,2209.107699999988,5,2209.111900000036,7,10,220,5,1,0.8,0.7,Time
,,328537,001,,,2025-06-04_14h55.23.145,Serial_Dependence_U,2023.2.3,Win32,163.93442622935177,,,,,,2209.112,306,7,2209.112100000024,306,,,,2212.852600000024,2213.349300000012,2212.349699999988,2212.852600000024,2210.1135,2212.349600000024,2213.349400000036,2213.846100000024,2213.846199999988,2215.506800000012,1418,2215.506900000036,4,2215.511100000024,7,11,221,7,1,1.2,0.7,Time
,,328537,001,,,2025-06-04_14h55.23.145,Serial_Dependence_U,2023.2.3,Win32,163.93442622935177,,,,,,2215.511300000012,268,7,2215.511300000012,268,,,,2219.276199999988,2219.772800000012,2218.7731999999883,2219.276199999988,2216.512800000012,2218.773100000024,2219.772800000012,2220.269699999988,2220.269800000012,2222.0154000000357,1458,2222.0154000000357,4,2222.0196000000237,7,12,222,2,1,1.2,0.3,Time
,,328537,001,,,2025-06-04_14h55.23.145,Serial_Dependence_U,2023.2.3,Win32,163.93442622935177,,,,,,2222.019699999988,194,7,2222.019800000012,194,,,,2225.384600000024,2225.881199999988,2224.8815,2225.3845,2223.021100000024,2224.8815,2225.881199999988,2226.378,2226.378,2227.681100000024,914,2227.681100000024,4,2227.685600000024,7,13,223,20,1,0.8,0.3,Time
,,328537,001,,,2025-06-04_14h55.23.145,Serial_Dependence_U,2023.2.3,Win32,163.93442622935177,,,,,,2227.685800000012,124,7,2227.685800000012,124,,,,2231.426199999988,2231.922800000012,2230.923300000012,2231.426199999988,2228.687199999988,2230.9231999999884,2231.922800000012,2232.419800000012,2232.419800000012,2233.753400000036,1094,2233.753400000036,2,2233.7576999999883,7,14,224,17,1,1.2,0.7,Time
,,328537,001,,,2025-06-04_14h55.23.145,Serial_Dependence_U,2023.2.3,Win32,163.93442622935177,,,,,,2233.757800000012,324,7,2233.757900000036,324,,,,2237.498199999988,2237.994900000036,2236.995300000012,2237.498199999988,2234.759199999988,2236.995300000012,2237.994900000036,2238.491800000012,2238.491800000012,2240.231100000024,1462,2240.2311999999883,4,2240.2351999999883,7,15,225,27,1,1.2,0.7,Time
,,328537,001,,,2025-06-04_14h55.23.145,Serial_Dependence_U,2023.2.3,Win32,163.93442622935177,,,,,,2240.2355000000002,236,7,2240.2355000000002,236,,,,2243.776199999988,2244.272900000036,2243.273400000036,2243.776199999988,2241.237199999988,2243.273300000012,2244.272900000036,2244.769800000012,2244.7699000000357,2246.6425,1535,2246.642600000024,5,2246.646800000012,7,16,226,16,1,1,0.7,Time
,,328537,001,,,2025-06-04_14h55.23.145,Serial_Dependence_U,2023.2.3,Win32,163.93442622935177,,,,,,2246.6469000000357,108,7,2246.647,108,,,,2250.187600000024,2250.684300000012,2249.684600000024,2250.1875,2247.6485000000002,2249.684600000024,2250.684300000012,2251.181199999988,2251.181199999988,2253.562900000036,1829,2253.562900000036,5,2253.567300000012,7,17,227,6,1,1,0.7,Time
,,328537,001,,,2025-06-04_14h55.23.145,Serial_Dependence_U,2023.2.3,Win32,163.93442622935177,,,,,,2253.567400000036,254,7,2253.5675,254,,,,2257.538300000012,2258.034900000036,2257.0354000000357,2257.538199999988,2254.5689000000357,2257.035300000012,2258.034900000036,2258.531800000012,2258.531800000012,2260.204600000024,1345,2260.204600000024,3,2260.208900000036,7,18,228,13,1,1.4,0.3,Time
,,328537,001,,,2025-06-04_14h55.23.145,Serial_Dependence_U,2023.2.3,Win32,163.93442622935177,,,,,,2260.209100000024,272,7,2260.209199999988,272,,,,2264.3495000000003,2264.846199999988,2263.846600000024,2264.3495000000003,2261.210400000036,2263.846600000024,2264.846199999988,2265.343199999988,2265.343199999988,2267.5976000000237,1776,2267.5976000000237,4,2267.601800000012,7,19,229,9,1,1.6,0.7,Time
,,328537,001,,,2025-06-04_14h55.23.145,Serial_Dependence_U,2023.2.3,Win32,163.93442622935177,,,,,,2267.602,138,7,2267.602,138,,,,2271.772900000036,2272.2695,2271.27,2271.772900000036,2268.6035,2271.2699000000357,2272.2695,2272.7665,2272.7665,2275.245199999988,2104,2275.245199999988,5,2275.2495,7,20,230,24,1,1.6,0.3,Time
,,328537,001,,,2025-06-04_14h55.23.145,Serial_Dependence_U,2023.2.3,Win32,163.93442622935177,,,,,,2275.249699999988,109,7,2275.249800000012,109,,,,2278.7905,2279.286900000036,2278.287300000012,2278.790400000036,2276.2511999999883,2278.287300000012,2279.286900000036,2279.783800000012,2279.783800000012,2282.062600000024,1832,2282.062600000024,5,2282.0669000000357,7,21,231,26,1,1,0.7,Time
,,328537,001,,,2025-06-04_14h55.23.145,Serial_Dependence_U,2023.2.3,Win32,163.93442622935177,,,,,,2282.067,354,7,2282.067100000024,354,,,,2286.038,2286.535800000012,2285.535,2286.0379000000357,2283.0685,2285.534900000036,2286.535800000012,2287.0315,2287.0315,2288.783,1434,2288.783,3,2288.7875,7,22,232,3,1,1.4,0.3,Time
,,328537,001,,,2025-06-04_14h55.23.145,Serial_Dependence_U,2023.2.3,Win32,163.93442622935177,,,,,,2288.787699999988,315,7,2288.787699999988,315,,,,2292.927900000036,2293.424699999988,2292.425100000024,2292.927900000036,2289.789,2292.425,2293.424699999988,2293.921699999988,2293.921699999988,2296.0306000000237,1893,2296.0306000000237,4,2296.034800000012,7,23,233,19,1,1.6,0.7,Time
,,328537,001,,,2025-06-04_14h55.23.145,Serial_Dependence_U,2023.2.3,Win32,163.93442622935177,,,,,,2296.034900000036,125,7,2296.035,125,,,,2299.975699999988,2300.472300000012,2299.472699999988,2299.975600000024,2297.036600000024,2299.472699999988,2300.472300000012,2300.969300000012,2300.969300000012,2303.2479000000358,1836,2303.2479000000358,5,2303.252,7,24,234,8,1,1.4,0.7,Time
,,328537,001,,,2025-06-04_14h55.23.145,Serial_Dependence_U,2023.2.3,Win32,163.93442622935177,,,,,,2303.252199999988,161,7,2303.252300000012,161,,,,2307.223300000012,2307.719900000036,2306.720300000012,2307.223199999988,2304.254,2306.7201999999884,2307.7200000000003,2308.216800000012,2308.216800000012,2310.1016999999883,1582,2310.1016999999883,4,2310.1056999999882,7,25,235,23,1,1.4,0.3,Time
,,328537,001,,,2025-06-04_14h55.23.145,Serial_Dependence_U,2023.2.3,Win32,163.93442622935177,,,,,,2310.105900000036,190,7,2310.105900000036,190,,,,2313.471100000024,2313.967600000024,2312.9681000000237,2313.471,2311.1075,2312.9681000000237,2313.9676999999883,2314.464600000024,2314.464600000024,2316.082900000036,1597,2316.083,5,2316.086699999988,7,26,236,0,1,0.8,0.3,Time
,,328537,001,,,2025-06-04_14h55.23.145,Serial_Dependence_U,2023.2.3,Win32,163.93442622935177,,,,,,2316.087,155,7,2316.087,155,,,,2319.427900000036,2319.9245,2318.924900000036,2319.427800000012,2317.088800000012,2318.924900000036,2319.9245,2320.4215,2320.4215,2324.8271999999884,974,2324.8271999999884,4,2324.831400000036,7,27,237,25,1,0.8,0.7,Time
,,328537,001,,,2025-06-04_14h55.23.145,Serial_Dependence_U,2023.2.3,Win32,163.93442622935177,,,,,,2324.8315000000002,319,7,2324.831600000024,319,,,,2329.0025,2329.4991999999884,2328.4995,2329.0025,2325.833199999988,2328.4994000000356,2329.4991999999884,2329.996100000024,2329.996100000024,2332.0385,1721,2332.0385,4,2332.0425,7,28,238,4,1,1.6,0.3,Time
,,328537,001,,,2025-06-04_14h55.23.145,Serial_Dependence_U,2023.2.3,Win32,163.93442622935177,,,,,,2332.042699999988,137,7,2332.042699999988,137,,,,2335.9835000000003,2336.480100000024,2335.480600000024,2335.983400000036,2333.0445,2335.480600000024,2336.480100000024,2336.977,2336.977,2339.195100000024,1548,2339.195100000024,4,2339.199100000024,7,29,239,28,1,1.4,0.7,Time
,,328537,001,,,2025-06-04_14h55.23.145,Serial_Dependence_U,2023.2.3,Win32,163.93442622935177,,,,,,2339.199300000012,175,8,2592.514800000012,175,s,253.30569999998806,,2595.886900000036,2596.382600000024,2595.3830000000003,2595.886800000012,2593.516600000024,2595.3830000000003,2596.382600000024,2596.879600000024,2596.879600000024,2598.400800000012,1146,2598.400900000036,5,2598.405,8,0,240,20,1,0.8,0.3,Time
,,328537,001,,,2025-06-04_14h55.23.145,Serial_Dependence_U,2023.2.3,Win32,163.93442622935177,,,,,,2598.405100000024,148,8,2598.406199999988,148,,,,2602.145800000012,2602.6425,2601.6429000000358,2602.145800000012,2599.406800000012,2601.642800000012,2602.6425,2603.139400000036,2603.139400000036,2605.2545,1542,2605.2545,4,2605.2585,8,1,241,17,1,1.2,0.7,Time
,,328537,001,,,2025-06-04_14h55.23.145,Serial_Dependence_U,2023.2.3,Win32,163.93442622935177,,,,,,2605.258800000012,167,8,2605.258800000012,167,,,,2609.429800000012,2609.9264000000358,2608.926900000036,2609.429800000012,2606.2605,2608.926800000012,2609.9264000000358,2610.423300000012,2610.423400000036,2613.126300000012,1770,2613.126300000012,4,2613.1305,8,2,242,4,1,1.6,0.3,Time
,,328537,001,,,2025-06-04_14h55.23.145,Serial_Dependence_U,2023.2.3,Win32,163.93442622935177,,,,,,2613.1306999999883,110,8,2613.130800000012,110,,,,2616.671300000012,2617.168,2616.168400000036,2616.671300000012,2614.132300000012,2616.168400000036,2617.168,2617.6649000000357,2617.6649000000357,2619.561800000012,1338,2619.562,5,2619.565900000036,8,3,243,6,1,1,0.7,Time
,,328537,001,,,2025-06-04_14h55.23.145,Serial_Dependence_U,2023.2.3,Win32,163.93442622935177,,,,,,2619.5660000000003,35,8,2619.566100000024,35,,,,2623.507,2624.0035000000003,2623.004,2623.506900000036,2620.567800000012,2623.0039000000356,2624.0035000000003,2624.5005,2624.5005,2626.7065000000002,1772,2626.7065000000002,4,2626.7106999999883,8,4,244,28,1,1.4,0.7,Time
,,328537,001,,,2025-06-04_14h55.23.145,Serial_Dependence_U,2023.2.3,Win32,163.93442622935177,,,,,,2626.710800000012,94,8,2626.7110000000002,94,,,,2630.675800000012,2631.172400000036,2630.172900000036,2630.675699999988,2627.7066999999884,2630.172800000012,2631.172400000036,2631.6694000000357,2631.6694000000357,2633.778699999988,1710,2633.778699999988,4,2633.782600000024,8,5,245,13,1,1.4,0.3,Time
,,328537,001,,,2025-06-04_14h55.23.145,Serial_Dependence_U,2023.2.3,Win32,163.93442622935177,,,,,,2633.7826999999884,247,8,2633.782800000012,247,,,,2637.1235,2637.6201000000237,2636.6205,2637.123400000036,2634.784400000036,2636.6205,2637.6201000000237,2638.117,2638.117100000024,2639.608,1138,2639.608,5,2639.612,8,6,246,25,1,0.8,0.7,Time
,,328537,001,,,2025-06-04_14h55.23.145,Serial_Dependence_U,2023.2.3,Win32,163.93442622935177,,,,,,2639.612199999988,146,8,2639.612199999988,146,,,,2642.978100000024,2643.474,2642.474400000036,2642.978,2640.614,2642.474400000036,2643.474,2643.9709000000357,2643.9709000000357,2645.4255000000003,1212,2645.4255000000003,5,2645.4295,8,7,247,10,1,0.8,0.3,Time
,,328537,001,,,2025-06-04_14h55.23.145,Serial_Dependence_U,2023.2.3,Win32,163.93442622935177,,,,,,2645.4296999999883,185,8,2645.4296999999883,185,,,,2649.2009000000357,2649.697400000036,2648.697900000036,2649.2009000000357,2646.431400000036,2648.697900000036,2649.697400000036,2650.194400000036,2650.1945,2652.139800000012,1496,2652.139900000036,4,2652.143900000036,8,8,248,12,1,1.2,0.3,Time
,,328537,001,,,2025-06-04_14h55.23.145,Serial_Dependence_U,2023.2.3,Win32,163.93442622935177,,,,,,2652.144100000024,107,8,2652.1441999999884,107,,,,2655.484900000036,2655.9816000000237,2654.982,2655.484900000036,2653.145800000012,2654.9819000000357,2655.981699999988,2656.4785,2656.4785,2657.8725,1103,2657.872600000024,5,2657.8765000000003,8,9,249,5,1,0.8,0.7,Time
,,328537,001,,,2025-06-04_14h55.23.145,Serial_Dependence_U,2023.2.3,Win32,163.93442622935177,,,,,,2657.876699999988,191,8,2657.876800000012,191,,,,2661.441800000012,2661.938400000036,2660.9390000000003,2661.441699999988,2658.878400000036,2660.938900000036,2661.938400000036,2662.4354000000358,2662.4354000000358,2664.1326999999883,1345,2664.1326999999883,5,2664.136800000012,8,10,250,11,1,1,0.3,Time
,,328537,001,,,2025-06-04_14h55.23.145,Serial_Dependence_U,2023.2.3,Win32,163.93442622935177,,,,,,2664.136900000036,72,8,2664.137,72,,,,2667.9076999999884,2668.404300000012,2667.404699999988,2667.9076999999884,2665.138300000012,2667.404699999988,2668.404300000012,2668.901300000012,2668.901300000012,2670.5315,1395,2670.531600000024,4,2670.5355,8,11,251,2,1,1.2,0.3,Time
,,328537,001,,,2025-06-04_14h55.23.145,Serial_Dependence_U,2023.2.3,Win32,163.93442622935177,,,,,,2670.535600000024,46,8,2670.535600000024,46,,,,2674.276699999988,2674.773300000012,2673.7735000000002,2674.276699999988,2671.5375,2673.7735000000002,2674.773300000012,2675.270199999988,2675.270199999988,2677.1731999999884,1491,2677.173300000012,4,2677.177300000012,8,12,252,27,1,1.2,0.7,Time
,,328537,001,,,2025-06-04_14h55.23.145,Serial_Dependence_U,2023.2.3,Win32,163.93442622935177,,,,,,2677.1775000000002,223,8,2677.177600000024,223,,,,2680.942600000024,2681.439199999988,2680.439600000024,2680.9425,2678.179100000024,2680.4395,2681.439199999988,2681.936100000024,2681.936100000024,2683.723900000036,1441,2683.724,4,2683.728100000024,8,13,253,22,1,1.2,0.3,Time
