Scale_setup.started,Scale_setup.stopped,participant,session,sex,age,date,expName,psychopyVersion,OS,frameRate,Intro.started,Intro.stopped,key_resp_2.keys,key_resp_2.rt,key_resp_2.duration,block.started,direction,Block_id,block.stopped,trial_direction,Block_resp_2.keys,Block_resp_2.rt,Block_resp_2.duration,ITI.started,ITI.stopped,Mask_2.started,Mask_2.stopped,encoding.started,encoding.stopped,Cue.started,Cue.stopped,Response.started,Response.stopped,keyDuration,Feedback_Time.started,FeedbackID_T,Feedback_Time.stopped,trials.thisRepN,trials.thisTrialN,trials.thisN,trials.thisIndex,trials.ran,TimeDur,Coherence1,TrialType
0.0002999999523165542,0.0004999999999988347,349889,001,女,21,2025-06-03_19h37.20.068,Serial_Dependence_U,2023.2.3,Win32,59.880239520962,,,,,,,,,,,,,,,,,,,,,,,,,,,,,,,,,,,
,,349889,001,女,21,2025-06-03_19h37.20.068,Serial_Dependence_U,2023.2.3,Win32,59.880239520962,173.1629000000954,319.87890000009537,space,146.6705,,,,,,,,,,,,,,,,,,,,,,,,,,,,,,,
,,349889,001,女,21,2025-06-03_19h37.20.068,Serial_Dependence_U,2023.2.3,Win32,59.880239520962,,,,,,319.8954000000954,117,0,324.37870000004773,117,s,4.466600000143046,,328.1327000000477,328.6277000000477,327.6175,328.13259999990464,325.384,327.6172999999523,328.6282000000477,329.1302000000477,329.1304000000954,330.4665,816,330.4669000000954,1,331.46459999990464,0,0,0,7,1,1.2,0.7,Time
,,349889,001,女,21,2025-06-03_19h37.20.068,Serial_Dependence_U,2023.2.3,Win32,59.880239520962,,,,,,331.4650999999046,298,0,331.46609999990466,298,,,,335.01590000009537,335.5112000000477,334.49940000009536,335.01590000009537,332.4664000000954,334.49940000009536,335.5112999999523,336.0107999999523,336.011,337.55,1143,337.55009999990466,4,338.546,0,1,1,6,1,1,0.7,Time
,,349889,001,女,21,2025-06-03_19h37.20.068,Serial_Dependence_U,2023.2.3,Win32,59.880239520962,,,,,,338.54629999995234,65,0,338.54650000000004,65,,,,342.6987000000477,343.19779999995234,342.1822999999523,342.6985999999047,339.5492000000477,342.1822000000477,343.19779999995234,343.6937000000477,343.694,345.6155,1417,345.61559999990465,2,346.6102000000477,0,2,2,29,1,1.6,0.7,Time
,,349889,001,女,21,2025-06-03_19h37.20.068,Serial_Dependence_U,2023.2.3,Win32,59.880239520962,,,,,,346.61129999995234,199,0,346.6114000000954,199,,,,349.9985999999046,350.49350000000004,349.4819000000954,349.9985999999046,347.61529999995236,349.4819000000954,350.49359999990463,350.99329999995234,350.99350000000004,351.71540000009537,566,351.71540000009537,2,352.7144000000954,0,3,3,10,1,0.8,0.3,Time
,,349889,001,女,21,2025-06-03_19h37.20.068,Serial_Dependence_U,2023.2.3,Win32,59.880239520962,,,,,,352.71459999990464,181,0,352.71479999995233,181,,,,356.6982999999523,357.19300000000004,356.1814000000954,356.6982000000477,353.7149000000954,356.1814000000954,357.1932000000477,357.69709999990465,357.69709999990465,358.99809999990464,817,358.9982000000477,1,359.9932000000477,0,4,4,23,1,1.4,0.3,Time
,,349889,001,女,21,2025-06-03_19h37.20.068,Serial_Dependence_U,2023.2.3,Win32,59.880239520962,,,,,,359.994,175,0,359.9940999999047,175,,,,364.1477000000477,364.6429000000954,363.6310999999047,364.1477000000477,360.9982000000477,363.6309000000954,364.64300000000003,365.1429000000954,365.1430999999047,367.48129999995234,2217,367.48129999995234,5,368.4759000000954,0,5,5,19,1,1.6,0.7,Time
,,349889,001,女,21,2025-06-03_19h37.20.068,Serial_Dependence_U,2023.2.3,Win32,59.880239520962,,,,,,368.4767000000477,116,0,368.4769000000954,116,,,,372.66409999990464,373.16329999995236,372.1477000000477,372.66409999990464,369.48079999995235,372.1475999999046,373.16329999995236,373.6589000000954,373.65909999990464,374.49759999990465,800,374.49759999990465,1,375.492,0,6,6,24,1,1.6,0.3,Time
,,349889,001,女,21,2025-06-03_19h37.20.068,Serial_Dependence_U,2023.2.3,Win32,59.880239520962,,,,,,375.493,125,0,375.4932000000477,125,,,,379.0804000000954,379.57659999990466,378.5635999999046,379.08029999995233,376.49690000009537,378.56350000000003,379.57659999990466,380.0754000000954,380.07550000000003,381.73059999990465,1266,381.73059999990465,4,382.7249000000954,0,7,7,21,1,1,0.3,Time
,,349889,001,女,21,2025-06-03_19h37.20.068,Serial_Dependence_U,2023.2.3,Win32,59.880239520962,,,,,,382.726,163,0,382.7262000000477,163,,,,386.4795999999046,386.975,385.96340000009536,386.47950000000003,383.73009999990467,385.96340000009536,386.97509999990467,387.47929999995233,387.4794000000954,388.68009999990466,1183,388.68009999990466,3,389.67490000009536,0,8,8,17,1,1.2,0.7,Time
,,349889,001,女,21,2025-06-03_19h37.20.068,Serial_Dependence_U,2023.2.3,Win32,59.880239520962,,,,,,389.67579999995235,182,0,389.6759000000954,182,,,,393.02959999990463,393.52479999995234,392.5135,393.02950000000004,390.67990000009536,392.5134000000954,393.5249000000954,394.02479999995234,394.0250999999046,395.3645,651,395.36459999990467,2,396.358,0,9,9,25,1,0.8,0.7,Time
,,349889,001,女,21,2025-06-03_19h37.20.068,Serial_Dependence_U,2023.2.3,Win32,59.880239520962,,,,,,396.35909999990463,34,0,396.3592999999523,34,,,,400.31259999990465,400.8074000000954,399.796,400.3125,397.36259999990466,399.7959000000954,400.8075,401.3072000000477,401.3074000000954,403.47929999995233,1683,403.4794000000954,4,404.476,0,10,10,18,1,1.4,0.7,Time
,,349889,001,女,21,2025-06-03_19h37.20.068,Serial_Dependence_U,2023.2.3,Win32,59.880239520962,,,,,,404.4764000000954,303,0,404.47650000000004,303,,,,408.27609999990466,408.7739000000954,407.76229999995235,408.276,405.4949000000954,407.76229999995235,408.7739000000954,409.274,409.2742000000477,410.12890000009537,366,410.129,1,411.12350000000004,0,11,11,2,1,1.2,0.3,Time
,,349889,001,女,21,2025-06-03_19h37.20.068,Serial_Dependence_U,2023.2.3,Win32,59.880239520962,,,,,,411.1245,225,0,411.1247000000477,225,,,,414.71179999995235,415.20659999990465,414.19509999990464,414.71179999995235,412.12890000009537,414.195,415.20679999995235,415.7107000000477,415.7107000000477,417.6119000000954,1317,417.6119000000954,5,418.6064000000954,0,12,12,1,1,1,0.3,Time
,,349889,001,女,21,2025-06-03_19h37.20.068,Serial_Dependence_U,2023.2.3,Win32,59.880239520962,,,,,,418.6072999999523,258,0,418.6075,258,,,,422.39479999995234,422.89359999990467,421.87870000004773,422.3947000000477,419.61150000000004,421.87850000000003,422.8937000000477,423.3895,423.38959999990465,424.7447999999523,917,424.7449000000954,2,425.7414000000954,0,13,13,12,1,1.2,0.3,Time
,,349889,001,女,21,2025-06-03_19h37.20.068,Serial_Dependence_U,2023.2.3,Win32,59.880239520962,,,,,,425.7415999999046,47,0,425.7417999999523,47,,,,429.09429999995234,429.589,428.5779000000954,429.09429999995234,426.74459999990466,428.5779000000954,429.589,430.09059999990467,430.09059999990467,431.22790000009536,967,431.22790000009536,4,432.2225,0,14,14,5,1,0.8,0.7,Time
,,349889,001,女,21,2025-06-03_19h37.20.068,Serial_Dependence_U,2023.2.3,Win32,59.880239520962,,,,,,432.2234000000954,15,0,432.2235,15,,,,436.211,436.7055999999047,435.69390000009537,436.21090000009536,433.2277000000477,435.69390000009537,436.7057000000477,437.2057999999523,437.20590000009537,438.8894000000954,1322,438.88959999990465,2,439.88859999990467,0,15,15,13,1,1.4,0.3,Time
,,349889,001,女,21,2025-06-03_19h37.20.068,Serial_Dependence_U,2023.2.3,Win32,59.880239520962,,,,,,439.8897000000477,315,0,439.8899000000954,315,,,,443.27700000000004,443.77179999995235,442.761,443.2769000000954,440.8937999999523,442.7609000000954,443.772,444.2719000000954,444.2722000000477,445.1605,800,445.1605,3,446.1550999999047,0,16,16,0,1,0.8,0.3,Time
,,349889,001,女,21,2025-06-03_19h37.20.068,Serial_Dependence_U,2023.2.3,Win32,59.880239520962,,,,,,446.15590000009536,322,0,446.1562000000477,322,,,,449.51,450.005,448.99329999995234,449.50979999995235,447.15879999995235,448.9932000000477,450.00509999990464,450.5047000000477,450.5049000000954,451.5102000000477,967,451.5102000000477,4,452.505,0,17,17,15,1,0.8,0.7,Time
,,349889,001,女,21,2025-06-03_19h37.20.068,Serial_Dependence_U,2023.2.3,Win32,59.880239520962,,,,,,452.5057000000477,319,0,452.50600000000003,319,,,,456.0595,456.5545,455.54309999990465,456.05940000009537,453.5112000000477,455.543,456.5545,457.055,457.05509999990466,458.80959999990466,883,458.8097000000477,2,459.8047000000477,0,18,18,16,1,1,0.7,Time
,,349889,001,女,21,2025-06-03_19h37.20.068,Serial_Dependence_U,2023.2.3,Win32,59.880239520962,,,,,,459.8054000000954,170,0,459.80559999990464,170,,,,463.9925,464.48809999990465,463.47609999990465,463.9922999999523,460.80979999995236,463.47609999990465,464.48859999990464,464.9875,464.98779999995236,467.02590000009536,1516,467.026,2,468.02109999990466,0,19,19,4,1,1.6,0.3,Time
,,349889,001,女,21,2025-06-03_19h37.20.068,Serial_Dependence_U,2023.2.3,Win32,59.880239520962,,,,,,468.02209999990464,28,0,468.0224000000954,28,,,,472.20929999995235,472.70529999995233,471.6922000000477,472.2092000000477,469.0257000000477,471.6922000000477,472.7054000000954,473.2077000000477,473.2077000000477,474.84209999990463,1600,474.8422000000477,3,475.8367000000477,0,20,20,14,1,1.6,0.3,Time
,,349889,001,女,21,2025-06-03_19h37.20.068,Serial_Dependence_U,2023.2.3,Win32,59.880239520962,,,,,,475.8377000000477,132,0,475.8379000000954,132,,,,479.2252999999523,479.72,478.70929999995235,479.2252000000477,476.8417000000477,478.7092000000477,479.7200999999047,480.2200999999047,480.2202999999523,481.8919000000954,1166,481.8919000000954,5,482.8865,0,21,21,20,1,0.8,0.3,Time
,,349889,001,女,21,2025-06-03_19h37.20.068,Serial_Dependence_U,2023.2.3,Win32,59.880239520962,,,,,,482.88750000000005,87,0,482.88759999990464,87,,,,486.8749000000954,487.36959999990466,486.3585,486.87479999995236,483.8915,486.3585,487.3697000000477,487.8699000000954,487.87,490.09159999990464,1616,490.09159999990464,4,491.086,0,22,22,3,1,1.4,0.3,Time
,,349889,001,女,21,2025-06-03_19h37.20.068,Serial_Dependence_U,2023.2.3,Win32,59.880239520962,,,,,,491.08729999995234,232,0,491.08750000000003,232,,,,494.84109999990466,495.3357999999523,494.3244000000954,494.84109999990466,492.091,494.32429999995236,495.336,495.8357000000477,495.8357000000477,497.0744000000954,717,497.0745,1,498.0697000000477,0,23,23,27,1,1.2,0.7,Time
,,349889,001,女,21,2025-06-03_19h37.20.068,Serial_Dependence_U,2023.2.3,Win32,59.880239520962,,,,,,498.0702000000477,350,0,498.0704000000954,350,,,,501.6577999999523,502.15240000009544,501.1407999999523,501.65740000009544,499.0744000000954,501.1407000000477,502.15240000009544,502.6520999999046,502.6522999999523,504.1572999999523,1100,504.1574000000954,4,505.1554999999999,0,24,24,11,1,1,0.3,Time
,,349889,001,女,21,2025-06-03_19h37.20.068,Serial_Dependence_U,2023.2.3,Win32,59.880239520962,,,,,,505.1557999999523,94,0,505.1559000000953,94,,,,509.1072000000476,509.6017999999522,508.59059999990455,509.1070999999046,506.1547000000476,508.59059999990455,509.6019000000953,510.10170000004763,510.1019999999999,511.4724999999999,1216,511.4724999999999,2,512.4682000000475,0,25,25,28,1,1.4,0.7,Time
,,349889,001,女,21,2025-06-03_19h37.20.068,Serial_Dependence_U,2023.2.3,Win32,59.880239520962,,,,,,512.4690999999045,288,0,512.4694000000952,288,,,,516.2567000000475,516.7514000000953,515.7402999999522,516.2565999999046,513.4734000000952,515.7402000000476,516.7515999999046,517.2524999999999,517.2525999999045,518.3902999999523,950,518.3902999999523,2,519.3845999999045,0,26,26,22,1,1.2,0.3,Time
,,349889,001,女,21,2025-06-03_19h37.20.068,Serial_Dependence_U,2023.2.3,Win32,59.880239520962,,,,,,519.3855999999046,36,0,519.3857999999523,36,,,,523.5562000000476,524.0509999999999,523.0397000000476,523.5559999999999,520.4064000000952,523.0395999999046,524.0509999999999,524.5510999999045,524.5512999999522,526.6234000000952,1617,526.6235999999045,3,527.6177999999522,0,27,27,9,1,1.6,0.7,Time
,,349889,001,女,21,2025-06-03_19h37.20.068,Serial_Dependence_U,2023.2.3,Win32,59.880239520962,,,,,,527.6185999999045,135,0,527.6187999999522,135,,,,531.5890999999045,532.0842999999522,531.0724999999999,531.5890999999045,528.6392999999522,531.0724000000953,532.0844000000952,532.5837000000475,532.5837999999522,534.0725999999046,1050,534.0725999999046,2,535.0670999999045,0,28,28,8,1,1.4,0.7,Time
,,349889,001,女,21,2025-06-03_19h37.20.068,Serial_Dependence_U,2023.2.3,Win32,59.880239520962,,,,,,535.0680999999046,24,0,535.0682999999523,24,,,,538.6220999999045,539.1172000000475,538.1054999999999,538.6219000000953,536.0697000000475,538.1054000000953,539.1172999999523,539.6170999999046,539.6172999999523,541.1225999999045,1100,541.1225999999045,4,542.1169999999998,0,29,29,26,1,1,0.7,Time
,,349889,001,女,21,2025-06-03_19h37.20.068,Serial_Dependence_U,2023.2.3,Win32,59.880239520962,,,,,,542.1177000000475,290,1,546.5789000000952,290,s,4.433099999904584,,550.7385999999045,551.2329000000952,550.2215999999046,550.7385999999045,547.5889000000952,550.2214999999999,551.2329000000952,551.7360999999046,551.7362000000476,553.7047999999522,1367,553.7049000000952,2,553.7122999999522,1,0,30,9,1,1.6,0.7,Time
,,349889,001,女,21,2025-06-03_19h37.20.068,Serial_Dependence_U,2023.2.3,Win32,59.880239520962,,,,,,553.7125999999046,222,1,553.7137999999522,222,,,,557.3212000000476,557.8174999999999,556.8044999999998,557.3212000000476,554.7377999999522,556.8044000000953,557.8174999999999,558.3162999999522,558.3162999999522,559.9047999999523,850,559.9047999999523,2,559.9129999999999,1,1,31,1,1,1,0.3,Time
,,349889,001,女,21,2025-06-03_19h37.20.068,Serial_Dependence_U,2023.2.3,Win32,59.880239520962,,,,,,559.9134000000953,96,1,559.9134999999999,96,,,,563.8707999999522,564.3660999999046,563.3542000000476,563.8707000000476,560.9212000000476,563.3540999999045,564.3662999999523,564.8657000000476,564.8659000000953,567.0875999999046,1600,567.0875999999046,4,567.0957999999522,1,2,32,28,1,1.4,0.7,Time
,,349889,001,女,21,2025-06-03_19h37.20.068,Serial_Dependence_U,2023.2.3,Win32,59.880239520962,,,,,,567.0960999999045,48,1,567.0960999999045,48,,,,571.2534999999999,571.7484999999999,570.7372000000476,571.2534999999999,568.1037999999522,570.7372000000476,571.7485999999045,572.2500999999046,572.2502000000476,573.6537000000476,583,573.6537000000476,1,573.6607999999522,1,3,33,29,1,1.6,0.7,Time
,,349889,001,女,21,2025-06-03_19h37.20.068,Serial_Dependence_U,2023.2.3,Win32,59.880239520962,,,,,,573.661,157,1,573.6612000000476,157,,,,577.2169000000953,577.7149999999999,576.7034999999998,577.2164999999999,574.6702999999522,576.7034999999998,577.7150999999045,578.2149000000953,578.2150999999045,579.4872000000476,832,579.4872000000476,2,579.4947000000476,1,4,34,16,1,1,0.7,Time
,,349889,001,女,21,2025-06-03_19h37.20.068,Serial_Dependence_U,2023.2.3,Win32,59.880239520962,,,,,,579.4949000000953,11,1,579.4949999999999,11,,,,582.8524000000953,583.348,582.3362999999522,582.8524000000953,580.5030999999045,582.3362000000476,583.3480999999045,583.8477000000476,583.8477999999523,584.8702999999522,617,584.8702999999522,2,584.8774999999999,1,5,35,15,1,0.8,0.7,Time
,,349889,001,女,21,2025-06-03_19h37.20.068,Serial_Dependence_U,2023.2.3,Win32,59.880239520962,,,,,,584.8777999999522,353,1,584.8779000000952,353,,,,588.2354000000953,588.7309000000953,587.7194999999999,588.2352999999522,585.8860999999046,587.7194000000952,588.7309999999999,589.2307999999522,589.2309000000953,590.4367999999522,717,590.4369000000953,2,590.4460999999045,1,6,36,25,1,0.8,0.7,Time
,,349889,001,女,21,2025-06-03_19h37.20.068,Serial_Dependence_U,2023.2.3,Win32,59.880239520962,,,,,,590.4464000000953,243,1,590.4464000000953,243,,,,593.8359999999999,594.3307000000476,593.3195,593.8359999999999,591.4532000000476,593.3195,594.3309000000953,594.8305999999045,594.8307000000476,596.1689999999999,967,596.1690999999046,4,596.1772000000476,1,7,37,20,1,0.8,0.3,Time
,,349889,001,女,21,2025-06-03_19h37.20.068,Serial_Dependence_U,2023.2.3,Win32,59.880239520962,,,,,,596.1775999999045,9,1,596.1777000000476,9,,,,600.3687999999522,600.8639000000953,599.8524000000953,600.3687000000476,597.1857999999522,599.8524000000953,600.8639999999999,601.3637999999522,601.3639999999999,603.3195999999045,1351,603.3195999999045,2,603.3282999999523,1,8,38,24,1,1.6,0.3,Time
,,349889,001,女,21,2025-06-03_19h37.20.068,Serial_Dependence_U,2023.2.3,Win32,59.880239520962,,,,,,603.3284999999998,347,1,603.3287000000475,347,,,,606.9182999999522,607.4129999999999,606.4025999999045,606.9182999999522,604.3355999999045,606.4024999999999,607.4130999999045,607.9134000000953,607.9134999999999,609.3854999999999,1100,609.3854999999999,4,609.3942999999522,1,9,39,21,1,1,0.3,Time
,,349889,001,女,21,2025-06-03_19h37.20.068,Serial_Dependence_U,2023.2.3,Win32,59.880239520962,,,,,,609.3945999999046,126,1,609.3947000000476,126,,,,613.1682999999522,613.6629999999999,612.6517999999522,613.1682999999522,610.3849000000953,612.6517000000476,613.6632000000476,614.1629999999999,614.1632999999522,615.7182999999523,1183,615.7182999999523,3,615.7254000000953,1,10,40,22,1,1.2,0.3,Time
,,349889,001,女,21,2025-06-03_19h37.20.068,Serial_Dependence_U,2023.2.3,Win32,59.880239520962,,,,,,615.7257000000476,225,1,615.7257999999522,225,,,,619.7302000000476,620.2322000000476,619.2180999999046,619.7302000000476,616.7514000000953,619.2179999999998,620.2322000000476,620.7294000000953,620.7294000000953,622.5847000000476,1417,622.5847999999522,3,622.5929999999998,1,11,41,3,1,1.4,0.3,Time
,,349889,001,女,21,2025-06-03_19h37.20.068,Serial_Dependence_U,2023.2.3,Win32,59.880239520962,,,,,,622.5932999999523,84,1,622.5935,84,,,,626.1347000000476,626.6289999999999,625.6175,626.1345999999045,623.5844999999999,625.6175,626.6290999999045,627.1289000000953,627.1289000000953,628.5509999999999,1233,628.5510999999045,4,628.5577999999522,1,12,42,6,1,1,0.7,Time
,,349889,001,女,21,2025-06-03_19h37.20.068,Serial_Dependence_U,2023.2.3,Win32,59.880239520962,,,,,,628.5580999999046,140,1,628.5580999999046,140,,,,631.9509999999999,632.4470999999045,631.4342999999523,631.9509000000953,629.5675999999046,631.4340999999046,632.4470999999045,632.9455999999045,632.9457999999522,634.4340999999046,1083,634.4340999999046,5,634.4409999999999,1,13,43,10,1,0.8,0.3,Time
,,349889,001,女,21,2025-06-03_19h37.20.068,Serial_Dependence_U,2023.2.3,Win32,59.880239520962,,,,,,634.4412999999522,210,1,634.4414000000953,210,,,,638.0334999999999,638.5282000000476,637.5169999999999,638.0334000000953,635.4505999999045,637.5169999999999,638.5282999999522,639.0287999999522,639.0289000000953,640.7004999999999,1183,640.7005999999045,4,640.7090999999045,1,14,44,11,1,1,0.3,Time
,,349889,001,女,21,2025-06-03_19h37.20.068,Serial_Dependence_U,2023.2.3,Win32,59.880239520962,,,,,,640.7094000000952,331,1,640.7094999999999,331,,,,644.2667000000475,644.7617999999522,643.7502000000476,644.2665999999045,641.7157999999522,643.7502000000476,644.7619000000952,645.2654000000953,645.2654000000953,646.8832999999522,1600,646.8832999999522,5,646.8925999999045,1,15,45,26,1,1,0.7,Time
,,349889,001,女,21,2025-06-03_19h37.20.068,Serial_Dependence_U,2023.2.3,Win32,59.880239520962,,,,,,646.8927999999522,140,1,646.8929999999999,140,,,,650.2495999999045,650.7445999999045,649.733,650.2494999999999,647.8999000000953,649.7329000000952,650.7447999999522,651.2442999999522,651.2444000000953,651.5164000000952,233,651.5164000000952,1,651.5247999999522,1,16,46,5,1,0.8,0.7,Time
,,349889,001,女,21,2025-06-03_19h37.20.068,Serial_Dependence_U,2023.2.3,Win32,59.880239520962,,,,,,651.5250999999046,99,1,651.5252000000476,99,,,,655.7159999999999,656.2124000000953,655.1994000000952,655.7159000000953,652.5329000000953,655.1992999999522,656.2124000000953,656.7105999999045,656.7107999999522,658.1995,700,658.1995,1,658.2077000000476,1,17,47,14,1,1.6,0.3,Time
,,349889,001,女,21,2025-06-03_19h37.20.068,Serial_Dependence_U,2023.2.3,Win32,59.880239520962,,,,,,658.2080999999046,219,1,658.2080999999046,219,,,,661.9655999999045,662.4605999999045,661.449,661.9654999999999,659.2159999999999,661.4489000000953,662.4607000000476,662.9604999999999,662.9605999999045,666.0972999999523,2015,666.0974000000953,5,666.1049999999999,1,18,48,7,1,1.2,0.7,Time
,,349889,001,女,21,2025-06-03_19h37.20.068,Serial_Dependence_U,2023.2.3,Win32,59.880239520962,,,,,,666.1054000000953,246,1,666.1054999999999,246,,,,670.2822000000476,670.7769000000952,669.7654999999999,670.2820999999045,667.0987999999522,669.7654000000953,670.7770999999045,671.281,671.281,673.4824000000953,1783,673.4825,4,673.4907999999522,1,19,49,4,1,1.6,0.3,Time
,,349889,001,女,21,2025-06-03_19h37.20.068,Serial_Dependence_U,2023.2.3,Win32,59.880239520962,,,,,,673.4912000000476,336,1,673.4912999999523,336,,,,677.4775999999046,677.9762000000476,676.9652000000476,677.4772999999523,674.4984999999999,676.9650999999045,677.9764000000953,678.4794000000953,678.4794000000953,680.6982000000476,1683,680.6982000000476,4,680.7055999999045,1,20,50,23,1,1.4,0.3,Time
,,349889,001,女,21,2025-06-03_19h37.20.068,Serial_Dependence_U,2023.2.3,Win32,59.880239520962,,,,,,680.7059000000953,80,1,680.7059999999999,80,,,,684.4667000000476,684.9597999999522,683.9477999999522,684.4664999999999,681.7144999999999,683.9477999999522,684.9599999999999,685.459,685.4592000000475,687.4144999999999,1283,687.4144999999999,4,687.4215999999045,1,21,51,17,1,1.2,0.7,Time
,,349889,001,女,21,2025-06-03_19h37.20.068,Serial_Dependence_U,2023.2.3,Win32,59.880239520962,,,,,,687.4219000000953,251,1,687.4220999999045,251,,,,691.3807999999523,691.8755999999046,690.8642000000476,691.3805999999046,688.4309999999999,690.8642000000476,691.8757000000476,692.3754999999999,692.3755999999046,694.3644000000953,1567,694.3645999999045,4,694.3722999999522,1,22,52,8,1,1.4,0.7,Time
,,349889,001,女,21,2025-06-03_19h37.20.068,Serial_Dependence_U,2023.2.3,Win32,59.880239520962,,,,,,694.3725999999045,139,1,694.3727000000476,139,,,,698.1645999999046,698.6585999999045,697.6495999999046,698.1645999999046,695.3804999999999,697.6494000000953,698.6587999999522,699.1584999999999,699.1584999999999,701.1802999999522,1350,701.1802999999522,4,701.1877000000476,1,23,53,12,1,1.2,0.3,Time
,,349889,001,女,21,2025-06-03_19h37.20.068,Serial_Dependence_U,2023.2.3,Win32,59.880239520962,,,,,,701.1879999999999,152,1,701.1880999999046,152,,,,705.1800999999045,705.6749000000952,704.6634000000953,705.1799000000952,702.1969000000953,704.6632999999522,705.6749000000952,706.1747999999523,706.175,708.4307000000476,1616,708.4307999999522,4,708.4380999999046,1,24,54,13,1,1.4,0.3,Time
,,349889,001,女,21,2025-06-03_19h37.20.068,Serial_Dependence_U,2023.2.3,Win32,59.880239520962,,,,,,708.4384999999999,9,1,708.4384999999999,9,,,,712.5962000000476,713.0912000000476,712.0795999999045,712.5962000000476,709.4464000000953,712.0794999999999,713.0912000000476,713.5912000000476,713.5914000000953,715.6299999999999,1716,715.6299999999999,4,715.6384999999999,1,25,55,19,1,1.6,0.7,Time
,,349889,001,女,21,2025-06-03_19h37.20.068,Serial_Dependence_U,2023.2.3,Win32,59.880239520962,,,,,,715.6389000000953,233,1,715.6390999999045,233,,,,719.0294000000953,719.5282000000476,718.5125999999045,719.0292999999522,716.6462000000475,718.5125999999045,719.5282000000476,720.0244000000953,720.0247000000476,721.7295999999045,1066,721.7295999999045,5,721.7362999999522,1,26,56,0,1,0.8,0.3,Time
,,349889,001,女,21,2025-06-03_19h37.20.068,Serial_Dependence_U,2023.2.3,Win32,59.880239520962,,,,,,721.7364999999999,52,1,721.7367000000476,52,,,,725.6797000000475,726.1739000000953,725.1627000000476,725.6795999999046,722.7290999999045,725.1625999999045,726.1739000000953,726.6737999999522,726.6739999999999,728.4127000000476,1533,728.4129000000953,4,728.4197999999523,1,27,57,18,1,1.4,0.7,Time
,,349889,001,女,21,2025-06-03_19h37.20.068,Serial_Dependence_U,2023.2.3,Win32,59.880239520962,,,,,,728.4200999999046,181,1,728.4202000000475,181,,,,732.1762000000476,732.6737000000476,731.6622000000476,732.1760999999045,729.4290999999046,731.6620999999045,732.6739000000953,733.1737000000476,733.1739000000953,734.8454999999999,1083,734.8454999999999,2,734.8547999999522,1,28,58,27,1,1.2,0.7,Time
,,349889,001,女,21,2025-06-03_19h37.20.068,Serial_Dependence_U,2023.2.3,Win32,59.880239520962,,,,,,734.8552000000476,10,1,734.8552999999522,10,,,,738.6295999999045,739.1234999999999,738.1285999999045,738.6294999999999,735.8617999999523,738.1284999999999,739.1234999999999,739.6229999999999,739.6230999999045,741.4620999999046,1284,741.4620999999046,4,741.4712999999522,1,29,59,2,1,1.2,0.3,Time
,,349889,001,女,21,2025-06-03_19h37.20.068,Serial_Dependence_U,2023.2.3,Win32,59.880239520962,,,,,,741.4717000000476,149,2,764.3130999999046,149,s,22.81870000004767,,768.0924999999999,768.5924000000953,767.5769999999999,768.0924000000953,765.3102999999522,767.5769000000953,768.5924999999999,769.0885999999045,769.0887999999522,771.4942999999522,1317,771.4942999999522,4,771.5027999999522,2,0,60,2,1,1.2,0.3,Time
,,349889,001,女,21,2025-06-03_19h37.20.068,Serial_Dependence_U,2023.2.3,Win32,59.880239520962,,,,,,771.5032000000476,31,2,771.5044000000953,31,,,,775.2462999999523,775.7380999999045,774.7267000000476,775.2462000000476,772.4930999999045,774.7267000000476,775.7382000000476,776.2379999999999,776.2379999999999,777.5932999999523,1333,777.5932999999523,4,777.6004999999999,2,1,61,27,1,1.2,0.7,Time
,,349889,001,女,21,2025-06-03_19h37.20.068,Serial_Dependence_U,2023.2.3,Win32,59.880239520962,,,,,,777.6007000000476,88,2,777.6009000000953,88,,,,780.9930999999045,781.4875999999045,780.4762999999522,780.9930999999045,778.6097999999522,780.4762999999522,781.4875999999045,781.9877000000475,781.9879000000952,783.7097000000476,1283,783.7097000000476,5,783.7175999999046,2,2,62,20,1,0.8,0.3,Time
,,349889,001,女,21,2025-06-03_19h37.20.068,Serial_Dependence_U,2023.2.3,Win32,59.880239520962,,,,,,783.7179000000953,352,2,783.7179999999998,352,,,,787.0767999999522,787.5710999999045,786.5592999999523,787.0765999999045,784.7252000000476,786.5592000000476,787.5712000000476,788.0712000000476,788.0712999999522,789.3927000000476,650,789.3927000000476,2,789.4005999999046,2,3,63,25,1,0.8,0.7,Time
,,349889,001,女,21,2025-06-03_19h37.20.068,Serial_Dependence_U,2023.2.3,Win32,59.880239520962,,,,,,789.401,40,2,789.4012000000475,40,,,,793.5589000000953,794.0535999999046,793.0420999999045,793.5589000000953,790.4092000000476,793.0419999999999,794.0535999999046,794.5537999999523,794.5539000000953,797.1257999999522,1833,797.1257999999522,4,797.1339000000953,2,4,64,19,1,1.6,0.7,Time
,,349889,001,女,21,2025-06-03_19h37.20.068,Serial_Dependence_U,2023.2.3,Win32,59.880239520962,,,,,,797.1342000000476,153,2,797.1342999999522,153,,,,801.1250999999046,801.6199999999999,800.6085999999045,801.1249999999999,798.1394000000953,800.6084999999999,801.6199999999999,802.1199999999999,802.1202000000476,803.7920999999045,1251,803.7920999999045,2,803.7997000000476,2,5,65,3,1,1.4,0.3,Time
,,349889,001,女,21,2025-06-03_19h37.20.068,Serial_Dependence_U,2023.2.3,Win32,59.880239520962,,,,,,803.8,36,2,803.8000999999045,36,,,,807.5914000000953,808.0864999999999,807.0749000000952,807.5912999999522,804.8082000000476,807.0749000000952,808.0865999999046,808.5867000000476,808.5869000000953,810.0417999999522,983,810.0419000000953,2,810.0504000000952,2,6,66,12,1,1.2,0.3,Time
,,349889,001,女,21,2025-06-03_19h37.20.068,Serial_Dependence_U,2023.2.3,Win32,59.880239520962,,,,,,810.0507999999522,295,2,810.0509000000952,295,,,,813.8077000000476,814.3029000000953,813.2910999999045,813.8077000000476,811.0582000000476,813.2909999999999,814.3029999999999,814.8025999999045,814.8027000000476,816.8749000000953,1500,816.8749000000953,4,816.8824000000952,2,7,67,17,1,1.2,0.7,Time
,,349889,001,女,21,2025-06-03_19h37.20.068,Serial_Dependence_U,2023.2.3,Win32,59.880239520962,,,,,,816.8827000000476,224,2,816.8829000000952,224,,,,820.4409999999999,820.9372000000476,819.9242999999523,820.4409000000953,817.8914000000952,819.9242000000476,820.9372999999522,821.4355999999045,821.4359000000952,823.0577999999522,1183,823.0577999999522,4,823.0667000000476,2,8,68,26,1,1,0.7,Time
,,349889,001,女,21,2025-06-03_19h37.20.068,Serial_Dependence_U,2023.2.3,Win32,59.880239520962,,,,,,823.0672999999522,314,2,823.0674999999999,314,,,,826.4239000000953,826.9200999999046,825.9077999999522,826.4239000000953,824.074,825.9077999999522,826.9200999999046,827.4194000000953,827.4194999999999,829.2574000000952,1284,829.2574000000952,5,829.2650999999046,2,9,69,15,1,0.8,0.7,Time
,,349889,001,女,21,2025-06-03_19h37.20.068,Serial_Dependence_U,2023.2.3,Win32,59.880239520962,,,,,,829.2654000000953,227,2,829.2654999999999,227,,,,833.4234999999999,833.9180999999045,832.9064999999999,833.4234000000953,830.2735999999045,832.9064999999999,833.9180999999045,834.4184999999999,834.4187000000476,836.8074000000953,1767,836.8074999999999,4,836.8162999999522,2,10,70,9,1,1.6,0.7,Time
,,349889,001,女,21,2025-06-03_19h37.20.068,Serial_Dependence_U,2023.2.3,Win32,59.880239520962,,,,,,836.8165999999045,77,2,836.8167000000476,77,,,,840.1729999999999,840.6680999999045,839.6564999999999,840.1729999999999,837.8232000000476,839.6564999999999,840.6682000000476,841.1679000000953,841.1680999999045,843.0899000000953,1216,843.0899000000953,5,843.0984000000952,2,11,71,5,1,0.8,0.7,Time
,,349889,001,女,21,2025-06-03_19h37.20.068,Serial_Dependence_U,2023.2.3,Win32,59.880239520962,,,,,,843.0987000000476,194,2,843.0987000000476,194,,,,846.4874000000952,846.9885999999045,845.9727999999523,846.4872000000476,844.1062000000476,845.9727000000476,846.9885999999045,847.4842000000476,847.4842999999522,848.4894999999999,566,848.4894999999999,2,848.4967000000476,2,12,72,10,1,0.8,0.3,Time
,,349889,001,女,21,2025-06-03_19h37.20.068,Serial_Dependence_U,2023.2.3,Win32,59.880239520962,,,,,,848.497,150,2,848.4970999999045,150,,,,852.0892000000476,852.5839000000952,851.5725999999046,852.0892000000476,849.5064000000953,851.5724999999999,852.584,853.0839000000952,853.0840999999045,854.4395,917,854.4395999999045,2,854.4469000000953,2,13,73,1,1,1,0.3,Time
,,349889,001,女,21,2025-06-03_19h37.20.068,Serial_Dependence_U,2023.2.3,Win32,59.880239520962,,,,,,854.4472000000476,238,2,854.4472999999522,238,,,,858.2054000000953,858.7004999999999,857.6889999999999,858.2054000000953,855.4557000000476,857.6889999999999,858.7005999999045,859.2004000000952,859.2005999999045,861.1057999999522,1267,861.1059000000953,4,861.1147999999522,2,14,74,7,1,1.2,0.7,Time
,,349889,001,女,21,2025-06-03_19h37.20.068,Serial_Dependence_U,2023.2.3,Win32,59.880239520962,,,,,,861.1150999999045,303,2,861.1152999999522,303,,,,864.7054000000953,865.2000999999045,864.1887999999523,864.7052999999522,862.1222999999522,864.1887999999523,865.2000999999045,865.6999999999999,865.7002999999522,867.1384000000953,1066,867.1384999999999,4,867.1452999999523,2,15,75,21,1,1,0.3,Time
,,349889,001,女,21,2025-06-03_19h37.20.068,Serial_Dependence_U,2023.2.3,Win32,59.880239520962,,,,,,867.1457000000476,343,2,867.1457000000476,343,,,,870.5215999999045,871.0167999999522,870.0049999999999,870.5215,868.1389000000953,870.0049000000953,871.0169000000952,871.5162999999523,871.5165,873.2052000000476,1100,873.2052000000476,5,873.2142000000476,2,16,76,0,1,0.8,0.3,Time
,,349889,001,女,21,2025-06-03_19h37.20.068,Serial_Dependence_U,2023.2.3,Win32,59.880239520962,,,,,,873.2144999999999,305,2,873.2145999999045,305,,,,877.4047999999523,877.9007999999523,876.8884000000953,877.4047999999523,874.2219999999999,876.8884000000953,877.9007999999523,878.3994000000953,878.3995999999046,880.5215,1466,880.5215,2,880.5302999999523,2,17,77,4,1,1.6,0.3,Time
,,349889,001,女,21,2025-06-03_19h37.20.068,Serial_Dependence_U,2023.2.3,Win32,59.880239520962,,,,,,880.5307000000475,128,2,880.5307000000475,128,,,,884.0877000000476,884.5842000000475,883.5712000000476,884.0875999999046,881.5377000000476,883.5712000000476,884.5842000000475,885.0869000000953,885.0869000000953,886.2044999999999,1083,886.2044999999999,4,886.2135,2,18,78,6,1,1,0.7,Time
,,349889,001,女,21,2025-06-03_19h37.20.068,Serial_Dependence_U,2023.2.3,Win32,59.880239520962,,,,,,886.2139000000952,247,2,886.2139999999999,247,,,,890.0039999999999,890.4994999999999,889.4899999999999,890.0039000000953,887.2207000000476,889.4899000000953,890.4997000000476,890.9985999999045,890.9987000000476,892.3709999999999,983,892.3709999999999,2,892.3794999999999,2,19,79,22,1,1.2,0.3,Time
,,349889,001,女,21,2025-06-03_19h37.20.068,Serial_Dependence_U,2023.2.3,Win32,59.880239520962,,,,,,892.3799000000953,209,2,892.3799999999999,209,,,,896.3364000000953,896.8315999999045,895.8205999999045,896.3362999999522,893.3872000000476,895.8205999999045,896.8317000000476,897.3357000000476,897.3357000000476,899.0869999999999,1633,899.0870999999046,4,899.0957999999522,2,20,80,8,1,1.4,0.7,Time
,,349889,001,女,21,2025-06-03_19h37.20.068,Serial_Dependence_U,2023.2.3,Win32,59.880239520962,,,,,,899.0959000000953,85,2,899.0960999999045,85,,,,903.0532999999522,903.5477999999522,902.5369999999999,903.0532000000476,900.1032000000475,902.5369999999999,903.5479000000953,904.0477000000476,904.0479000000953,906.0540999999046,1484,906.0542000000476,4,906.0619999999999,2,21,81,28,1,1.4,0.7,Time
,,349889,001,女,21,2025-06-03_19h37.20.068,Serial_Dependence_U,2023.2.3,Win32,59.880239520962,,,,,,906.0622999999522,168,2,906.0624000000953,168,,,,910.2527000000476,910.7475999999045,909.7362000000476,910.2525999999045,907.0699000000952,909.7362000000476,910.7475999999045,911.2477999999522,911.2479000000952,914.1535999999045,2450,914.1537000000476,5,914.1627999999522,2,22,82,24,1,1.6,0.3,Time
,,349889,001,女,21,2025-06-03_19h37.20.068,Serial_Dependence_U,2023.2.3,Win32,59.880239520962,,,,,,914.1632999999522,6,2,914.1634000000953,6,,,,918.1034000000952,918.5972999999523,917.6022999999523,918.1032000000475,915.1694000000953,917.6022000000476,918.5974000000953,919.0970999999046,919.0972000000476,921.5864000000953,1667,921.5864999999999,4,921.5949999999999,2,23,83,18,1,1.4,0.7,Time
,,349889,001,女,21,2025-06-03_19h37.20.068,Serial_Dependence_U,2023.2.3,Win32,59.880239520962,,,,,,921.5952999999522,183,2,921.5954000000953,183,,,,925.5852999999522,926.0800999999045,925.0687000000476,925.5852999999522,922.6022999999523,925.0685999999046,926.0800999999045,926.5802000000476,926.5802999999522,928.6522999999522,1600,928.6522999999522,4,928.6604000000953,2,24,84,13,1,1.4,0.3,Time
,,349889,001,女,21,2025-06-03_19h37.20.068,Serial_Dependence_U,2023.2.3,Win32,59.880239520962,,,,,,928.6607000000475,354,2,928.6607999999522,354,,,,932.6350999999046,933.1300999999046,932.1184999999999,932.6349999999999,929.6517999999522,932.1184999999999,933.1300999999046,933.6312000000476,933.6312000000476,936.3509999999999,2199,936.3509999999999,5,936.3594000000953,2,25,85,23,1,1.4,0.3,Time
,,349889,001,女,21,2025-06-03_19h37.20.068,Serial_Dependence_U,2023.2.3,Win32,59.880239520962,,,,,,936.3597999999522,34,2,936.3599999999999,34,,,,939.9514999999999,940.4465999999045,939.4345999999045,939.9514999999999,937.3675,939.4345,940.4467999999522,940.9464000000953,940.9464999999999,943.1849000000952,1733,943.1849000000952,5,943.1942000000475,2,26,86,11,1,1,0.3,Time
,,349889,001,女,21,2025-06-03_19h37.20.068,Serial_Dependence_U,2023.2.3,Win32,59.880239520962,,,,,,943.1945,302,2,943.1945999999045,302,,,,947.3514999999999,947.8467000000476,946.8342000000475,947.3514000000953,944.2010999999045,946.8342000000475,947.8467000000476,948.3495999999045,948.3497000000476,950.6679000000953,2249,950.6679000000953,5,950.6774000000953,2,27,87,29,1,1.6,0.7,Time
,,349889,001,女,21,2025-06-03_19h37.20.068,Serial_Dependence_U,2023.2.3,Win32,59.880239520962,,,,,,950.6777000000476,172,2,950.6779000000953,172,,,,954.2337999999522,954.7287000000476,953.7174000000953,954.2337999999522,951.6839999999999,953.7172999999523,954.7289000000952,955.2287000000476,955.2289000000952,957.1844000000953,1367,957.1844000000953,5,957.1927999999522,2,28,88,16,1,1,0.7,Time
,,349889,001,女,21,2025-06-03_19h37.20.068,Serial_Dependence_U,2023.2.3,Win32,59.880239520962,,,,,,957.1930999999046,187,2,957.1932000000476,187,,,,961.3837999999522,961.8782000000476,960.8669000000953,961.3837000000476,958.2007000000476,960.8667999999523,961.8782999999522,962.3784000000953,962.3784999999999,964.4505999999045,1467,964.4507000000476,2,964.459,2,29,89,14,1,1.6,0.3,Time
,,349889,001,女,21,2025-06-03_19h37.20.068,Serial_Dependence_U,2023.2.3,Win32,59.880239520962,,,,,,964.4592999999522,323,3,967.2039000000952,323,s,2.7292000000476264,,971.3664999999999,971.8609999999999,970.8502000000476,971.3664000000953,968.2167000000476,970.8500999999045,971.8610999999046,972.3614000000953,972.3614000000953,974.4829000000952,1666,974.483,3,974.4904000000953,3,0,90,9,1,1.6,0.7,Time
,,349889,001,女,21,2025-06-03_19h37.20.068,Serial_Dependence_U,2023.2.3,Win32,59.880239520962,,,,,,974.4907000000476,248,3,974.4914999999999,248,,,,978.6492000000476,979.1484000000953,978.1327999999522,978.6492000000476,975.4992999999522,978.1327000000476,979.1484000000953,979.6445999999046,979.6447999999522,981.9659999999999,1666,981.9659999999999,3,981.9750999999045,3,1,91,29,1,1.6,0.7,Time
,,349889,001,女,21,2025-06-03_19h37.20.068,Serial_Dependence_U,2023.2.3,Win32,59.880239520962,,,,,,981.9754999999999,249,3,981.9755999999045,249,,,,985.7495999999045,986.2479000000952,985.2489999999999,985.7494999999999,982.9825,985.2489000000953,986.2479000000952,986.7435999999045,986.7435999999045,989.0324999999999,1617,989.0324999999999,5,989.0412999999522,3,2,92,2,1,1.2,0.3,Time
,,349889,001,女,21,2025-06-03_19h37.20.068,Serial_Dependence_U,2023.2.3,Win32,59.880239520962,,,,,,989.0417000000476,206,3,989.0417999999522,206,,,,993.0314999999999,993.5267000000476,992.5154000000953,993.0314000000952,990.0484999999999,992.5154000000953,993.5267999999522,994.0267000000476,994.0269000000952,995.5152999999523,883,995.5152999999523,1,995.5225999999045,3,3,93,23,1,1.4,0.3,Time
,,349889,001,女,21,2025-06-03_19h37.20.068,Serial_Dependence_U,2023.2.3,Win32,59.880239520962,,,,,,995.5229000000953,32,3,995.5230999999045,32,,,,998.9149000000953,999.4099000000953,998.3982999999522,998.9149000000953,996.5317000000476,998.3982000000476,999.4100999999046,999.9100999999046,999.9102999999523,1001.8487000000476,1083,1001.8487999999522,5,1001.8570999999046,3,4,94,10,1,0.8,0.3,Time
,,349889,001,女,21,2025-06-03_19h37.20.068,Serial_Dependence_U,2023.2.3,Win32,59.880239520962,,,,,,1001.8575,122,3,1001.8575999999046,122,,,,1005.2144999999999,1005.7095999999045,1004.6979000000953,1005.2144000000952,1002.8647000000476,1004.6979000000953,1005.7097000000476,1006.2137000000475,1006.2137000000475,1008.2985999999046,1133,1008.2987000000476,5,1008.3057000000476,3,5,95,15,1,0.8,0.7,Time
,,349889,001,女,21,2025-06-03_19h37.20.068,Serial_Dependence_U,2023.2.3,Win32,59.880239520962,,,,,,1008.3059999999999,99,3,1008.3062000000476,99,,,,1012.4975999999045,1012.9922999999523,1011.9812999999522,1012.4975,1009.3145,1011.9812000000476,1012.9924000000952,1013.4947999999522,1013.4949000000952,1015.4975999999044,1200,1015.4977000000476,2,1015.5065999999044,3,6,96,24,1,1.6,0.3,Time
,,349889,001,女,21,2025-06-03_19h37.20.068,Serial_Dependence_U,2023.2.3,Win32,59.880239520962,,,,,,1015.5069000000954,353,3,1015.5069999999998,353,,,,1018.8639000000953,1019.3589999999999,1018.3477999999523,1018.8637999999521,1016.5137000000475,1018.3475999999046,1019.3590999999046,1019.8584000000953,1019.8584999999998,1021.4975,883,1021.4975999999044,4,1021.5055999999045,3,7,97,5,1,0.8,0.7,Time
,,349889,001,女,21,2025-06-03_19h37.20.068,Serial_Dependence_U,2023.2.3,Win32,59.880239520962,,,,,,1021.5059000000954,124,3,1021.5059000000954,124,,,,1025.2967999999523,1025.7917000000475,1024.7807000000475,1025.2967999999523,1022.5142000000476,1024.7807000000475,1025.7917999999522,1026.2917000000475,1026.2919000000952,1028.3139000000954,1300,1028.3139999999999,4,1028.3225999999045,3,8,98,22,1,1.2,0.3,Time
,,349889,001,女,21,2025-06-03_19h37.20.068,Serial_Dependence_U,2023.2.3,Win32,59.880239520962,,,,,,1028.3229000000952,135,3,1028.3229999999999,135,,,,1032.5132000000476,1033.0082000000475,1031.9965,1032.5132000000476,1029.3299000000952,1031.9964000000953,1033.0082999999522,1033.5084000000952,1033.5085,1034.9472000000476,900,1034.9472999999523,1,1034.9557000000475,3,9,99,4,1,1.6,0.3,Time
,,349889,001,女,21,2025-06-03_19h37.20.068,Serial_Dependence_U,2023.2.3,Win32,59.880239520962,,,,,,1034.956,81,3,1034.9562000000476,81,,,,1038.7132000000477,1039.2077999999522,1038.1960999999046,1038.713,1035.9630999999044,1038.196,1039.2079999999999,1039.7085,1039.7085999999044,1041.2467000000477,1250,1041.2469000000954,3,1041.2555,3,10,100,7,1,1.2,0.7,Time
,,349889,001,女,21,2025-06-03_19h37.20.068,Serial_Dependence_U,2023.2.3,Win32,59.880239520962,,,,,,1041.2557999999522,330,3,1041.2559000000954,330,,,,1045.0125999999045,1045.5074000000952,1044.4962000000476,1045.0124999999998,1042.263,1044.4960999999046,1045.5075,1046.0070999999045,1046.0072000000475,1047.5794999999998,1150,1047.5794999999998,3,1047.5887000000475,3,11,101,27,1,1.2,0.7,Time
,,349889,001,女,21,2025-06-03_19h37.20.068,Serial_Dependence_U,2023.2.3,Win32,59.880239520962,,,,,,1047.589,79,3,1047.5890999999046,79,,,,1051.1459000000953,1051.6405,1050.6295,1051.1457000000476,1048.5959000000953,1050.6294000000953,1051.6405,1052.1404000000953,1052.1405999999045,1053.7627999999522,1067,1053.7627999999522,4,1053.7715999999045,3,12,102,6,1,1,0.7,Time
,,349889,001,女,21,2025-06-03_19h37.20.068,Serial_Dependence_U,2023.2.3,Win32,59.880239520962,,,,,,1053.772,242,3,1053.7720999999046,242,,,,1057.3619999999999,1057.8567999999523,1056.8452000000475,1057.3619999999999,1054.7745999999045,1056.8450999999045,1057.8569000000953,1058.3569000000953,1058.357,1060.5624000000953,1383,1060.5624000000953,5,1060.571,3,13,103,1,1,1,0.3,Time
,,349889,001,女,21,2025-06-03_19h37.20.068,Serial_Dependence_U,2023.2.3,Win32,59.880239520962,,,,,,1060.5714000000953,146,3,1060.5715,146,,,,1064.3455999999046,1064.8394999999998,1063.8449000000953,1064.3454000000952,1061.5784000000954,1063.8447999999523,1064.8394999999998,1065.3400999999046,1065.3402000000476,1067.262,1367,1067.262,4,1067.2690999999045,3,14,104,12,1,1.2,0.3,Time
,,349889,001,女,21,2025-06-03_19h37.20.068,Serial_Dependence_U,2023.2.3,Win32,59.880239520962,,,,,,1067.2694999999999,171,3,1067.2695999999046,171,,,,1071.2277999999521,1071.7225999999046,1070.7112999999522,1071.2277000000477,1068.2779000000953,1070.7112999999522,1071.7225999999046,1072.2225999999046,1072.2225999999046,1074.0952999999522,1334,1074.0954000000952,3,1074.1039999999998,3,15,105,28,1,1.4,0.7,Time
,,349889,001,女,21,2025-06-03_19h37.20.068,Serial_Dependence_U,2023.2.3,Win32,59.880239520962,,,,,,1074.1042999999522,61,3,1074.1044000000952,61,,,,1078.0610999999046,1078.5589000000953,1077.5442000000476,1078.0610999999046,1075.1109000000952,1077.5442000000476,1078.559,1079.0559999999998,1079.0560999999045,1081.3445,1650,1081.3445,4,1081.3517999999522,3,16,106,8,1,1.4,0.7,Time
,,349889,001,女,21,2025-06-03_19h37.20.068,Serial_Dependence_U,2023.2.3,Win32,59.880239520962,,,,,,1081.3520999999046,231,3,1081.3522000000476,231,,,,1085.5395999999046,1086.0417000000475,1085.0275,1085.5392999999522,1082.3607999999522,1085.0274000000952,1086.0417000000475,1086.5390999999045,1086.5392000000477,1088.8274000000952,1866,1088.8274999999999,4,1088.8367999999523,3,17,107,14,1,1.6,0.3,Time
,,349889,001,女,21,2025-06-03_19h37.20.068,Serial_Dependence_U,2023.2.3,Win32,59.880239520962,,,,,,1088.8370999999045,352,3,1088.8372000000477,352,,,,1092.8269000000953,1093.3215,1092.3110999999046,1092.8267999999523,1089.8437999999521,1092.311,1093.3217000000475,1093.8232999999523,1093.8232999999523,1096.3102999999521,1950,1096.3104000000953,5,1096.3187999999523,3,18,108,13,1,1.4,0.3,Time
,,349889,001,女,21,2025-06-03_19h37.20.068,Serial_Dependence_U,2023.2.3,Win32,59.880239520962,,,,,,1096.3190999999044,186,3,1096.3192000000477,186,,,,1100.0765,1100.5712000000476,1099.5597000000475,1100.0762999999522,1097.3264000000952,1099.5595999999045,1100.5714000000953,1101.0727000000477,1101.0727000000477,1103.0767999999523,1250,1103.0767999999523,3,1103.0857000000476,3,19,109,17,1,1.2,0.7,Time
,,349889,001,女,21,2025-06-03_19h37.20.068,Serial_Dependence_U,2023.2.3,Win32,59.880239520962,,,,,,1103.0860999999045,257,3,1103.0860999999045,257,,,,1107.0427999999522,1107.5372999999522,1106.5262000000475,1107.0427999999522,1104.0927000000477,1106.5260999999045,1107.5372999999522,1108.042,1108.042,1110.1904000000952,1414,1110.1904000000952,3,1110.2000999999045,3,20,110,18,1,1.4,0.7,Time
,,349889,001,女,21,2025-06-03_19h37.20.068,Serial_Dependence_U,2023.2.3,Win32,59.880239520962,,,,,,1110.2005,59,3,1110.2005999999046,59,,,,1113.7924000000953,1114.2875999999046,1113.2757000000477,1113.7924000000953,1111.2090999999045,1113.2757000000477,1114.2877000000476,1114.7869999999998,1114.7872000000475,1116.5925999999045,1133,1116.5927000000477,4,1116.6007000000475,3,21,111,11,1,1,0.3,Time
,,349889,001,女,21,2025-06-03_19h37.20.068,Serial_Dependence_U,2023.2.3,Win32,59.880239520962,,,,,,1116.6009999999999,310,3,1116.6010999999046,310,,,,1119.9920999999044,1120.4867000000477,1119.4755,1119.992,1117.6087000000475,1119.4755,1120.4867000000477,1120.9867999999522,1120.9869000000954,1123.3754000000952,1050,1123.3754000000952,5,1123.3825,3,22,112,0,1,0.8,0.3,Time
,,349889,001,女,21,2025-06-03_19h37.20.068,Serial_Dependence_U,2023.2.3,Win32,59.880239520962,,,,,,1123.382799999952,15,3,1123.3829000000953,15,,,,1127.5417000000475,1128.0364000000952,1127.0249999999999,1127.5417000000475,1124.3914000000952,1127.0249000000952,1128.0364000000952,1128.5367000000476,1128.5369000000953,1130.292,1183,1130.292,2,1130.3009000000952,3,23,113,19,1,1.6,0.7,Time
,,349889,001,女,21,2025-06-03_19h37.20.068,Serial_Dependence_U,2023.2.3,Win32,59.880239520962,,,,,,1130.3010999999046,298,3,1130.3012000000476,298,,,,1134.2914000000953,1134.7859999999998,1133.7745999999045,1134.2912999999521,1131.3082000000477,1133.7745999999045,1134.7859999999998,1135.2860999999045,1135.2860999999045,1137.7749999999999,1484,1137.7749999999999,4,1137.7845,3,24,114,3,1,1.4,0.3,Time
,,349889,001,女,21,2025-06-03_19h37.20.068,Serial_Dependence_U,2023.2.3,Win32,59.880239520962,,,,,,1137.7849000000954,297,3,1137.7850999999046,297,,,,1141.3407999999522,1141.8357000000476,1140.8242999999522,1141.3407999999522,1138.791,1140.8242000000475,1141.8357999999523,1142.3357000000476,1142.3359000000953,1143.9247999999523,1150,1143.9249000000952,4,1143.9337000000476,3,25,115,26,1,1,0.7,Time
,,349889,001,女,21,2025-06-03_19h37.20.068,Serial_Dependence_U,2023.2.3,Win32,59.880239520962,,,,,,1143.934,147,3,1143.9340999999044,147,,,,1147.2907000000475,1147.7894999999999,1146.774,1147.2905999999045,1144.9407999999523,1146.7739000000952,1147.7894999999999,1148.2895999999046,1148.2897000000476,1150.0244000000953,1233,1150.0244000000953,5,1150.0332000000476,3,26,116,25,1,0.8,0.7,Time
,,349889,001,女,21,2025-06-03_19h37.20.068,Serial_Dependence_U,2023.2.3,Win32,59.880239520962,,,,,,1150.0334000000953,301,3,1150.0335999999045,301,,,,1153.4237000000476,1153.9184000000953,1152.9072000000476,1153.4237000000476,1151.0395999999046,1152.9070999999046,1153.9184000000953,1154.4189999999999,1154.4192000000476,1155.4064999999998,515,1155.4065999999045,1,1155.4135999999046,3,27,117,20,1,0.8,0.3,Time
,,349889,001,女,21,2025-06-03_19h37.20.068,Serial_Dependence_U,2023.2.3,Win32,59.880239520962,,,,,,1155.4139000000953,330,3,1155.4140999999045,330,,,,1158.9732999999521,1159.4697000000476,1158.4569999999999,1158.9732000000477,1156.4222999999522,1158.4569000000952,1159.4697000000476,1159.9682000000475,1159.9684000000952,1161.7734000000953,1116,1161.7734000000953,4,1161.7817000000475,3,28,118,16,1,1,0.7,Time
,,349889,001,女,21,2025-06-03_19h37.20.068,Serial_Dependence_U,2023.2.3,Win32,59.880239520962,,,,,,1161.782,151,3,1161.7820999999046,151,,,,1165.3727999999521,1165.8679000000952,1164.8562999999522,1165.3727000000476,1162.7897999999523,1164.8562999999522,1165.868,1166.368,1166.3682000000476,1168.1562000000476,1183,1168.1562999999521,4,1168.1637999999523,3,29,119,21,1,1,0.3,Time
,,349889,001,女,21,2025-06-03_19h37.20.068,Serial_Dependence_U,2023.2.3,Win32,59.880239520962,,,,,,1168.1642000000477,192,4,1172.2462000000476,192,s,4.066100000143024,,1175.9892000000475,1176.4837999999522,1175.4724999999999,1175.9892000000475,1173.2389999999998,1175.4724000000954,1176.484,1176.984,1176.9842000000476,1178.9559000000952,1317,1178.9559000000952,4,1178.9634999999998,4,0,120,17,1,1.2,0.7,Time
,,349889,001,女,21,2025-06-03_19h37.20.068,Serial_Dependence_U,2023.2.3,Win32,59.880239520962,,,,,,1178.9639000000952,86,4,1178.9649000000952,86,,,,1182.3222000000476,1182.8167000000476,1181.8052999999522,1182.3220999999046,1179.9722999999522,1181.8052999999522,1182.8167999999523,1183.3209000000952,1183.321,1184.7059000000952,783,1184.706,3,1184.7145999999045,4,1,121,25,1,0.8,0.7,Time
,,349889,001,女,21,2025-06-03_19h37.20.068,Serial_Dependence_U,2023.2.3,Win32,59.880239520962,,,,,,1184.7149000000952,246,4,1184.7150999999046,246,,,,1188.5049000000952,1188.9995999999046,1187.9889000000953,1188.5049000000952,1185.7215999999046,1187.988799999952,1188.9997000000476,1189.5032000000476,1189.5032000000476,1191.5550999999045,1516,1191.5552000000475,4,1191.5622999999523,4,2,122,2,1,1.2,0.3,Time
,,349889,001,女,21,2025-06-03_19h37.20.068,Serial_Dependence_U,2023.2.3,Win32,59.880239520962,,,,,,1191.5625999999045,88,4,1191.5627000000477,88,,,,1195.7215999999046,1196.2195,1195.2047999999522,1195.7214999999999,1192.5719000000952,1195.2047000000475,1196.2195,1196.7162000000476,1196.7162999999523,1199.0087000000476,1668,1199.0087999999523,3,1199.0235999999045,4,3,123,29,1,1.6,0.7,Time
,,349889,001,女,21,2025-06-03_19h37.20.068,Serial_Dependence_U,2023.2.3,Win32,59.880239520962,,,,,,1199.0239000000952,347,4,1199.0239000000952,347,,,,1202.7714000000954,1203.2697999999523,1202.2547999999522,1202.7712999999521,1200.0210999999044,1202.2547000000475,1203.2697999999523,1203.7659999999998,1203.7665999999044,1205.9547000000475,1416,1205.9547000000475,4,1205.9629000000953,4,4,124,7,1,1.2,0.7,Time
,,349889,001,女,21,2025-06-03_19h37.20.068,Serial_Dependence_U,2023.2.3,Win32,59.880239520962,,,,,,1205.9632000000477,256,4,1205.9632999999521,256,,,,1210.1207999999522,1210.6154999999999,1209.6039000000953,1210.1207999999522,1206.9707000000476,1209.6039000000953,1210.6155999999046,1211.1195999999045,1211.1195999999045,1213.4540999999044,1800,1213.4542000000476,4,1213.4639000000952,4,5,125,9,1,1.6,0.7,Time
,,349889,001,女,21,2025-06-03_19h37.20.068,Serial_Dependence_U,2023.2.3,Win32,59.880239520962,,,,,,1213.4642999999521,0,4,1213.4644999999998,0,,,,1217.4537000000475,1217.9482000000476,1216.9372999999523,1217.4537000000475,1214.4705999999046,1216.937,1217.9484000000953,1218.4489999999998,1218.4490999999045,1220.3372999999522,1350,1220.3374000000952,3,1220.3449999999998,4,6,126,13,1,1.4,0.3,Time
,,349889,001,女,21,2025-06-03_19h37.20.068,Serial_Dependence_U,2023.2.3,Win32,59.880239520962,,,,,,1220.3454000000952,194,4,1220.3455,194,,,,1223.9034000000952,1224.3982000000476,1223.3867000000475,1223.9032999999522,1221.3532000000475,1223.3865999999045,1224.3984000000953,1224.8982000000476,1224.8982999999523,1226.786799999952,1500,1226.786799999952,5,1226.7944000000953,4,7,127,6,1,1,0.7,Time
,,349889,001,女,21,2025-06-03_19h37.20.068,Serial_Dependence_U,2023.2.3,Win32,59.880239520962,,,,,,1226.7947000000477,349,4,1226.7949000000954,349,,,,1230.3862999999521,1230.8809999999999,1229.8699000000952,1230.3862999999521,1227.8045999999044,1229.8699000000952,1230.8809999999999,1231.3825999999046,1231.3825999999046,1232.7010999999045,1114,1232.7012000000475,4,1232.7087999999521,4,8,128,11,1,1,0.3,Time
,,349889,001,女,21,2025-06-03_19h37.20.068,Serial_Dependence_U,2023.2.3,Win32,59.880239520962,,,,,,1232.7090999999045,13,4,1232.7092000000475,13,,,,1236.0527000000475,1236.5475999999046,1235.5364000000952,1236.0525999999045,1233.7027000000476,1235.5364000000952,1236.5477000000476,1237.0474000000952,1237.0474000000952,1238.4034000000952,933,1238.4035,4,1238.4127999999523,4,9,129,15,1,0.8,0.7,Time
,,349889,001,女,21,2025-06-03_19h37.20.068,Serial_Dependence_U,2023.2.3,Win32,59.880239520962,,,,,,1238.4130999999045,28,4,1238.4132999999522,28,,,,1242.2027000000476,1242.6972999999523,1241.6857000000475,1242.2025999999046,1239.4192000000476,1241.6855999999045,1242.6974000000953,1243.1970999999046,1243.1972999999523,1244.8025999999045,1018,1244.8025999999045,2,1244.8112999999523,4,10,130,12,1,1.2,0.3,Time
,,349889,001,女,21,2025-06-03_19h37.20.068,Serial_Dependence_U,2023.2.3,Win32,59.880239520962,,,,,,1244.8117000000475,146,4,1244.8117999999522,146,,,,1248.3692000000476,1248.8635,1247.8524000000953,1248.3690999999046,1245.8184999999999,1247.8524000000953,1248.8635,1249.3635999999046,1249.3637000000476,1250.8355,1350,1250.8355999999046,5,1250.8429000000954,4,11,131,26,1,1,0.7,Time
,,349889,001,女,21,2025-06-03_19h37.20.068,Serial_Dependence_U,2023.2.3,Win32,59.880239520962,,,,,,1250.8430999999046,321,4,1250.8432000000475,321,,,,1254.6350999999045,1255.1312999999523,1254.1184999999998,1254.635,1251.8517000000477,1254.1184000000953,1255.1312999999523,1255.6299000000952,1255.6299999999999,1257.1019999999999,1316,1257.1019999999999,4,1257.1099000000952,4,12,132,22,1,1.2,0.3,Time
,,349889,001,女,21,2025-06-03_19h37.20.068,Serial_Dependence_U,2023.2.3,Win32,59.880239520962,,,,,,1257.1102000000476,5,4,1257.1102999999523,5,,,,1260.5172999999522,1261.0132000000476,1260.0014999999999,1260.5172999999522,1258.1350999999045,1260.0014999999999,1261.0132000000476,1261.5142000000476,1261.5142999999523,1262.9195,1133,1262.9195999999044,5,1262.9285999999045,4,13,133,0,1,0.8,0.3,Time
,,349889,001,女,21,2025-06-03_19h37.20.068,Serial_Dependence_U,2023.2.3,Win32,59.880239520962,,,,,,1262.9290999999046,107,4,1262.9294000000953,107,,,,1267.1179000000952,1267.6125,1266.6012999999523,1267.1177999999522,1263.9340999999044,1266.6010999999046,1267.6125,1268.1139999999998,1268.1140999999045,1270.2015,1567,1270.2015999999046,3,1270.2099000000953,4,14,134,24,1,1.6,0.3,Time
,,349889,001,女,21,2025-06-03_19h37.20.068,Serial_Dependence_U,2023.2.3,Win32,59.880239520962,,,,,,1270.2102000000475,341,4,1270.2104000000952,341,,,,1273.9515,1274.4455999999045,1273.4505999999046,1273.9515,1271.2174000000953,1273.4505999999046,1274.4457999999522,1274.9454999999998,1274.9457000000475,1276.8182999999522,1433,1276.8184000000954,4,1276.8267999999523,4,15,135,27,1,1.2,0.7,Time
,,349889,001,女,21,2025-06-03_19h37.20.068,Serial_Dependence_U,2023.2.3,Win32,59.880239520962,,,,,,1276.8270999999045,357,4,1276.8272000000477,357,,,,1280.2167999999522,1280.7117000000476,1279.7002000000475,1280.2167000000477,1277.8337000000477,1279.7002000000475,1280.7117999999523,1281.2119000000953,1281.2119000000953,1282.5342999999523,1267,1282.5342999999523,5,1282.5427000000475,4,16,136,20,1,0.8,0.3,Time
,,349889,001,女,21,2025-06-03_19h37.20.068,Serial_Dependence_U,2023.2.3,Win32,59.880239520962,,,,,,1282.543,100,4,1282.5430999999046,100,,,,1285.9504000000952,1286.4447999999522,1285.4334000000952,1285.9504000000952,1283.5667999999523,1285.4334000000952,1286.4449000000952,1286.9450999999046,1286.945299999952,1288.9002999999523,1199,1288.9002999999523,5,1288.9077999999522,4,17,137,10,1,0.8,0.3,Time
,,349889,001,女,21,2025-06-03_19h37.20.068,Serial_Dependence_U,2023.2.3,Win32,59.880239520962,,,,,,1288.9080999999046,285,4,1288.9082000000476,285,,,,1292.8497999999522,1293.3442999999522,1292.3330999999046,1292.8497000000475,1289.8999000000952,1292.3330999999046,1293.3444000000952,1293.8485999999045,1293.8485999999045,1295.9167999999522,1567,1295.9169000000952,4,1295.9247999999523,4,18,138,28,1,1.4,0.7,Time
,,349889,001,女,21,2025-06-03_19h37.20.068,Serial_Dependence_U,2023.2.3,Win32,59.880239520962,,,,,,1295.9250999999044,278,4,1295.9252000000477,278,,,,1300.1159000000953,1300.6105999999045,1299.5994999999998,1300.1157999999523,1296.9305999999046,1299.5994999999998,1300.6107000000477,1301.1107000000477,1301.1109000000952,1303.8162999999522,1733,1303.8164000000952,4,1303.8245999999046,4,19,139,4,1,1.6,0.3,Time
,,349889,001,女,21,2025-06-03_19h37.20.068,Serial_Dependence_U,2023.2.3,Win32,59.880239520962,,,,,,1303.8247999999521,102,4,1303.8249000000953,102,,,,1307.7824000000953,1308.2772999999522,1307.2662000000475,1307.7822999999523,1304.8324000000953,1307.2660999999046,1308.2775,1308.7769999999998,1308.7770999999045,1310.3657000000476,1483,1310.3657000000476,4,1310.3732999999522,4,20,140,18,1,1.4,0.7,Time
,,349889,001,女,21,2025-06-03_19h37.20.068,Serial_Dependence_U,2023.2.3,Win32,59.880239520962,,,,,,1310.3737000000476,207,4,1310.3737999999523,207,,,,1314.5317999999522,1315.0267999999521,1314.0152999999523,1314.5317000000475,1311.3822000000475,1314.0152999999523,1315.0269000000953,1315.5269000000953,1315.5269000000953,1317.9152999999521,1600,1317.9154000000954,3,1317.9227000000476,4,21,141,19,1,1.6,0.7,Time
,,349889,001,女,21,2025-06-03_19h37.20.068,Serial_Dependence_U,2023.2.3,Win32,59.880239520962,,,,,,1317.923,212,4,1317.9230999999045,212,,,,1322.1147000000476,1322.6097000000475,1321.5984000000954,1322.1147000000476,1318.9315999999046,1321.5982000000477,1322.6097999999522,1323.1095999999045,1323.1097000000475,1325.5984000000954,1733,1325.5985999999045,4,1325.6072000000477,4,22,142,14,1,1.6,0.3,Time
,,349889,001,女,21,2025-06-03_19h37.20.068,Serial_Dependence_U,2023.2.3,Win32,59.880239520962,,,,,,1325.6074999999998,43,4,1325.6077000000475,43,,,,1329.1979000000952,1329.6955999999045,1328.6810999999045,1329.1977999999522,1326.615,1328.6809999999998,1329.6955999999045,1330.1924999999999,1330.1925999999046,1331.4814999999999,333,1331.4814999999999,1,1331.4885,4,23,143,21,1,1,0.3,Time
,,349889,001,女,21,2025-06-03_19h37.20.068,Serial_Dependence_U,2023.2.3,Win32,59.880239520962,,,,,,1331.488799999952,30,4,1331.4889000000953,30,,,,1335.0475,1335.5462999999522,1334.5309000000952,1335.0475,1332.4979999999998,1334.5307999999523,1335.5464000000952,1336.0422999999523,1336.0424999999998,1337.7312999999522,1083,1337.7312999999522,4,1337.7397000000476,4,24,144,16,1,1,0.7,Time
,,349889,001,女,21,2025-06-03_19h37.20.068,Serial_Dependence_U,2023.2.3,Win32,59.880239520962,,,,,,1337.74,255,4,1337.7400999999045,255,,,,1341.3307999999522,1341.8252999999522,1340.8139999999999,1341.3307999999522,1338.7472999999522,1340.8139999999999,1341.8254000000952,1342.329,1342.3290999999044,1344.4137999999523,850,1344.4139000000953,2,1344.4222999999522,4,25,145,1,1,1,0.3,Time
,,349889,001,女,21,2025-06-03_19h37.20.068,Serial_Dependence_U,2023.2.3,Win32,59.880239520962,,,,,,1344.4225999999046,270,4,1344.4227000000476,270,,,,1348.3800999999046,1348.8754000000952,1347.863799999952,1348.3799999999999,1345.4302999999522,1347.8637000000476,1348.8754999999999,1349.375,1349.3750999999045,1351.9804000000952,2033,1351.9805,5,1351.9897000000476,4,26,146,8,1,1.4,0.7,Time
,,349889,001,女,21,2025-06-03_19h37.20.068,Serial_Dependence_U,2023.2.3,Win32,59.880239520962,,,,,,1351.99,309,4,1351.9902000000475,309,,,,1355.9634999999998,1356.4577999999522,1355.4630999999044,1355.9634000000954,1352.9972000000475,1355.463,1356.4577999999522,1356.9584000000953,1356.9585,1360.1635999999046,1983,1360.1635999999046,5,1360.1720999999045,4,27,147,3,1,1.4,0.3,Time
,,349889,001,女,21,2025-06-03_19h37.20.068,Serial_Dependence_U,2023.2.3,Win32,59.880239520962,,,,,,1360.1725,231,4,1360.1725,231,,,,1363.5294999999999,1364.0265,1363.0127999999522,1363.5294999999999,1361.1799000000954,1363.0127999999522,1364.0265999999046,1364.5257999999521,1364.5259000000954,1366.7292999999522,1533,1366.7294000000952,5,1366.7364000000953,4,28,148,5,1,0.8,0.7,Time
,,349889,001,女,21,2025-06-03_19h37.20.068,Serial_Dependence_U,2023.2.3,Win32,59.880239520962,,,,,,1366.7367999999522,185,4,1366.7369000000954,185,,,,1370.744,1371.2444000000953,1370.2290999999045,1370.7439000000952,1367.7624000000953,1370.2290999999045,1371.2444000000953,1371.7409000000953,1371.741,1373.4459000000952,1217,1373.4459000000952,2,1373.4534000000954,4,29,149,23,1,1.4,0.3,Time
,,349889,001,女,21,2025-06-03_19h37.20.068,Serial_Dependence_U,2023.2.3,Win32,59.880239520962,,,,,,1373.4535999999046,4,5,1402.0145999999045,4,s,28.53429999995251,,1405.9944000000953,1406.488799999952,1405.4772999999523,1405.9942999999523,1403.0105999999046,1405.4772000000476,1406.488799999952,1406.9885,1406.9887000000476,1409.3107999999522,1633,1409.3107999999522,4,1409.3179000000953,5,0,150,13,1,1.4,0.3,Time
,,349889,001,女,21,2025-06-03_19h37.20.068,Serial_Dependence_U,2023.2.3,Win32,59.880239520962,,,,,,1409.3180999999045,154,5,1409.319,154,,,,1413.1102999999523,1413.6069000000953,1412.5935999999044,1413.1102000000476,1410.3267999999523,1412.5935999999044,1413.607,1414.1050999999045,1414.1052999999522,1415.394,783,1415.3942000000475,1,1415.4029000000953,5,1,151,12,1,1.2,0.3,Time
,,349889,001,女,21,2025-06-03_19h37.20.068,Serial_Dependence_U,2023.2.3,Win32,59.880239520962,,,,,,1415.4032000000475,10,5,1415.4032999999522,10,,,,1418.9934000000953,1419.4879999999998,1418.4765,1418.9932999999521,1416.4102000000476,1418.4764000000953,1419.4880999999045,1419.9879000000954,1419.9879999999998,1421.6602000000476,1100,1421.6602000000476,4,1421.6685999999045,5,2,152,21,1,1,0.3,Time
,,349889,001,女,21,2025-06-03_19h37.20.068,Serial_Dependence_U,2023.2.3,Win32,59.880239520962,,,,,,1421.6689999999999,301,5,1421.6690999999046,301,,,,1425.6427999999523,1426.1409000000954,1425.1415,1425.6427999999523,1422.6765999999045,1425.1412999999523,1426.1409000000954,1426.6377999999522,1426.6379000000952,1428.5114999999998,1251,1428.5115999999045,2,1428.5230999999046,5,3,153,23,1,1.4,0.3,Time
,,349889,001,女,21,2025-06-03_19h37.20.068,Serial_Dependence_U,2023.2.3,Win32,59.880239520962,,,,,,1428.5234000000953,326,5,1428.5235,326,,,,1432.1082999999521,1432.6040999999045,1431.5927000000477,1432.1082000000476,1429.5260999999045,1431.5927000000477,1432.6042000000475,1433.1042000000475,1433.1044000000952,1434.6930999999045,1233,1434.6930999999045,4,1434.7022000000477,5,4,154,11,1,1,0.3,Time
,,349889,001,女,21,2025-06-03_19h37.20.068,Serial_Dependence_U,2023.2.3,Win32,59.880239520962,,,,,,1434.7025999999046,217,5,1434.7027000000476,217,,,,1438.4765999999045,1438.9702999999522,1437.9755999999045,1438.4762999999523,1435.7089999999998,1437.9755,1438.9704000000952,1439.4702999999522,1439.4705,1441.3929000000953,1083,1441.3929000000953,2,1441.4015,5,5,155,2,1,1.2,0.3,Time
,,349889,001,女,21,2025-06-03_19h37.20.068,Serial_Dependence_U,2023.2.3,Win32,59.880239520962,,,,,,1441.4019000000953,302,5,1441.4019999999998,302,,,,1445.3917000000476,1445.8864999999998,1444.8752999999522,1445.3917000000476,1442.4089000000952,1444.8752000000477,1445.8865999999045,1446.3889000000952,1446.389,1448.7757000000477,1633,1448.7757999999521,4,1448.7842000000476,5,6,156,3,1,1.4,0.3,Time
,,349889,001,女,21,2025-06-03_19h37.20.068,Serial_Dependence_U,2023.2.3,Win32,59.880239520962,,,,,,1448.7845999999045,316,5,1448.7847000000477,316,,,,1452.7415999999046,1453.2362000000476,1452.2252999999523,1452.7415999999046,1449.7919000000952,1452.2252000000476,1453.2362000000476,1453.7365999999045,1453.7367000000477,1455.4747999999522,1383,1455.4749000000952,3,1455.4817999999523,5,7,157,8,1,1.4,0.7,Time
,,349889,001,女,21,2025-06-03_19h37.20.068,Serial_Dependence_U,2023.2.3,Win32,59.880239520962,,,,,,1455.4820999999044,94,5,1455.4822000000477,94,,,,1459.4407000000476,1459.9362000000476,1458.9247000000476,1459.4405999999046,1456.4912999999522,1458.9245999999046,1459.9362000000476,1460.4365999999045,1460.4367000000475,1462.908,1767,1462.9080999999046,4,1462.9155999999045,5,8,158,18,1,1.4,0.7,Time
,,349889,001,女,21,2025-06-03_19h37.20.068,Serial_Dependence_U,2023.2.3,Win32,59.880239520962,,,,,,1462.9157999999522,72,5,1462.9159000000952,72,,,,1466.6740999999045,1467.1687999999522,1466.1572999999523,1466.674,1463.9242000000477,1466.1572000000476,1467.1687999999522,1467.6700999999046,1467.6702000000475,1469.8222000000476,1331,1469.8222999999523,4,1469.8307999999522,5,9,159,17,1,1.2,0.7,Time
,,349889,001,女,21,2025-06-03_19h37.20.068,Serial_Dependence_U,2023.2.3,Win32,59.880239520962,,,,,,1469.8312000000476,349,5,1469.8312999999523,349,,,,1473.1729000000953,1473.6684000000953,1472.657,1473.1727999999523,1470.8239999999998,1472.657,1473.6685,1474.1709000000953,1474.1709000000953,1476.2075,1334,1476.2075999999045,5,1476.2145999999045,5,10,160,5,1,0.8,0.7,Time
,,349889,001,女,21,2025-06-03_19h37.20.068,Serial_Dependence_U,2023.2.3,Win32,59.880239520962,,,,,,1476.2149000000952,358,5,1476.2150999999046,358,,,,1479.9737999999522,1480.4682000000475,1479.4567999999522,1479.9737000000475,1477.2239000000952,1479.4567000000475,1480.4682000000475,1480.9682000000475,1480.9684000000952,1482.8402000000476,1100,1482.8402999999523,2,1482.8487999999522,5,11,161,27,1,1.2,0.7,Time
,,349889,001,女,21,2025-06-03_19h37.20.068,Serial_Dependence_U,2023.2.3,Win32,59.880239520962,,,,,,1482.8492000000476,343,5,1482.849299999952,343,,,,1486.6062999999522,1487.1009000000952,1486.0900999999046,1486.6062000000477,1483.8567000000476,1486.09,1487.1009000000952,1487.6022999999523,1487.6022999999523,1489.6572999999523,1234,1489.6574000000953,3,1489.6647000000476,5,12,162,7,1,1.2,0.7,Time
,,349889,001,女,21,2025-06-03_19h37.20.068,Serial_Dependence_U,2023.2.3,Win32,59.880239520962,,,,,,1489.665,176,5,1489.665,176,,,,1493.2225999999046,1493.7175,1492.706,1493.2224999999999,1490.6734000000952,1492.7059000000952,1493.7175,1494.2177999999521,1494.2179999999998,1496.1897999999521,1317,1496.1897999999521,5,1496.1964000000953,5,13,163,26,1,1,0.7,Time
,,349889,001,女,21,2025-06-03_19h37.20.068,Serial_Dependence_U,2023.2.3,Win32,59.880239520962,,,,,,1496.1967000000475,165,5,1496.1967999999522,165,,,,1500.389,1500.8837999999523,1499.8724000000952,1500.3889000000952,1497.2057000000475,1499.8724000000952,1500.8837999999523,1501.3835999999046,1501.3837999999523,1503.8727000000476,1316,1503.8727000000476,2,1503.8807000000477,5,14,164,24,1,1.6,0.3,Time
,,349889,001,女,21,2025-06-03_19h37.20.068,Serial_Dependence_U,2023.2.3,Win32,59.880239520962,,,,,,1503.8809999999999,233,5,1503.8810999999046,233,,,,1507.2554000000953,1507.7500999999045,1506.7390999999045,1507.2552999999523,1504.8719000000954,1506.7390999999045,1507.7500999999045,1508.2500999999045,1508.2502999999522,1509.9390999999046,1300,1509.9390999999046,5,1509.9460999999046,5,15,165,0,1,0.8,0.3,Time
,,349889,001,女,21,2025-06-03_19h37.20.068,Serial_Dependence_U,2023.2.3,Win32,59.880239520962,,,,,,1509.9464000000953,95,5,1509.9465,95,,,,1514.1385999999045,1514.6332999999522,1513.6215999999044,1514.1384999999998,1510.9537000000475,1513.6215999999044,1514.6332999999522,1515.1330999999045,1515.1330999999045,1517.5887999999522,1633,1517.5887999999522,3,1517.5962999999522,5,16,166,14,1,1.6,0.3,Time
,,349889,001,女,21,2025-06-03_19h37.20.068,Serial_Dependence_U,2023.2.3,Win32,59.880239520962,,,,,,1517.5965999999046,240,5,1517.5967000000476,240,,,,1520.9377999999522,1521.4329000000953,1520.4214000000952,1520.9377999999522,1518.588,1520.4212999999522,1521.433,1521.9367999999522,1521.9369000000952,1523.7045999999045,1200,1523.7047000000475,5,1523.7127999999523,5,17,167,15,1,0.8,0.7,Time
,,349889,001,女,21,2025-06-03_19h37.20.068,Serial_Dependence_U,2023.2.3,Win32,59.880239520962,,,,,,1523.7130999999044,277,5,1523.7132000000477,277,,,,1527.8722999999522,1528.3657999999523,1527.3707999999522,1527.8722999999522,1524.7052999999523,1527.3707999999522,1528.3659000000953,1528.8654999999999,1528.8655999999046,1531.9047000000476,2416,1531.9047999999523,5,1531.9119000000953,5,18,168,4,1,1.6,0.3,Time
,,349889,001,女,21,2025-06-03_19h37.20.068,Serial_Dependence_U,2023.2.3,Win32,59.880239520962,,,,,,1531.9120999999045,212,5,1531.9122999999522,212,,,,1535.5039000000952,1535.9985,1534.9874000000952,1535.5039000000952,1532.9207000000476,1534.9874000000952,1535.9985999999046,1536.4999000000953,1536.5,1539.0044000000953,1583,1539.0045999999045,5,1539.014,5,19,169,1,1,1,0.3,Time
,,349889,001,女,21,2025-06-03_19h37.20.068,Serial_Dependence_U,2023.2.3,Win32,59.880239520962,,,,,,1539.0142999999523,100,5,1539.0144000000953,100,,,,1542.4005999999044,1542.8997999999522,1541.8869000000952,1542.4005,1540.0202999999522,1541.8869000000952,1542.8999000000952,1543.4022000000475,1543.4022000000475,1545.437,1216,1545.437,5,1545.4457000000475,5,20,170,10,1,0.8,0.3,Time
,,349889,001,女,21,2025-06-03_19h37.20.068,Serial_Dependence_U,2023.2.3,Win32,59.880239520962,,,,,,1545.4460999999046,253,5,1545.4462000000476,253,,,,1549.6029000000954,1550.098,1549.0862999999522,1549.6029000000954,1546.4532999999522,1549.0862000000475,1550.0982000000477,1550.5977000000476,1550.5977999999523,1552.4032999999522,1633,1552.4032999999522,3,1552.4120999999045,5,21,171,29,1,1.6,0.7,Time
,,349889,001,女,21,2025-06-03_19h37.20.068,Serial_Dependence_U,2023.2.3,Win32,59.880239520962,,,,,,1552.4125999999046,241,5,1552.4125999999046,241,,,,1556.5694000000954,1557.0659000000953,1556.0530999999046,1556.5692999999521,1553.4195,1556.0529999999999,1557.0659000000953,1557.5672000000475,1557.5672000000475,1561.1360999999044,2716,1561.1362000000477,5,1561.1444000000952,5,22,172,19,1,1.6,0.7,Time
,,349889,001,女,21,2025-06-03_19h37.20.068,Serial_Dependence_U,2023.2.3,Win32,59.880239520962,,,,,,1561.1445999999046,156,5,1561.1447000000476,156,,,,1564.6979999999999,1565.2009999999998,1564.1859000000952,1564.6977999999522,1562.1527999999523,1564.1859000000952,1565.2009999999998,1565.6970999999046,1565.6972000000476,1567.4699000000953,1017,1567.4699999999998,3,1567.4782000000475,5,23,173,16,1,1,0.7,Time
,,349889,001,女,21,2025-06-03_19h37.20.068,Serial_Dependence_U,2023.2.3,Win32,59.880239520962,,,,,,1567.4785999999046,152,5,1567.4785999999046,152,,,,1571.6352000000477,1572.1299999999999,1571.1177000000475,1571.6352000000477,1568.4854000000953,1571.1175999999045,1572.1300999999046,1572.6302999999523,1572.6305,1575.2357000000477,1633,1575.2357999999522,3,1575.2430999999046,5,24,174,9,1,1.6,0.7,Time
,,349889,001,女,21,2025-06-03_19h37.20.068,Serial_Dependence_U,2023.2.3,Win32,59.880239520962,,,,,,1575.2432999999521,159,5,1575.2434000000953,159,,,,1579.2015,1579.6962000000476,1578.6850999999044,1579.2014000000952,1576.252,1578.6850999999044,1579.6962000000476,1580.1962999999523,1580.1965,1583.3687999999522,1684,1583.3687999999522,4,1583.3765999999046,5,25,175,28,1,1.4,0.7,Time
,,349889,001,女,21,2025-06-03_19h37.20.068,Serial_Dependence_U,2023.2.3,Win32,59.880239520962,,,,,,1583.3769000000952,279,5,1583.3770999999044,279,,,,1586.9352000000476,1587.4302000000475,1586.4345999999045,1586.9352000000476,1584.4012999999522,1586.4345999999045,1587.4302000000475,1587.9295,1587.9295999999044,1589.8345999999046,1167,1589.8345999999046,4,1589.8420999999046,5,26,176,6,1,1,0.7,Time
,,349889,001,女,21,2025-06-03_19h37.20.068,Serial_Dependence_U,2023.2.3,Win32,59.880239520962,,,,,,1589.8424000000953,312,5,1589.8424000000953,312,,,,1593.6344000000952,1594.129,1593.1180999999046,1593.6342999999522,1590.8509999999999,1593.118,1594.129,1594.6285999999045,1594.6287000000475,1596.9675999999045,1500,1596.9675999999045,4,1596.9755999999045,5,27,177,22,1,1.2,0.3,Time
,,349889,001,女,21,2025-06-03_19h37.20.068,Serial_Dependence_U,2023.2.3,Win32,59.880239520962,,,,,,1596.9759999999999,260,5,1596.9759999999999,260,,,,1600.3325,1600.8284000000954,1599.8172000000475,1600.3324000000953,1597.9842000000476,1599.8170999999045,1600.8284999999998,1601.3287999999523,1601.3289000000952,1603.2012999999522,1217,1603.2014000000952,5,1603.2092000000475,5,28,178,25,1,0.8,0.7,Time
,,349889,001,女,21,2025-06-03_19h37.20.068,Serial_Dependence_U,2023.2.3,Win32,59.880239520962,,,,,,1603.2095,230,5,1603.2095999999046,230,,,,1606.6000999999046,1607.0949000000953,1606.0835,1606.6000999999046,1604.2169999999999,1606.0835,1607.0949000000953,1607.5825,1607.5825,1609.6172000000477,1283,1609.6172000000477,5,1609.6249000000953,5,29,179,20,1,0.8,0.3,Time
,,349889,001,女,21,2025-06-03_19h37.20.068,Serial_Dependence_U,2023.2.3,Win32,59.880239520962,,,,,,1609.6252999999522,210,6,1633.9189000000952,210,s,24.264499999999998,,1638.0614999999998,1638.5600999999044,1637.5487999999523,1638.0614000000953,1634.9154000000954,1637.5487000000476,1638.5602999999521,1639.0599000000952,1639.06,1641.8322999999523,1833,1641.8322999999523,4,1641.8407999999522,6,0,180,29,1,1.6,0.7,Time
,,349889,001,女,21,2025-06-03_19h37.20.068,Serial_Dependence_U,2023.2.3,Win32,59.880239520962,,,,,,1641.8412000000476,44,6,1641.8425999999045,44,,,,1645.4312999999522,1645.9275999999045,1644.915,1645.4312999999522,1642.8482000000477,1644.915,1645.9277000000475,1646.4265999999045,1646.4265999999045,1648.7655,1300,1648.7655999999045,5,1648.7737999999522,6,1,181,11,1,1,0.3,Time
,,349889,001,女,21,2025-06-03_19h37.20.068,Serial_Dependence_U,2023.2.3,Win32,59.880239520962,,,,,,1648.774,132,6,1648.7742000000476,132,,,,1652.3310999999046,1652.8302000000476,1651.8142000000475,1652.3310999999046,1649.7812000000476,1651.8142000000475,1652.8302000000476,1653.3259000000953,1653.3259999999998,1655.4487999999521,1300,1655.4489000000954,5,1655.4565,6,2,182,16,1,1,0.7,Time
,,349889,001,女,21,2025-06-03_19h37.20.068,Serial_Dependence_U,2023.2.3,Win32,59.880239520962,,,,,,1655.4567000000475,194,6,1655.4569000000952,194,,,,1658.8474000000954,1659.3422000000476,1658.3307999999522,1658.8472999999522,1656.4642000000476,1658.3307999999522,1659.3424000000953,1659.8422000000476,1659.8424000000953,1661.1807999999521,1149,1661.1807999999521,5,1661.1885,6,3,183,10,1,0.8,0.3,Time
,,349889,001,女,21,2025-06-03_19h37.20.068,Serial_Dependence_U,2023.2.3,Win32,59.880239520962,,,,,,1661.1887000000477,277,6,1661.1889000000954,277,,,,1665.3312999999523,1665.8249999999998,1664.8309000000952,1665.3312000000476,1662.1974000000953,1664.8307999999522,1665.8250999999045,1666.3252999999522,1666.3254000000952,1668.5815,1617,1668.5815999999045,3,1668.5894000000953,6,4,184,9,1,1.6,0.7,Time
,,349889,001,女,21,2025-06-03_19h37.20.068,Serial_Dependence_U,2023.2.3,Win32,59.880239520962,,,,,,1668.5897999999522,199,6,1668.5897999999522,199,,,,1672.3804000000953,1672.8747000000476,1671.8635,1672.3802999999523,1669.597,1671.8634000000952,1672.8747999999523,1673.379,1673.379,1675.1805,1200,1675.1805,3,1675.1879000000952,6,5,185,22,1,1.2,0.3,Time
,,349889,001,女,21,2025-06-03_19h37.20.068,Serial_Dependence_U,2023.2.3,Win32,59.880239520962,,,,,,1675.1882000000476,86,6,1675.1882999999523,86,,,,1678.9797000000476,1679.4747999999522,1678.4634999999998,1678.9797000000476,1676.1964000000953,1678.4634999999998,1679.475,1679.9754000000953,1679.9755999999045,1682.0969000000953,1233,1682.0969000000953,3,1682.1055,6,6,186,12,1,1.2,0.3,Time
,,349889,001,女,21,2025-06-03_19h37.20.068,Serial_Dependence_U,2023.2.3,Win32,59.880239520962,,,,,,1682.1057999999523,120,6,1682.1059000000953,120,,,,1685.4627999999523,1685.9617000000476,1684.9477000000477,1685.4627999999523,1683.1127999999521,1684.9475,1685.9617000000476,1686.4577000000477,1686.4577999999522,1687.9964000000953,883,1687.9965,4,1688.0049000000952,6,7,187,5,1,0.8,0.7,Time
,,349889,001,女,21,2025-06-03_19h37.20.068,Serial_Dependence_U,2023.2.3,Win32,59.880239520962,,,,,,1688.0052999999523,33,6,1688.0055,33,,,,1692.1954999999998,1692.6905,1691.6789999999999,1692.1954999999998,1689.0124000000953,1691.6789999999999,1692.6905,1693.1782999999523,1693.1782999999523,1695.3129000000952,1400,1695.3129999999999,2,1695.3207000000475,6,8,188,14,1,1.6,0.3,Time
,,349889,001,女,21,2025-06-03_19h37.20.068,Serial_Dependence_U,2023.2.3,Win32,59.880239520962,,,,,,1695.3209000000952,246,6,1695.3210999999046,246,,,,1698.7130999999044,1699.2105999999046,1698.1954999999998,1698.713,1696.328,1698.1954000000953,1699.2105999999046,1699.711,1699.711,1701.946,1150,1701.946,5,1701.9537999999523,6,9,189,0,1,0.8,0.3,Time
,,349889,001,女,21,2025-06-03_19h37.20.068,Serial_Dependence_U,2023.2.3,Win32,59.880239520962,,,,,,1701.9542000000476,169,6,1701.9542999999521,169,,,,1705.8952999999522,1706.3899000000952,1705.3785999999045,1705.8952000000477,1702.945299999952,1705.3785999999045,1706.3899000000952,1706.8897999999522,1706.8899000000952,1709.1954999999998,1450,1709.1955999999045,3,1709.2047999999522,6,10,190,8,1,1.4,0.7,Time
,,349889,001,女,21,2025-06-03_19h37.20.068,Serial_Dependence_U,2023.2.3,Win32,59.880239520962,,,,,,1709.2050999999046,304,6,1709.2052000000476,304,,,,1712.7947999999521,1713.2894000000954,1712.2779999999998,1712.7947999999521,1710.2112999999522,1712.2779000000953,1713.2894999999999,1713.7897000000476,1713.7897999999523,1715.7455999999045,1233,1715.7455999999045,4,1715.7537000000475,6,11,191,21,1,1,0.3,Time
,,349889,001,女,21,2025-06-03_19h37.20.068,Serial_Dependence_U,2023.2.3,Win32,59.880239520962,,,,,,1715.754,168,6,1715.7540999999046,168,,,,1719.3447000000476,1719.8424000000953,1718.8279000000953,1719.3447000000476,1716.7639000000952,1718.8277999999523,1719.8424000000953,1720.339,1720.339,1722.2454000000953,1116,1722.2454000000953,4,1722.2535999999045,6,12,192,1,1,1,0.3,Time
,,349889,001,女,21,2025-06-03_19h37.20.068,Serial_Dependence_U,2023.2.3,Win32,59.880239520962,,,,,,1722.2539000000952,190,6,1722.254,190,,,,1726.2439000000952,1726.7422000000477,1725.7275,1726.2439000000952,1723.2597000000476,1725.7274000000953,1726.7422000000477,1727.2387000000476,1727.2389000000953,1729.461,1367,1729.4610999999045,3,1729.4684000000952,6,13,193,13,1,1.4,0.3,Time
,,349889,001,女,21,2025-06-03_19h37.20.068,Serial_Dependence_U,2023.2.3,Win32,59.880239520962,,,,,,1729.4687000000476,232,6,1729.4687000000476,232,,,,1732.8600999999046,1733.3549000000953,1732.3439000000953,1732.86,1730.4772000000476,1732.3437000000476,1733.3549999999998,1733.8549000000953,1733.8549999999998,1735.8939000000953,1301,1735.894,5,1735.9010999999045,6,14,194,20,1,0.8,0.3,Time
,,349889,001,女,21,2025-06-03_19h37.20.068,Serial_Dependence_U,2023.2.3,Win32,59.880239520962,,,,,,1735.9015,255,6,1735.9015999999046,255,,,,1739.8602000000476,1740.3572999999521,1739.3434000000952,1739.8600999999046,1736.9099999999999,1739.3434000000952,1740.3572999999521,1740.8587000000475,1740.8587999999522,1743.5940999999045,1900,1743.5942000000475,5,1743.6017999999522,6,15,195,18,1,1.4,0.7,Time
,,349889,001,女,21,2025-06-03_19h37.20.068,Serial_Dependence_U,2023.2.3,Win32,59.880239520962,,,,,,1743.6020999999046,35,6,1743.6020999999046,35,,,,1747.1594000000953,1747.6544999999999,1746.6427999999523,1747.1594000000953,1744.6099000000952,1746.6427000000476,1747.6545999999046,1748.154,1748.154,1749.943,1650,1749.943,5,1749.9519000000953,6,16,196,26,1,1,0.7,Time
,,349889,001,女,21,2025-06-03_19h37.20.068,Serial_Dependence_U,2023.2.3,Win32,59.880239520962,,,,,,1749.9522000000477,131,6,1749.9522999999522,131,,,,1754.1259000000953,1754.6205999999045,1753.6090999999046,1754.1257999999523,1750.9759999999999,1753.6090999999046,1754.6207000000477,1755.1232999999522,1755.1234000000952,1757.5762999999522,1900,1757.5762999999522,4,1757.5849999999998,6,17,197,19,1,1.6,0.7,Time
,,349889,001,女,21,2025-06-03_19h37.20.068,Serial_Dependence_U,2023.2.3,Win32,59.880239520962,,,,,,1757.5852999999522,265,6,1757.5855,265,,,,1761.5424000000953,1762.0374000000952,1761.0257000000477,1761.5422999999523,1758.5922000000476,1761.0255999999044,1762.0375,1762.5372999999522,1762.5375,1765.3762000000477,1683,1765.3762999999522,4,1765.3845,6,18,198,28,1,1.4,0.7,Time
,,349889,001,女,21,2025-06-03_19h37.20.068,Serial_Dependence_U,2023.2.3,Win32,59.880239520962,,,,,,1765.3847999999523,172,6,1765.385,172,,,,1769.1557999999523,1769.6532000000475,1768.6417999999521,1769.1557999999523,1766.3752000000477,1768.6417000000476,1769.6535,1770.1564000000953,1770.1564000000953,1772.2087999999521,1250,1772.2089000000954,3,1772.2165999999045,6,19,199,2,1,1.2,0.3,Time
,,349889,001,女,21,2025-06-03_19h37.20.068,Serial_Dependence_U,2023.2.3,Win32,59.880239520962,,,,,,1772.2169000000952,20,6,1772.2170999999046,20,,,,1776.3914000000952,1776.8860999999044,1775.875,1776.3912999999523,1773.2085,1775.8749000000953,1776.8862000000477,1777.3862000000477,1777.3864000000954,1779.9917000000476,1823,1779.9917999999523,4,1780.0004000000952,6,20,200,4,1,1.6,0.3,Time
,,349889,001,女,21,2025-06-03_19h37.20.068,Serial_Dependence_U,2023.2.3,Win32,59.880239520962,,,,,,1780.0007999999523,132,6,1780.0007999999523,132,,,,1783.7422999999521,1784.2367999999522,1783.2410999999045,1783.7422000000477,1781.0077000000476,1783.241,1784.2367999999522,1784.7359000000952,1784.7359999999999,1786.4077999999522,1433,1786.4077999999522,4,1786.4154999999998,6,21,201,17,1,1.2,0.7,Time
,,349889,001,女,21,2025-06-03_19h37.20.068,Serial_Dependence_U,2023.2.3,Win32,59.880239520962,,,,,,1786.4159000000952,104,6,1786.416,104,,,,1789.7579000000953,1790.2520999999044,1789.2412000000477,1789.757799999952,1787.4074999999998,1789.2410999999045,1790.2520999999044,1790.752,1790.7520999999044,1792.6409000000954,917,1792.6409000000954,4,1792.6477999999522,6,22,202,15,1,0.8,0.7,Time
,,349889,001,女,21,2025-06-03_19h37.20.068,Serial_Dependence_U,2023.2.3,Win32,59.880239520962,,,,,,1792.6480999999046,286,6,1792.6482000000476,286,,,,1796.3897000000477,1796.8850999999045,1795.8737000000476,1796.3895999999045,1793.6404000000953,1795.8735999999046,1796.8850999999045,1797.3852999999522,1797.3855999999046,1799.4572999999523,1316,1799.4575,4,1799.4660999999046,6,23,203,7,1,1.2,0.7,Time
,,349889,001,女,21,2025-06-03_19h37.20.068,Serial_Dependence_U,2023.2.3,Win32,59.880239520962,,,,,,1799.4664000000953,50,6,1799.4665,50,,,,1803.0232000000476,1803.5179999999998,1802.5067999999521,1803.0232000000476,1800.4732999999521,1802.5067000000477,1803.5180999999045,1804.0179999999998,1804.0182000000475,1806.0899000000952,1483,1806.09,5,1806.0979000000953,6,24,204,6,1,1,0.7,Time
,,349889,001,女,21,2025-06-03_19h37.20.068,Serial_Dependence_U,2023.2.3,Win32,59.880239520962,,,,,,1806.0982999999521,10,6,1806.0984000000954,10,,,,1809.4565,1809.9527000000476,1808.9395999999044,1809.4564000000953,1807.1064000000952,1808.9395999999044,1809.9527999999523,1810.4512000000475,1810.4514000000952,1812.3567999999523,1100,1812.3569000000953,5,1812.365,6,25,205,25,1,0.8,0.7,Time
,,349889,001,女,21,2025-06-03_19h37.20.068,Serial_Dependence_U,2023.2.3,Win32,59.880239520962,,,,,,1812.3652999999522,274,6,1812.3654000000952,274,,,,1816.5560999999045,1817.0507000000475,1816.0394000000954,1816.5559999999998,1813.3727999999521,1816.0394000000954,1817.0507999999522,1817.5540999999046,1817.5540999999046,1820.0900999999046,1734,1820.0902000000476,4,1820.0990999999046,6,26,206,24,1,1.6,0.3,Time
,,349889,001,女,21,2025-06-03_19h37.20.068,Serial_Dependence_U,2023.2.3,Win32,59.880239520962,,,,,,1820.0995999999045,270,6,1820.0997999999522,270,,,,1824.0889000000952,1824.5837000000477,1823.5722999999523,1824.0889000000952,1821.1055999999046,1823.5722999999523,1824.5837999999521,1825.0870999999045,1825.0870999999045,1827.9227000000476,1867,1827.9227000000476,5,1827.9325,6,27,207,23,1,1.4,0.3,Time
,,349889,001,女,21,2025-06-03_19h37.20.068,Serial_Dependence_U,2023.2.3,Win32,59.880239520962,,,,,,1827.9327999999523,37,6,1827.933,37,,,,1831.6884000000953,1832.1885999999045,1831.1719000000953,1831.6884000000953,1828.9390999999046,1831.1717999999523,1832.1885999999045,1832.6874000000953,1832.6875,1834.6050999999045,1550,1834.6050999999045,4,1834.6135,6,28,208,27,1,1.2,0.7,Time
,,349889,001,女,21,2025-06-03_19h37.20.068,Serial_Dependence_U,2023.2.3,Win32,59.880239520962,,,,,,1834.613799999952,27,6,1834.6139000000953,27,,,,1838.6069000000953,1839.0994000000953,1838.0915999999045,1838.6064000000952,1835.6215,1838.0895999999045,1839.0994000000953,1839.5999000000952,1839.6,1841.5552999999522,767,1841.5552999999522,1,1841.5632999999523,6,29,209,3,1,1.4,0.3,Time
,,349889,001,女,21,2025-06-03_19h37.20.068,Serial_Dependence_U,2023.2.3,Win32,59.880239520962,,,,,,1841.5637000000477,317,7,1844.8075,317,s,3.216000000000122,,1848.3709000000952,1848.8657999999523,1847.8542999999522,1848.3707999999522,1845.821,1847.8542000000475,1848.866,1849.3692000000476,1849.3692000000476,1851.2214999999999,967,1851.2214999999999,3,1851.2287999999521,7,0,210,26,1,1,0.7,Time
,,349889,001,女,21,2025-06-03_19h37.20.068,Serial_Dependence_U,2023.2.3,Win32,59.880239520962,,,,,,1851.2289999999998,8,7,1851.2299000000953,8,,,,1854.9872000000476,1855.4820999999044,1854.471,1854.9870999999046,1852.2375,1854.471,1855.4822000000477,1855.9820999999044,1855.9822000000477,1858.3712999999523,1617,1858.3712999999523,5,1858.3795999999045,7,1,211,17,1,1.2,0.7,Time
,,349889,001,女,21,2025-06-03_19h37.20.068,Serial_Dependence_U,2023.2.3,Win32,59.880239520962,,,,,,1858.3797999999522,85,7,1858.3799999999999,85,,,,1862.570299999952,1863.0649000000953,1862.0534000000953,1862.5702000000476,1859.3870999999046,1862.0532999999523,1863.0649000000953,1863.5665999999046,1863.5665999999046,1865.2542999999523,717,1865.2544000000953,1,1865.2630999999046,7,2,212,24,1,1.6,0.3,Time
,,349889,001,女,21,2025-06-03_19h37.20.068,Serial_Dependence_U,2023.2.3,Win32,59.880239520962,,,,,,1865.2634999999998,284,7,1865.2637000000475,284,,,,1869.0505999999045,1869.5520999999046,1868.5365999999046,1869.0504999999998,1866.2705999999046,1868.5364000000952,1869.5520999999046,1870.0484000000952,1870.0485999999046,1871.7704999999999,967,1871.7704999999999,2,1871.7782999999522,7,3,213,22,1,1.2,0.3,Time
,,349889,001,女,21,2025-06-03_19h37.20.068,Serial_Dependence_U,2023.2.3,Win32,59.880239520962,,,,,,1871.7785999999046,295,7,1871.7787000000476,295,,,,1875.3697999999522,1875.8642999999522,1874.8527999999521,1875.3697999999522,1872.7862000000475,1874.8527000000477,1875.8642999999522,1876.3642999999522,1876.3642999999522,1878.7707000000476,1133,1878.7707000000476,4,1878.78,7,4,214,11,1,1,0.3,Time
,,349889,001,女,21,2025-06-03_19h37.20.068,Serial_Dependence_U,2023.2.3,Win32,59.880239520962,,,,,,1878.7802999999521,255,7,1878.7805999999046,255,,,,1882.7359999999999,1883.2307000000476,1882.2192000000475,1882.7359999999999,1879.7860999999045,1882.2190999999045,1883.2307000000476,1883.7305999999046,1883.7307000000476,1886.4195999999044,1650,1886.4195999999044,4,1886.4264000000953,7,5,215,8,1,1.4,0.7,Time
,,349889,001,女,21,2025-06-03_19h37.20.068,Serial_Dependence_U,2023.2.3,Win32,59.880239520962,,,,,,1886.4267000000475,97,7,1886.4267999999522,97,,,,1889.8189000000953,1890.3135,1889.3022999999523,1889.8187999999523,1887.4355999999045,1889.3022000000476,1890.3135999999045,1890.8139000000954,1890.8139999999999,1892.4527999999523,800,1892.4527999999523,3,1892.4599999999998,7,6,216,20,1,0.8,0.3,Time
,,349889,001,女,21,2025-06-03_19h37.20.068,Serial_Dependence_U,2023.2.3,Win32,59.880239520962,,,,,,1892.4602999999522,178,7,1892.4605,178,,,,1896.0017000000475,1896.4964000000953,1895.4854000000953,1896.0017000000475,1893.4520999999045,1895.4854000000953,1896.4964000000953,1896.9964000000953,1896.9964000000953,1898.7194000000952,1017,1898.7195,3,1898.7269999999999,7,7,217,16,1,1,0.7,Time
,,349889,001,女,21,2025-06-03_19h37.20.068,Serial_Dependence_U,2023.2.3,Win32,59.880239520962,,,,,,1898.7274000000953,168,7,1898.7275,168,,,,1902.5017000000475,1902.9965999999044,1901.9849000000952,1902.5015999999046,1899.7182000000475,1901.9847999999522,1902.9967000000477,1903.4962999999523,1903.4965,1906.1352000000477,1750,1906.1352000000477,5,1906.1427999999523,7,8,218,2,1,1.2,0.3,Time
,,349889,001,女,21,2025-06-03_19h37.20.068,Serial_Dependence_U,2023.2.3,Win32,59.880239520962,,,,,,1906.1430999999045,73,7,1906.1432000000475,73,,,,1910.1175999999045,1910.6129000000954,1909.6012000000476,1910.1174999999998,1907.1679000000952,1909.6012000000476,1910.6129000000954,1911.1125,1911.1125999999044,1913.8514000000953,1883,1913.8515,5,1913.8602000000476,7,9,219,18,1,1.4,0.7,Time
,,349889,001,女,21,2025-06-03_19h37.20.068,Serial_Dependence_U,2023.2.3,Win32,59.880239520962,,,,,,1913.8605,289,7,1913.8607000000477,289,,,,1917.6507000000477,1918.1455999999046,1917.1342999999522,1917.6505999999044,1914.8674000000954,1917.1342000000475,1918.1457999999523,1918.6455999999046,1918.6457999999523,1921.1350999999045,1700,1921.1352000000477,5,1921.1425,7,10,220,12,1,1.2,0.3,Time
,,349889,001,女,21,2025-06-03_19h37.20.068,Serial_Dependence_U,2023.2.3,Win32,59.880239520962,,,,,,1921.1427999999523,136,7,1921.1429000000953,136,,,,1925.1180999999046,1925.6117000000477,1924.617,1925.118,1922.1505,1924.617,1925.6119000000954,1926.1115999999045,1926.1117000000477,1927.7175999999045,1067,1927.7177000000477,2,1927.7265,7,11,221,13,1,1.4,0.3,Time
,,349889,001,女,21,2025-06-03_19h37.20.068,Serial_Dependence_U,2023.2.3,Win32,59.880239520962,,,,,,1927.7269999999999,318,7,1927.7270999999046,318,,,,1931.1167000000476,1931.6114000000953,1930.6,1931.1167000000476,1928.7334999999998,1930.5999000000952,1931.6115,1932.1129000000954,1932.1129999999998,1933.934,1050,1933.9340999999044,5,1933.9427000000476,7,12,222,0,1,0.8,0.3,Time
,,349889,001,女,21,2025-06-03_19h37.20.068,Serial_Dependence_U,2023.2.3,Win32,59.880239520962,,,,,,1933.9430999999045,338,7,1933.9432000000477,338,,,,1938.0994999999998,1938.5947000000476,1937.5837999999521,1938.0994000000953,1934.9502000000475,1937.5837000000477,1938.5949000000953,1939.0945999999046,1939.0947999999523,1941.3499000000952,1817,1941.35,4,1941.3577999999522,7,13,223,9,1,1.6,0.7,Time
,,349889,001,女,21,2025-06-03_19h37.20.068,Serial_Dependence_U,2023.2.3,Win32,59.880239520962,,,,,,1941.3580999999044,260,7,1941.3582000000476,260,,,,1944.9492999999522,1945.4440999999044,1944.4325999999046,1944.9492000000475,1942.366,1944.4325,1945.4442000000477,1945.9442999999521,1945.9444000000954,1947.6160999999045,950,1947.6160999999045,2,1947.6232000000475,7,14,224,21,1,1,0.3,Time
,,349889,001,女,21,2025-06-03_19h37.20.068,Serial_Dependence_U,2023.2.3,Win32,59.880239520962,,,,,,1947.6235999999046,169,7,1947.6237000000476,169,,,,1951.3825,1951.877,1950.8655999999046,1951.3824000000952,1948.6325999999046,1950.8655999999046,1951.8770999999044,1952.3770999999044,1952.3772999999521,1955.3342999999522,1666,1955.3342999999522,5,1955.3449999999998,7,15,225,27,1,1.2,0.7,Time
,,349889,001,女,21,2025-06-03_19h37.20.068,Serial_Dependence_U,2023.2.3,Win32,59.880239520962,,,,,,1955.3454000000952,243,7,1955.3455,243,,,,1959.5154000000953,1960.0134000000953,1958.9987000000476,1959.5152999999523,1956.3654999999999,1958.9985999999046,1960.0134999999998,1960.5104000000952,1960.5104999999999,1962.5665999999046,1484,1962.5667000000476,2,1962.5742000000475,7,16,226,19,1,1.6,0.7,Time
,,349889,001,女,21,2025-06-03_19h37.20.068,Serial_Dependence_U,2023.2.3,Win32,59.880239520962,,,,,,1962.5745999999046,86,7,1962.5747999999521,86,,,,1966.7654000000953,1967.2595999999046,1966.2482000000475,1966.7652999999523,1963.5817999999522,1966.2480999999045,1967.2597000000476,1967.7595999999046,1967.7599000000953,1970.2814000000953,1233,1970.2814000000953,2,1970.2902999999521,7,17,227,4,1,1.6,0.3,Time
,,349889,001,女,21,2025-06-03_19h37.20.068,Serial_Dependence_U,2023.2.3,Win32,59.880239520962,,,,,,1970.2907999999522,86,7,1970.2907999999522,86,,,,1974.2644000000953,1974.7592999999522,1973.7477999999521,1974.2644000000953,1971.2812999999521,1973.7477000000476,1974.7595,1975.2592999999522,1975.2594000000952,1978.6645999999046,2033,1978.6647000000476,5,1978.6727000000476,7,18,228,3,1,1.4,0.3,Time
,,349889,001,女,21,2025-06-03_19h37.20.068,Serial_Dependence_U,2023.2.3,Win32,59.880239520962,,,,,,1978.673,71,7,1978.6730999999045,71,,,,1982.2642999999523,1982.7592000000475,1981.7477000000476,1982.2642000000476,1979.6767999999522,1981.7475999999044,1982.7594000000952,1983.2589000000953,1983.2590999999045,1985.7815999999045,1167,1985.7817000000475,4,1985.7897999999523,7,19,229,1,1,1,0.3,Time
,,349889,001,女,21,2025-06-03_19h37.20.068,Serial_Dependence_U,2023.2.3,Win32,59.880239520962,,,,,,1985.7902000000477,207,7,1985.7902000000477,207,,,,1989.5467999999523,1990.0417000000475,1989.0305999999046,1989.5467000000476,1986.7972999999522,1989.0304999999998,1990.0417999999522,1990.542,1990.5420999999046,1992.714,1250,1992.7142000000476,3,1992.7237000000475,7,20,230,7,1,1.2,0.7,Time
,,349889,001,女,21,2025-06-03_19h37.20.068,Serial_Dependence_U,2023.2.3,Win32,59.880239520962,,,,,,1992.724,297,7,1992.724,297,,,,1996.08,1996.5752000000475,1995.5635,1996.08,1993.7302000000475,1995.5634000000953,1996.5752999999522,1997.079,1997.079,1999.3307999999522,1200,1999.3309000000952,5,1999.3404000000953,7,21,231,5,1,0.8,0.7,Time
,,349889,001,女,21,2025-06-03_19h37.20.068,Serial_Dependence_U,2023.2.3,Win32,59.880239520962,,,,,,1999.3407999999522,168,7,1999.3410999999046,168,,,,2003.2802999999521,2003.7747999999522,2002.7797000000476,2003.2802000000477,2000.3465999999046,2002.7795999999046,2003.7749000000952,2004.2759000000954,2004.2759000000954,2007.2469000000954,1600,2007.2470999999045,4,2007.2550999999046,7,22,232,28,1,1.4,0.7,Time
,,349889,001,女,21,2025-06-03_19h37.20.068,Serial_Dependence_U,2023.2.3,Win32,59.880239520962,,,,,,2007.2555,228,7,2007.2557999999522,228,,,,2010.8084000000952,2011.3105999999045,2010.2977999999523,2010.8082999999522,2008.2622999999521,2010.2977000000476,2011.3105999999045,2011.8070999999045,2011.8072000000475,2013.5129000000952,1000,2013.513,3,2013.52,7,23,233,6,1,1,0.7,Time
,,349889,001,女,21,2025-06-03_19h37.20.068,Serial_Dependence_U,2023.2.3,Win32,59.880239520962,,,,,,2013.5202000000477,112,7,2013.5204000000954,112,,,,2016.8624000000952,2017.3574000000954,2016.3459000000953,2016.8622000000476,2014.5122999999521,2016.3459000000953,2017.3575999999046,2017.8569000000953,2017.8569000000953,2019.2795999999046,450,2019.2795999999046,1,2019.2869999999998,7,24,234,15,1,0.8,0.7,Time
,,349889,001,女,21,2025-06-03_19h37.20.068,Serial_Dependence_U,2023.2.3,Win32,59.880239520962,,,,,,2019.2872999999522,160,7,2019.2874000000952,160,,,,2023.4289999999999,2023.9232999999522,2022.9285999999045,2023.4289999999999,2020.2957000000476,2022.9285,2023.9234000000952,2024.4232999999522,2024.4235999999046,2025.7795999999046,567,2025.7797000000476,1,2025.7889000000953,7,25,235,29,1,1.6,0.7,Time
,,349889,001,女,21,2025-06-03_19h37.20.068,Serial_Dependence_U,2023.2.3,Win32,59.880239520962,,,,,,2025.7892000000477,25,7,2025.7892999999522,25,,,,2029.1450999999045,2029.6397000000477,2028.6285999999045,2029.1450999999045,2026.7952999999522,2028.6285999999045,2029.6399000000952,2030.1395999999045,2030.1397000000477,2031.5622999999523,900,2031.5624000000953,4,2031.5707999999522,7,26,236,25,1,0.8,0.7,Time
,,349889,001,女,21,2025-06-03_19h37.20.068,Serial_Dependence_U,2023.2.3,Win32,59.880239520962,,,,,,2031.5710999999046,140,7,2031.5712999999523,140,,,,2035.5612999999523,2036.0559999999998,2035.0449999999998,2035.5612000000476,2032.578,2035.0447999999521,2036.0559999999998,2036.5434000000953,2036.5434000000953,2039.0119000000952,1600,2039.012,4,2039.0209000000953,7,27,237,23,1,1.4,0.3,Time
,,349889,001,女,21,2025-06-03_19h37.20.068,Serial_Dependence_U,2023.2.3,Win32,59.880239520962,,,,,,2039.0212999999524,57,7,2039.0214000000954,57,,,,2042.4112000000475,2042.9059000000955,2041.894900000095,2042.4112000000475,2040.0279000000953,2041.894799999952,2042.9059000000955,2043.4059999999997,2043.4060999999044,2044.595,717,2044.5952000000477,2,2044.6032000000475,7,28,238,10,1,0.8,0.3,Time
,,349889,001,女,21,2025-06-03_19h37.20.068,Serial_Dependence_U,2023.2.3,Win32,59.880239520962,,,,,,2044.6035,209,7,2044.6035,209,,,,2048.7937999999526,2049.2889000000955,2048.2779000000955,2048.793700000048,2045.6094999999998,2048.2777999999525,2049.289,2049.789,2049.789200000048,2052.0947999999526,1532,2052.0949000000955,3,2052.103599999905,7,29,239,14,1,1.6,0.3,Time
,,349889,001,女,21,2025-06-03_19h37.20.068,Serial_Dependence_U,2023.2.3,Win32,59.880239520962,,,,,,2052.1039000000956,105,8,2100.4602999999524,105,s,48.33489999985704,,2104.4079000000957,2104.9024000000954,2103.891099999905,2104.4077999999527,2101.4577000000477,2103.891,2104.9024000000954,2105.4049000000955,2105.405,2106.958700000048,1483,2106.9589000000956,4,2106.9667999999524,8,0,240,28,1,1.4,0.7,Time
,,349889,001,女,21,2025-06-03_19h37.20.068,Serial_Dependence_U,2023.2.3,Win32,59.880239520962,,,,,,2106.967200000048,206,8,2106.9682999999523,206,,,,2110.757700000048,2111.2555,2110.2410999999047,2110.757700000048,2107.974200000048,2110.241,2111.255599999905,2111.7522000000477,2111.7524000000953,2113.907700000048,1286,2113.9077999999527,4,2113.9152999999524,8,1,241,2,1,1.2,0.3,Time
,,349889,001,女,21,2025-06-03_19h37.20.068,Serial_Dependence_U,2023.2.3,Win32,59.880239520962,,,,,,2113.9155999999048,169,8,2113.9157000000478,169,,,,2117.273700000048,2117.7717999999522,2116.7569000000954,2117.273599999905,2114.923700000048,2116.7567999999524,2117.7717999999522,2118.2684000000954,2118.2685,2120.9017999999523,1287,2120.9019000000953,5,2120.9097999999526,8,2,242,15,1,0.8,0.7,Time
,,349889,001,女,21,2025-06-03_19h37.20.068,Serial_Dependence_U,2023.2.3,Win32,59.880239520962,,,,,,2120.9100000000003,110,8,2120.910200000048,110,,,,2124.6520999999047,2125.1512999999522,2124.1354000000956,2124.652,2121.9020999999047,2124.135200000048,2125.1512999999522,2125.6514000000957,2125.6514000000957,2127.985099999905,1598,2127.9852999999525,5,2127.9945000000002,8,3,243,7,1,1.2,0.7,Time
,,349889,001,女,21,2025-06-03_19h37.20.068,Serial_Dependence_U,2023.2.3,Win32,59.880239520962,,,,,,2127.9947999999526,102,8,2127.9947999999526,102,,,,2131.935,2132.4342999999526,2131.4194000000957,2131.9349000000957,2128.985099999905,2131.4190999999046,2132.4342999999526,2132.9342999999526,2132.9342999999526,2135.884599999905,1992,2135.884599999905,5,2135.8932000000477,8,4,244,18,1,1.4,0.7,Time
,,349889,001,女,21,2025-06-03_19h37.20.068,Serial_Dependence_U,2023.2.3,Win32,59.880239520962,,,,,,2135.893599999905,144,8,2135.893700000048,144,,,,2139.8349000000953,2140.3340000000003,2139.318,2139.8347999999523,2136.884599999905,2139.3179000000955,2140.3340999999045,2140.8340000000003,2140.8340000000003,2143.334200000048,1719,2143.334200000048,4,2143.3422999999525,8,5,245,8,1,1.4,0.7,Time
,,349889,001,女,21,2025-06-03_19h37.20.068,Serial_Dependence_U,2023.2.3,Win32,59.880239520962,,,,,,2143.342599999905,228,8,2143.342700000048,228,,,,2146.9174000000953,2147.4172999999523,2146.401200000048,2146.9172999999523,2144.3342999999522,2146.4010000000003,2147.4172999999523,2147.9169000000957,2147.9169000000957,2150.1839000000955,1350,2150.1839000000955,5,2150.193099999905,8,6,246,21,1,1,0.3,Time
,,349889,001,女,21,2025-06-03_19h37.20.068,Serial_Dependence_U,2023.2.3,Win32,59.880239520962,,,,,,2150.1935000000003,86,8,2150.1935999999046,86,,,,2153.9505999999046,2154.4499000000956,2153.434200000048,2153.9504000000957,2151.2005999999046,2153.434099999905,2154.4499000000956,2154.9500000000003,2154.9500000000003,2157.5832999999525,1843,2157.5834000000955,5,2157.5909000000956,8,7,247,17,1,1.2,0.7,Time
,,349889,001,女,21,2025-06-03_19h37.20.068,Serial_Dependence_U,2023.2.3,Win32,59.880239520962,,,,,,2157.5912000000476,265,8,2157.5912999999523,265,,,,2161.766700000048,2162.266200000048,2161.2502999999524,2161.7665,2158.583599999905,2161.2500999999047,2162.266200000048,2162.7670000000003,2162.767099999905,2164.85,1467,2164.8502000000476,2,2164.8584000000956,8,8,248,14,1,1.6,0.3,Time
,,349889,001,女,21,2025-06-03_19h37.20.068,Serial_Dependence_U,2023.2.3,Win32,59.880239520962,,,,,,2164.858700000048,7,8,2164.858799999952,7,,,,2168.9997000000476,2169.499099999905,2168.483,2168.9995999999046,2165.8509000000954,2168.4829000000955,2169.499099999905,2169.9999000000953,2170,2172.566099999905,1768,2172.566200000048,4,2172.5729000000956,8,9,249,29,1,1.6,0.7,Time
,,349889,001,女,21,2025-06-03_19h37.20.068,Serial_Dependence_U,2023.2.3,Win32,59.880239520962,,,,,,2172.573200000048,341,8,2172.573200000048,341,,,,2175.916200000048,2176.4154000000954,2175.3990999999046,2175.916,2173.5660000000003,2175.3990999999046,2176.4154000000954,2176.9152999999524,2176.9152999999524,2179.0824000000953,1185,2179.0824000000953,5,2179.0914000000953,8,10,250,25,1,0.8,0.7,Time
,,349889,001,女,21,2025-06-03_19h37.20.068,Serial_Dependence_U,2023.2.3,Win32,59.880239520962,,,,,,2179.0917999999524,216,8,2179.0919000000954,216,,,,2182.465700000048,2182.965,2181.9494000000955,2182.465700000048,2180.0834000000955,2181.949099999905,2182.965,2183.465,2183.465099999905,2184.8487000000478,820,2184.8487000000478,3,2184.856200000048,8,11,251,10,1,0.8,0.3,Time
,,349889,001,女,21,2025-06-03_19h37.20.068,Serial_Dependence_U,2023.2.3,Win32,59.880239520962,,,,,,2184.8564000000956,123,8,2184.8565999999046,123,,,,2188.998599999905,2189.498,2188.4820999999047,2188.998599999905,2185.8487000000478,2188.482,2189.498,2189.9979000000953,2189.998,2191.9149000000957,1423,2191.915,2,2191.9224000000954,8,12,252,9,1,1.6,0.7,Time
