Scale_setup.started,Scale_setup.stopped,participant,session,sex,age,date,expName,psychopyVersion,OS,frameRate,Intro.started,Intro.stopped,key_resp_2.keys,key_resp_2.rt,key_resp_2.duration,block.started,direction,Block_id,block.stopped,trial_direction,Block_resp_2.keys,Block_resp_2.rt,Block_resp_2.duration,ITI.started,ITI.stopped,Mask_2.started,Mask_2.stopped,encoding.started,encoding.stopped,Cue.started,Cue.stopped,Response.started,Response.stopped,keyDuration,Feedback_Time.started,FeedbackID_T,Feedback_Time.stopped,trials.thisRepN,trials.thisTrialN,trials.thisN,trials.thisIndex,trials.ran,TimeDur,Coherence1,TrialType
0.00029999995231477783,0.0003999998569454988,355759,001,女,18,2025-06-03_12h51.02.642,Serial_Dependence_U,2023.2.3,Win32,59.88023952095548,,,,,,,,,,,,,,,,,,,,,,,,,,,,,,,,,,,
,,355759,001,女,18,2025-06-03_12h51.02.642,Serial_Dependence_U,2023.2.3,Win32,59.88023952095548,33.21309999990463,149.71470000004769,space,116.45709999990464,,,,,,,,,,,,,,,,,,,,,,,,,,,,,,,
,,355759,001,女,18,2025-06-03_12h51.02.642,Serial_Dependence_U,2023.2.3,Win32,59.88023952095548,,,,,,149.73559999990465,102,0,157.113,102,s,7.345499999999987,,160.71300000000002,161.2112999999523,160.19709999990465,160.71270000004768,158.12109999990463,160.19689999985695,161.21179999995235,161.71179999995235,161.7122000000477,162.9877999999523,150,162.98839999985694,1,163.98420000004768,0,0,0,1,1,1,0.3,Time
,,355759,001,女,18,2025-06-03_12h51.02.642,Serial_Dependence_U,2023.2.3,Win32,59.88023952095548,,,,,,163.98629999995234,64,0,163.98939999985697,64,,,,167.73639999985693,168.22770000004766,167.22039999985697,167.7362000000477,164.98589999985694,167.22020000004767,168.22789999985696,168.71689999985693,168.71709999990463,172.7112000000477,198,172.7112999999523,1,173.71020000004768,0,1,1,27,1,1.2,0.7,Time
,,355759,001,女,18,2025-06-03_12h51.02.642,Serial_Dependence_U,2023.2.3,Win32,59.88023952095548,,,,,,173.71109999990466,349,0,173.7115,349,,,,177.91039999985696,178.4092000000477,177.3945,177.91020000004767,174.72859999990465,177.3942999999523,178.4092000000477,178.90949999999998,178.90949999999998,180.07639999985696,213,180.0772000000477,1,181.07479999995235,0,2,2,24,1,1.6,0.3,Time
,,355759,001,女,18,2025-06-03_12h51.02.642,Serial_Dependence_U,2023.2.3,Win32,59.88023952095548,,,,,,181.07529999995234,108,0,181.07539999985693,108,,,,184.8165999999046,185.31529999995234,184.31089999985693,184.81650000000002,182.07709999990465,184.3107000000477,185.31539999985694,185.8147000000477,185.8147999999523,188.5005,184,188.5007000000477,1,189.4972999999523,0,3,3,17,1,1.2,0.7,Time
,,355759,001,女,18,2025-06-03_12h51.02.642,Serial_Dependence_U,2023.2.3,Win32,59.88023952095548,,,,,,189.4982000000477,289,0,189.49859999990463,289,,,,193.06570000004768,193.5625,192.54899999999998,193.0655,190.5002000000477,192.54889999985693,193.56259999990465,194.05759999990465,194.0577000000477,198.11539999985695,167,198.1155,1,199.10689999985698,0,4,4,26,1,1,0.7,Time
,,355759,001,女,18,2025-06-03_12h51.02.642,Serial_Dependence_U,2023.2.3,Win32,59.88023952095548,,,,,,199.10789999985695,198,0,199.1082999999523,198,,,,203.0957999999523,203.59320000004772,202.58120000004772,203.0957000000477,200.11429999995232,202.58109999990467,203.5932999999523,204.09339999985696,204.09359999990465,217.04539999985695,150,217.0457000000477,1,218.03679999995234,0,5,5,3,1,1.4,0.3,Time
,,355759,001,女,18,2025-06-03_12h51.02.642,Serial_Dependence_U,2023.2.3,Win32,59.88023952095548,,,,,,218.03750000000002,247,0,218.0377999999523,247,,,,221.42689999985697,221.92009999990466,220.90970000004768,221.42689999985697,219.04399999999998,220.90970000004768,221.9202000000477,222.41959999990462,222.41959999990462,234.24470000004766,184,234.2448999998569,1,235.23999999999995,0,6,6,0,1,0.8,0.3,Time
,,355759,001,女,18,2025-06-03_12h51.02.642,Serial_Dependence_U,2023.2.3,Win32,59.88023952095548,,,,,,235.24070000004764,45,0,235.24139999985692,45,,,,239.19370000004767,239.6843999998569,238.67659999990457,239.19359999990462,236.24339999985693,238.67649999999998,239.68449999999996,240.19149999999996,240.19170000004766,243.01020000004763,267,243.01049999999998,1,244.00099999999998,0,7,7,18,1,1.4,0.7,Time
,,355759,001,女,18,2025-06-03_12h51.02.642,Serial_Dependence_U,2023.2.3,Win32,59.88023952095548,,,,,,244.0020999999046,190,0,244.003,190,,,,247.9918999998569,248.48349999999994,247.47549999999995,247.9918999998569,245.00770000004763,247.4753999998569,248.48359999990458,248.97149999999993,248.97159999990458,253.05859999990457,184,253.05889999985692,1,254.04889999985693,0,8,8,23,1,1.4,0.3,Time
,,355759,001,女,18,2025-06-03_12h51.02.642,Serial_Dependence_U,2023.2.3,Win32,59.88023952095548,,,,,,254.04979999995226,200,0,254.04999999999995,200,,,,257.8390999999046,258.3320999999046,257.3227999999523,257.83899999999994,255.05549999999994,257.32270000004763,258.33220000004764,258.83599999999996,258.8360999999046,260.77279999995227,201,260.77299999999997,1,261.76489999985694,0,9,9,2,1,1.2,0.3,Time
,,355759,001,女,18,2025-06-03_12h51.02.642,Serial_Dependence_U,2023.2.3,Win32,59.88023952095548,,,,,,261.76599999999996,11,0,261.76620000004766,11,,,,265.7215999999046,266.2145,265.2208999998569,265.7215999999046,262.77299999999997,265.2208999998569,266.2147000000476,266.7038999998569,266.70399999999995,269.6875999999046,166,269.6877999999523,1,270.6803999998569,0,10,10,28,1,1.4,0.7,Time
,,355759,001,女,18,2025-06-03_12h51.02.642,Serial_Dependence_U,2023.2.3,Win32,59.88023952095548,,,,,,270.6812000000476,111,0,270.68149999999997,111,,,,274.2702000000476,274.7628999998569,273.75379999995226,274.2700999999046,271.6873999998569,273.7537000000477,274.763,275.2627999999523,275.2628999998569,279.6535999999046,3300,279.6537999999523,5,280.64620000004766,0,11,11,21,1,1,0.3,Time
,,355759,001,女,18,2025-06-03_12h51.02.642,Serial_Dependence_U,2023.2.3,Win32,59.88023952095548,,,,,,280.6465999999046,201,0,280.6467999999523,201,,,,284.03049999999996,284.5290999999046,283.5125,284.03049999999996,281.6472999999523,283.51239999985694,284.52920000004764,285.0287999999523,285.0288999998569,303.66749999999996,15813,303.66770000004766,5,304.65899999999993,0,12,12,20,1,0.8,0.3,Time
,,355759,001,女,18,2025-06-03_12h51.02.642,Serial_Dependence_U,2023.2.3,Win32,59.88023952095548,,,,,,304.6598999998569,29,0,304.6600999999046,29,,,,308.6157999999523,309.1083999998569,308.0992999999523,308.61570000004764,305.6657999999523,308.09920000004763,309.1083999998569,309.5967999999523,309.59689999985693,319.58149999999995,9599,319.58170000004765,5,320.57920000004765,0,13,13,8,1,1.4,0.7,Time
,,355759,001,女,18,2025-06-03_12h51.02.642,Serial_Dependence_U,2023.2.3,Win32,59.88023952095548,,,,,,320.57989999985693,85,0,320.5802000000476,85,,,,324.56359999990457,325.05679999995226,324.0473999998569,324.5633999998569,321.5820999999046,324.04729999995226,325.0568999998569,325.5562999999523,325.5563999998569,328.9985,2434,328.99859999990457,5,329.98949999999996,0,14,14,13,1,1.4,0.3,Time
,,355759,001,女,18,2025-06-03_12h51.02.642,Serial_Dependence_U,2023.2.3,Win32,59.88023952095548,,,,,,329.99020000004765,321,0,329.9903999998569,321,,,,334.14820000004767,334.6427000000476,333.631,334.14820000004767,330.99839999985693,333.6308999998569,334.6427999999523,335.13879999995225,335.13899999999995,345.24549999999994,9248,345.24549999999994,5,346.24299999999994,0,15,15,29,1,1.6,0.7,Time
,,355759,001,女,18,2025-06-03_12h51.02.642,Serial_Dependence_U,2023.2.3,Win32,59.88023952095548,,,,,,346.2438999998569,349,0,346.24399999999997,349,,,,349.7935999999046,350.2865999999046,349.2773999998569,349.79349999999994,347.2457999999523,349.2773999998569,350.28670000004763,350.7920999999046,350.7920999999046,357.9772000000477,6832,357.9773999998569,5,358.9687999999523,0,16,16,6,1,1,0.7,Time
,,355759,001,女,18,2025-06-03_12h51.02.642,Serial_Dependence_U,2023.2.3,Win32,59.88023952095548,,,,,,358.9695999999046,124,0,358.9698999998569,124,,,,362.3097999999523,362.80179999995227,361.8087000000476,362.30970000004766,359.9760999999046,361.8085999999046,362.80199999999996,363.3015,363.3017000000477,370.67570000004764,3548,370.67589999985694,5,371.67220000004767,0,17,17,25,1,0.8,0.7,Time
,,355759,001,女,18,2025-06-03_12h51.02.642,Serial_Dependence_U,2023.2.3,Win32,59.88023952095548,,,,,,371.6728999998569,217,0,371.6730999999046,217,,,,375.4237999999523,375.9167000000476,374.90979999995227,375.42370000004763,372.674,374.9097000000476,375.9167999999523,376.4047999999523,376.4047999999523,380.0755,2166,380.0757000000476,5,381.06720000004765,0,18,18,7,1,1.2,0.7,Time
,,355759,001,女,18,2025-06-03_12h51.02.642,Serial_Dependence_U,2023.2.3,Win32,59.88023952095548,,,,,,381.0680999999046,26,0,381.0683999998569,26,,,,385.25749999999994,385.7495999999046,384.7418999998569,385.2573999998569,382.07420000004765,384.7417000000477,385.74970000004765,386.2547999999523,386.2548999998569,404.2543999998569,16746,404.2545999999046,5,405.24629999995227,0,19,19,14,1,1.6,0.3,Time
,,355759,001,女,18,2025-06-03_12h51.02.642,Serial_Dependence_U,2023.2.3,Win32,59.88023952095548,,,,,,405.24720000004766,3,0,405.24749999999995,3,,,,409.448,409.9455,408.9303999998569,409.44789999985693,406.2550999999046,408.93020000004765,409.9455,410.4455,410.4455999999046,428.6273999998569,14366,428.6277999999523,5,429.62629999995227,0,20,20,4,1,1.6,0.3,Time
,,355759,001,女,18,2025-06-03_12h51.02.642,Serial_Dependence_U,2023.2.3,Win32,59.88023952095548,,,,,,429.62679999995225,327,0,429.62699999999995,327,,,,433.4103999998569,433.90920000004763,432.8943999998569,433.41020000004767,430.6275999999046,432.8940999999046,433.90920000004763,434.4088999998569,434.4088999998569,436.69289999985693,1866,436.6930999999046,5,437.6918999998569,0,21,21,22,1,1.2,0.3,Time
,,355759,001,女,18,2025-06-03_12h51.02.642,Serial_Dependence_U,2023.2.3,Win32,59.88023952095548,,,,,,437.6922999999523,94,0,437.6923999998569,94,,,,441.84270000004767,442.3412999999523,441.3260999999046,441.8425,438.6930999999046,441.3260999999046,442.3412999999523,442.84120000004765,442.8412999999523,451.7243999998569,8482,451.7247000000476,5,452.7233999998569,0,22,22,19,1,1.6,0.7,Time
,,355759,001,女,18,2025-06-03_12h51.02.642,Serial_Dependence_U,2023.2.3,Win32,59.88023952095548,,,,,,452.72389999985694,174,0,452.724,174,,,,456.07420000004765,456.5727999999523,455.5580999999046,456.07399999999996,453.7245,455.5577999999523,456.5727999999523,457.07270000004763,457.07270000004763,457.20739999985693,119,457.2075999999046,1,458.2060999999046,0,23,23,5,1,0.8,0.7,Time
,,355759,001,女,18,2025-06-03_12h51.02.642,Serial_Dependence_U,2023.2.3,Win32,59.88023952095548,,,,,,458.2065999999046,253,0,458.20699999999994,253,,,,461.75629999995226,462.25539999985693,461.2402999999523,461.75620000004767,459.2068999998569,461.2400999999046,462.2555999999046,462.7552999999523,462.75539999985693,464.4725999999046,680,464.4728999998569,1,465.47170000004763,0,24,24,16,1,1,0.7,Time
,,355759,001,女,18,2025-06-03_12h51.02.642,Serial_Dependence_U,2023.2.3,Win32,59.88023952095548,,,,,,465.4720999999046,330,0,465.4722000000476,330,,,,469.2557999999523,469.75449999999995,468.73929999995227,469.2557000000476,466.4728999998569,468.73909999990457,469.75449999999995,470.2543999998569,470.25449999999995,471.92179999995227,1103,471.9220999999046,2,472.92070000004765,0,25,25,12,1,1.2,0.3,Time
,,355759,001,女,18,2025-06-03_12h51.02.642,Serial_Dependence_U,2023.2.3,Win32,59.88023952095548,,,,,,472.92120000004763,269,0,472.92120000004763,269,,,,476.3050999999046,476.8035999999046,475.7885999999046,476.3048999998569,473.9220999999046,475.78849999999994,476.8037000000476,477.3035,477.3035,479.0040999999046,1019,479.0043999998569,4,480.0032000000476,0,26,26,10,1,0.8,0.3,Time
,,355759,001,女,18,2025-06-03_12h51.02.642,Serial_Dependence_U,2023.2.3,Win32,59.88023952095548,,,,,,480.0037000000477,285,0,480.00379999995226,285,,,,484.15370000004765,484.6525999999046,483.6372999999523,484.15349999999995,481.0043999998569,483.63720000004764,484.6525999999046,485.1525999999046,485.1525999999046,486.5532999999523,998,486.5537000000477,1,487.5522999999523,0,27,27,9,1,1.6,0.7,Time
,,355759,001,女,18,2025-06-03_12h51.02.642,Serial_Dependence_U,2023.2.3,Win32,59.88023952095548,,,,,,487.5527000000476,62,0,487.5527999999523,62,,,,490.9028999998569,491.40159999990465,490.38639999985696,490.9025999999046,488.5532000000477,490.38609999990456,491.40170000004764,491.90170000004764,491.90179999995223,493.7025,1103,493.70289999985687,5,494.7012999999523,0,28,28,15,1,0.8,0.7,Time
,,355759,001,女,18,2025-06-03_12h51.02.642,Serial_Dependence_U,2023.2.3,Win32,59.88023952095548,,,,,,494.7017000000476,165,0,494.7017999999523,165,,,,498.28499999999997,498.7842000000477,497.7688999998569,498.28479999995227,495.7022999999523,497.7687999999523,498.7842000000477,499.2840999999046,499.2840999999046,500.4852000000476,817,500.4855999999046,2,501.48370000004763,0,29,29,11,1,1,0.3,Time
,,355759,001,女,18,2025-06-03_12h51.02.642,Serial_Dependence_U,2023.2.3,Win32,59.88023952095548,,,,,,501.4842999999523,251,1,506.4945999999046,251,s,4.983900000095332,,510.6673999998569,511.16579999995224,510.15039999985686,510.6670999999046,507.4842000000476,510.15029999995227,511.16589999985695,511.66570000004765,511.66570000004765,513.6497000000477,1230,513.65,2,513.6625999999046,1,0,30,24,1,1.6,0.3,Time
,,355759,001,女,18,2025-06-03_12h51.02.642,Serial_Dependence_U,2023.2.3,Win32,59.88023952095548,,,,,,513.6628999998569,148,1,513.6640999999046,148,,,,517.4164999999999,517.9150999999046,516.9005,517.4162999999522,514.6667999999523,516.9002000000477,517.9152000000477,518.4148999998569,518.4148999998569,524.4982000000476,3266,524.4984999999999,5,524.5110999999046,1,1,31,27,1,1.2,0.7,Time
,,355759,001,女,18,2025-06-03_12h51.02.642,Serial_Dependence_U,2023.2.3,Win32,59.88023952095548,,,,,,524.511399999857,265,1,524.5115,265,,,,528.4648999998569,528.9635,527.9483999998569,528.4647999999523,525.515,527.9482999999523,528.9635999999045,529.463399999857,529.463399999857,532.4803999998569,1539,532.4807000000476,4,532.4934999999999,1,2,32,8,1,1.4,0.7,Time
,,355759,001,女,18,2025-06-03_12h51.02.642,Serial_Dependence_U,2023.2.3,Win32,59.88023952095548,,,,,,532.4937999999523,261,1,532.4939999999999,261,,,,536.0804999999999,536.5792000000476,535.564,536.0802000000476,533.4972999999522,535.5637999999523,536.5792999999522,537.0792999999522,537.079399999857,538.313,636,538.3132000000477,1,538.3223999998569,1,3,33,1,1,1,0.3,Time
,,355759,001,女,18,2025-06-03_12h51.02.642,Serial_Dependence_U,2023.2.3,Win32,59.88023952095548,,,,,,538.3227000000477,308,1,538.3227000000477,308,,,,542.0627999999523,542.5617999999523,541.5468999998569,542.0627000000477,539.3135,541.5467000000476,542.5617999999523,543.0617000000476,543.0617000000476,544.3453999998569,307,544.3453999998569,1,544.3560999999046,1,4,34,7,1,1.2,0.7,Time
,,355759,001,女,18,2025-06-03_12h51.02.642,Serial_Dependence_U,2023.2.3,Win32,59.88023952095548,,,,,,544.3563999998569,137,1,544.3565,137,,,,548.4955,548.9942999999523,547.9789999999999,548.4952999999523,545.3462000000477,547.9787000000476,548.9943999998569,549.4943999998569,549.4943999998569,550.3782999999523,483,550.3785999999046,1,550.3895999999046,1,5,35,29,1,1.6,0.7,Time
,,355759,001,女,18,2025-06-03_12h51.02.642,Serial_Dependence_U,2023.2.3,Win32,59.88023952095548,,,,,,550.3898999998569,215,1,550.39,215,,,,553.7778999998569,554.2768999998569,553.2612000000477,553.7777000000476,551.3952000000477,553.2610999999046,554.2768999998569,554.7767000000476,554.7767999999522,556.0604999999999,750,556.0607999999522,2,556.0725999999046,1,6,36,20,1,0.8,0.3,Time
,,355759,001,女,18,2025-06-03_12h51.02.642,Serial_Dependence_U,2023.2.3,Win32,59.88023952095548,,,,,,556.073,358,1,556.0730999999046,358,,,,559.8270999999046,560.3260999999046,559.3110999999046,559.8268999998569,557.0778999998569,559.3109999999999,560.3260999999046,560.8259999999999,560.8260999999046,562.5105,1151,562.5107999999523,3,562.5240999999046,1,7,37,17,1,1.2,0.7,Time
,,355759,001,女,18,2025-06-03_12h51.02.642,Serial_Dependence_U,2023.2.3,Win32,59.88023952095548,,,,,,562.5243999998569,100,1,562.5245,100,,,,566.1102000000476,566.6087000000476,565.5937999999522,566.1100999999046,563.5270999999046,565.5935999999045,566.6087999999522,567.1087000000476,567.1087999999522,568.0595,534,568.0597999999522,1,568.0725,1,8,38,21,1,1,0.3,Time
,,355759,001,女,18,2025-06-03_12h51.02.642,Serial_Dependence_U,2023.2.3,Win32,59.88023952095548,,,,,,568.0727999999523,109,1,568.073,109,,,,571.4259999999999,571.9247000000477,570.9095,571.4258999998569,569.0767999999523,570.9092999999523,571.9247999999523,572.4247000000477,572.4247000000477,574.9252999999522,2159,574.9257999999522,5,574.9355999999046,1,9,39,5,1,0.8,0.7,Time
,,355759,001,女,18,2025-06-03_12h51.02.642,Serial_Dependence_U,2023.2.3,Win32,59.88023952095548,,,,,,574.9359999999999,113,1,574.9360999999046,113,,,,579.0759999999999,579.5737000000477,578.559,579.0755999999046,575.9255999999046,578.5587999999523,579.5737000000477,580.0737000000477,580.0737000000477,582.1075999999046,1644,582.107899999857,3,582.1195,1,10,40,19,1,1.6,0.7,Time
,,355759,001,女,18,2025-06-03_12h51.02.642,Serial_Dependence_U,2023.2.3,Win32,59.88023952095548,,,,,,582.1198999998569,75,1,582.12,75,,,,586.1072999999523,586.6065999999046,585.5908999998569,586.1070999999046,583.1242999999523,585.5907000000476,586.6065999999046,587.1060999999046,587.1062000000477,588.7735,1194,588.774,2,588.7862999999522,1,11,41,13,1,1.4,0.3,Time
,,355759,001,女,18,2025-06-03_12h51.02.642,Serial_Dependence_U,2023.2.3,Win32,59.88023952095548,,,,,,588.7867000000476,158,1,588.7867999999522,158,,,,592.756899999857,593.2552999999523,592.2400999999046,592.7567999999522,589.8072000000476,592.2398999998569,593.2552999999523,593.7552999999523,593.7552999999523,595.0393999998569,888,595.0397999999523,1,595.0522000000476,1,12,42,18,1,1.4,0.7,Time
,,355759,001,女,18,2025-06-03_12h51.02.642,Serial_Dependence_U,2023.2.3,Win32,59.88023952095548,,,,,,595.0525999999046,295,1,595.0527000000476,295,,,,599.2058999998569,599.704399999857,598.689399999857,599.2057000000476,596.0560999999046,598.6892000000477,599.7044999999999,600.204399999857,600.2044999999999,601.6550999999046,971,601.6555,1,601.6667000000476,1,13,43,9,1,1.6,0.7,Time
,,355759,001,女,18,2025-06-03_12h51.02.642,Serial_Dependence_U,2023.2.3,Win32,59.88023952095548,,,,,,601.6668999998569,355,1,601.6670999999046,355,,,,605.6215999999046,606.1202999999523,605.1052999999523,605.6215,602.6718999998569,605.1052000000476,606.1202999999523,606.6200999999046,606.6202000000477,607.4377000000477,290,607.4382000000477,1,607.449,1,14,44,28,1,1.4,0.7,Time
,,355759,001,女,18,2025-06-03_12h51.02.642,Serial_Dependence_U,2023.2.3,Win32,59.88023952095548,,,,,,607.4492999999522,83,1,607.4495,83,,,,611.2372999999523,611.7362000000477,610.7208999998569,611.2370999999046,608.4544999999999,610.7207999999523,611.7362999999523,612.2362999999523,612.2362999999523,614.2365999999046,1559,614.2367000000477,4,614.247,1,15,45,2,1,1.2,0.3,Time
,,355759,001,女,18,2025-06-03_12h51.02.642,Serial_Dependence_U,2023.2.3,Win32,59.88023952095548,,,,,,614.2472999999522,245,1,614.2472999999522,245,,,,618.2202999999523,618.7185999999045,617.704399999857,618.2202000000476,615.237,617.7040999999045,618.7185999999045,619.2187999999522,619.2187999999522,621.3025999999046,1552,621.3027999999523,4,621.3123999998569,1,16,46,23,1,1.4,0.3,Time
,,355759,001,女,18,2025-06-03_12h51.02.642,Serial_Dependence_U,2023.2.3,Win32,59.88023952095548,,,,,,621.3125999999046,66,1,621.3127999999523,66,,,,625.0857999999523,625.5843999998569,624.5692000000477,625.0857000000476,622.3025999999046,624.569,625.5844999999999,626.0843999998569,626.0843999998569,628.1518999998569,1293,628.1522999999523,4,628.1612999999522,1,17,47,12,1,1.2,0.3,Time
,,355759,001,女,18,2025-06-03_12h51.02.642,Serial_Dependence_U,2023.2.3,Win32,59.88023952095548,,,,,,628.1615999999046,260,1,628.1617000000476,260,,,,631.535,632.0335,631.0183999998569,631.535,629.1517000000476,631.0182999999523,632.0335,632.5337000000477,632.5337999999523,634.0843999998569,862,634.0847000000476,4,634.0949999999999,1,18,48,10,1,0.8,0.3,Time
,,355759,001,女,18,2025-06-03_12h51.02.642,Serial_Dependence_U,2023.2.3,Win32,59.88023952095548,,,,,,634.0952000000476,287,1,634.0952999999523,287,,,,637.6337999999523,638.1329999999999,637.117899999857,637.6337000000476,635.0843999998569,637.1177000000476,638.1329999999999,638.6327000000476,638.6327999999522,640.0497999999523,964,640.05,3,640.0588999998569,1,19,49,16,1,1,0.7,Time
,,355759,001,女,18,2025-06-03_12h51.02.642,Serial_Dependence_U,2023.2.3,Win32,59.88023952095548,,,,,,640.0592000000477,357,1,640.0592999999523,357,,,,643.8335,644.3322999999523,643.3167999999523,643.8332999999523,641.0504999999999,643.3165,644.3323999998569,644.832,644.8320999999046,646.7497999999523,831,646.7500999999046,1,646.7612999999523,1,20,50,22,1,1.2,0.3,Time
,,355759,001,女,18,2025-06-03_12h51.02.642,Serial_Dependence_U,2023.2.3,Win32,59.88023952095548,,,,,,646.7615999999045,190,1,646.7617000000477,190,,,,650.3487000000476,650.847899999857,649.8325999999046,650.3487000000476,647.766,649.8323999998569,650.847899999857,651.347899999857,651.347899999857,652.4649999999999,515,652.4652000000476,1,652.4765999999046,1,21,51,11,1,1,0.3,Time
,,355759,001,女,18,2025-06-03_12h51.02.642,Serial_Dependence_U,2023.2.3,Win32,59.88023952095548,,,,,,652.477,18,1,652.4770999999046,18,,,,655.8318999998569,656.3305999999046,655.3159999999999,655.8317999999523,653.4818999998569,655.3157000000476,656.3305999999046,656.8303999998569,656.8304999999999,658.098,820,658.0982999999522,3,658.1092000000476,1,22,52,15,1,0.8,0.7,Time
,,355759,001,女,18,2025-06-03_12h51.02.642,Serial_Dependence_U,2023.2.3,Win32,59.88023952095548,,,,,,658.1094999999999,299,1,658.1097000000476,299,,,,662.0973999998569,662.5962999999523,661.5810999999046,662.0972000000477,659.1147999999523,661.5808999998569,662.5962999999523,663.0962999999523,663.0963999998569,664.9637999999522,1166,664.9639999999999,2,664.9752000000476,1,23,53,3,1,1.4,0.3,Time
,,355759,001,女,18,2025-06-03_12h51.02.642,Serial_Dependence_U,2023.2.3,Win32,59.88023952095548,,,,,,664.9755999999046,304,1,664.9757000000476,304,,,,669.1632999999523,669.6622999999523,668.6468999998569,669.1632999999523,665.9805,668.6467000000476,669.6622999999523,670.1622000000476,670.1622000000476,671.8298999998569,1083,671.8302000000476,1,671.8440999999046,1,24,54,14,1,1.6,0.3,Time
,,355759,001,女,18,2025-06-03_12h51.02.642,Serial_Dependence_U,2023.2.3,Win32,59.88023952095548,,,,,,671.8444999999999,344,1,671.8448999998569,344,,,,676.0292999999523,676.5279999999999,675.5135999999046,676.0290999999046,672.8465,675.5133999998569,676.5279999999999,677.0278999998569,677.0278999998569,678.0285,582,678.0287000000476,1,678.0372000000476,1,25,55,4,1,1.6,0.3,Time
,,355759,001,女,18,2025-06-03_12h51.02.642,Serial_Dependence_U,2023.2.3,Win32,59.88023952095548,,,,,,678.0374999999999,229,1,678.0375999999046,229,,,,681.3952000000477,681.8938999998569,680.8785999999046,681.3950999999046,679.0455,680.8784999999999,681.8938999998569,682.3938999998569,682.3938999998569,683.8775999999046,1039,683.8778999998569,4,683.8895999999046,1,26,56,25,1,0.8,0.7,Time
,,355759,001,女,18,2025-06-03_12h51.02.642,Serial_Dependence_U,2023.2.3,Win32,59.88023952095548,,,,,,683.8897999999523,290,1,683.8898999998569,290,,,,687.4442000000477,687.943,686.9278999998569,687.4442000000477,684.895,686.9277999999523,687.9430999999046,688.4430999999046,688.4430999999046,690.0437000000477,900,690.044,2,690.0557000000476,1,27,57,6,1,1,0.7,Time
,,355759,001,女,18,2025-06-03_12h51.02.642,Serial_Dependence_U,2023.2.3,Win32,59.88023952095548,,,,,,690.0559999999999,81,1,690.0560999999046,81,,,,693.5990999999046,694.0922999999523,693.0937999999522,693.5989999999999,691.0602999999522,693.0935999999045,694.0922999999523,694.5922000000477,694.5922999999523,695.5592999999523,499,695.5595,1,695.5712000000476,1,28,58,26,1,1,0.7,Time
,,355759,001,女,18,2025-06-03_12h51.02.642,Serial_Dependence_U,2023.2.3,Win32,59.88023952095548,,,,,,695.5715999999046,197,1,695.5717000000476,197,,,,698.9597000000476,699.4582000000477,698.4427999999523,698.9595999999046,696.5767000000476,698.4427999999523,699.4582000000477,699.9582999999523,699.9582999999523,702.5754999999999,2001,702.5758999998569,5,702.5863999998569,1,29,59,0,1,0.8,0.3,Time
,,355759,001,女,18,2025-06-03_12h51.02.642,Serial_Dependence_U,2023.2.3,Win32,59.88023952095548,,,,,,702.5867000000477,93,2,705.6362000000477,93,s,3.0207000000476683,,709.4082000000476,709.9069999999999,708.8915,709.4078999998569,706.6258999998569,708.8912999999523,709.9069999999999,710.4068999998569,710.4068999998569,711.7407999999523,866,711.7410999999046,2,711.7505999999046,2,0,60,12,1,1.2,0.3,Time
,,355759,001,女,18,2025-06-03_12h51.02.642,Serial_Dependence_U,2023.2.3,Win32,59.88023952095548,,,,,,711.7508999998569,231,2,711.7520999999045,231,,,,715.2907000000477,715.7895999999046,714.7740999999046,715.2905,712.741,714.774,715.7895999999046,716.2895,716.2895999999046,720.7730999999046,2019,720.7733999998569,5,720.7857999999522,2,1,61,6,1,1,0.7,Time
,,355759,001,女,18,2025-06-03_12h51.02.642,Serial_Dependence_U,2023.2.3,Win32,59.88023952095548,,,,,,720.7862000000476,75,2,720.7862999999522,75,,,,724.3727999999522,724.8717000000477,723.8565,724.3727000000476,721.7897999999523,723.8562999999523,724.8717999999523,725.3715999999046,725.3717000000477,727.305399999857,830,727.3057999999522,2,727.3177000000477,2,2,62,21,1,1,0.3,Time
,,355759,001,女,18,2025-06-03_12h51.02.642,Serial_Dependence_U,2023.2.3,Win32,59.88023952095548,,,,,,727.3178999998569,67,2,727.318,67,,,,731.0720999999046,731.5708999998569,730.5552000000476,731.0718999998569,728.3222999999523,730.555,731.5708999998569,732.0707999999523,732.0707999999523,734.2049999999999,747,734.2053999998569,1,734.2187000000476,2,3,63,27,1,1.2,0.7,Time
,,355759,001,女,18,2025-06-03_12h51.02.642,Serial_Dependence_U,2023.2.3,Win32,59.88023952095548,,,,,,734.2190999999046,15,2,734.2192000000476,15,,,,738.2044999999999,738.7032000000477,737.6880999999046,738.2042999999522,735.2217000000477,737.688,738.7032000000477,739.2030999999046,739.2030999999046,740.5202999999523,821,740.5203999998569,1,740.5320999999046,2,4,64,3,1,1.4,0.3,Time
,,355759,001,女,18,2025-06-03_12h51.02.642,Serial_Dependence_U,2023.2.3,Win32,59.88023952095548,,,,,,740.5324999999999,13,2,740.5325999999046,13,,,,744.6872999999523,745.1857000000476,744.1707999999522,744.6870999999046,741.5378999998569,744.1705999999045,745.1857999999522,745.6855999999046,745.6857000000476,747.2360999999046,1061,747.2363999998569,1,747.2467999999523,2,5,65,9,1,1.6,0.7,Time
,,355759,001,女,18,2025-06-03_12h51.02.642,Serial_Dependence_U,2023.2.3,Win32,59.88023952095548,,,,,,747.247,26,2,747.2472000000477,26,,,,751.2192999999522,751.7182999999523,750.7030999999046,751.2192000000476,748.2362999999523,750.703,751.7182999999523,752.2182000000477,752.2182999999523,753.3023999998569,680,753.3025999999046,1,753.3147999999522,2,6,66,13,1,1.4,0.3,Time
,,355759,001,女,18,2025-06-03_12h51.02.642,Serial_Dependence_U,2023.2.3,Win32,59.88023952095548,,,,,,753.3150999999046,353,2,753.3152999999522,353,,,,757.5015999999046,758.0007999999523,756.9855999999046,757.5013999998569,754.318899999857,756.9853999998569,758.0007999999523,758.5005999999046,758.5007000000477,761.9843999998569,3116,761.9847000000476,5,761.9972000000477,2,7,67,4,1,1.6,0.3,Time
,,355759,001,女,18,2025-06-03_12h51.02.642,Serial_Dependence_U,2023.2.3,Win32,59.88023952095548,,,,,,761.9975,272,2,761.9975999999047,272,,,,765.9512000000476,766.4497999999522,765.4342999999523,765.9508999998569,763.0012999999523,765.4340999999046,766.4497999999522,766.9495999999046,766.9497000000476,769.3834999999999,1799,769.3835999999046,4,769.3932999999523,2,8,68,18,1,1.4,0.7,Time
,,355759,001,女,18,2025-06-03_12h51.02.642,Serial_Dependence_U,2023.2.3,Win32,59.88023952095548,,,,,,769.3935999999046,330,2,769.3935999999046,330,,,,772.9338999998569,773.4320999999046,772.4169999999999,772.9335999999046,770.3837000000476,772.4167999999523,773.4320999999046,773.932,773.9320999999046,774.5660999999046,149,774.5663999998569,1,774.5753999998569,2,9,69,26,1,1,0.7,Time
,,355759,001,女,18,2025-06-03_12h51.02.642,Serial_Dependence_U,2023.2.3,Win32,59.88023952095548,,,,,,774.5757000000476,342,2,774.5757999999523,342,,,,778.3159999999999,778.8147999999522,777.7993999998569,778.3158999998569,775.5663999998569,777.7992000000477,778.8147999999522,779.3145999999045,779.3147000000477,781.5820999999046,1457,781.5823999998569,4,781.5937000000476,2,10,70,17,1,1.2,0.7,Time
,,355759,001,女,18,2025-06-03_12h51.02.642,Serial_Dependence_U,2023.2.3,Win32,59.88023952095548,,,,,,781.5939999999999,67,2,781.5942000000476,67,,,,785.3487999999522,785.847,784.8317000000476,785.3487000000476,782.5988999998569,784.8315,785.8470999999046,786.347,786.3472000000477,788.8140999999046,1648,788.8145,5,788.8237999999523,2,11,71,7,1,1.2,0.7,Time
,,355759,001,女,18,2025-06-03_12h51.02.642,Serial_Dependence_U,2023.2.3,Win32,59.88023952095548,,,,,,788.8240999999045,84,2,788.8242000000477,84,,,,792.1638999998569,792.663,791.6477999999523,792.1637999999523,789.8145,791.6474999999999,792.663,793.163,793.163,795.497,1752,795.4970999999045,5,795.5098999998569,2,12,72,25,1,0.8,0.7,Time
,,355759,001,女,18,2025-06-03_12h51.02.642,Serial_Dependence_U,2023.2.3,Win32,59.88023952095548,,,,,,795.5102999999523,149,2,795.5103999998569,149,,,,799.2973999998569,799.795399999857,798.78,799.2972999999523,796.5137999999523,798.7798999998569,799.7955,800.2952999999522,800.295399999857,802.146399999857,1333,802.1469999999999,4,802.1573999998569,2,13,73,22,1,1.2,0.3,Time
,,355759,001,女,18,2025-06-03_12h51.02.642,Serial_Dependence_U,2023.2.3,Win32,59.88023952095548,,,,,,802.1577000000476,165,2,802.1577999999523,165,,,,805.7462999999523,806.2447000000476,805.2293999998569,805.7462000000477,803.1630999999046,805.2292000000476,806.2447000000476,806.7443999998569,806.7445,810.5285,3403,810.5287000000476,5,810.5438999998569,2,14,74,11,1,1,0.3,Time
,,355759,001,女,18,2025-06-03_12h51.02.642,Serial_Dependence_U,2023.2.3,Win32,59.88023952095548,,,,,,810.5442000000477,105,2,810.5442999999523,105,,,,814.7284999999999,815.2267999999523,814.2115,814.728399999857,811.5457999999522,814.2112999999523,815.2268999998569,815.7267999999523,815.7267999999523,817.4942999999523,1423,817.4947000000476,2,817.5065999999046,2,15,75,24,1,1.6,0.3,Time
,,355759,001,女,18,2025-06-03_12h51.02.642,Serial_Dependence_U,2023.2.3,Win32,59.88023952095548,,,,,,817.506899999857,151,2,817.507,151,,,,820.8947000000477,821.3927000000476,820.3775999999046,820.8945999999046,818.5108999998569,820.3774999999999,821.3927000000476,821.8927999999523,821.8927999999523,823.06,804,823.0603999998569,3,823.072,2,16,76,10,1,0.8,0.3,Time
,,355759,001,女,18,2025-06-03_12h51.02.642,Serial_Dependence_U,2023.2.3,Win32,59.88023952095548,,,,,,823.0723999998569,2,2,823.0723999998569,2,,,,826.4597999999522,826.9585,825.944,826.4595999999046,824.0765999999046,825.9437999999523,826.9585999999045,827.4585,827.4585999999045,829.0588999998569,1196,829.059,5,829.0718999998569,2,17,77,20,1,0.8,0.3,Time
,,355759,001,女,18,2025-06-03_12h51.02.642,Serial_Dependence_U,2023.2.3,Win32,59.88023952095548,,,,,,829.0722000000477,176,2,829.0723999998569,176,,,,833.2257999999523,833.7244999999999,832.7087999999522,833.2255999999046,830.0759999999999,832.7085999999045,833.7244999999999,834.2243999998569,834.2244999999999,835.8248999998569,1076,835.8249999999999,1,835.8375,2,18,78,19,1,1.6,0.7,Time
,,355759,001,女,18,2025-06-03_12h51.02.642,Serial_Dependence_U,2023.2.3,Win32,59.88023952095548,,,,,,835.8377999999523,12,2,835.8378999998569,12,,,,839.8248999998569,840.3237000000477,839.3085,839.8247000000476,836.842,839.3082999999523,840.3237999999523,840.8233999998569,840.8235,842.1245,879,842.1247000000476,1,842.1347999999523,2,19,79,23,1,1.4,0.3,Time
,,355759,001,女,18,2025-06-03_12h51.02.642,Serial_Dependence_U,2023.2.3,Win32,59.88023952095548,,,,,,842.135,12,2,842.1350999999046,12,,,,846.0742999999522,846.5727000000477,845.5573999998569,846.0742000000477,843.1242000000476,845.5572999999523,846.5727999999523,847.0727000000477,847.0728999998569,847.1737999999523,80,847.174,1,847.1863999998569,2,20,80,28,1,1.4,0.7,Time
,,355759,001,女,18,2025-06-03_12h51.02.642,Serial_Dependence_U,2023.2.3,Win32,59.88023952095548,,,,,,847.1867999999523,0,2,847.1868999998569,0,,,,850.973399999857,851.4722999999523,850.457,850.9732999999522,848.1902000000476,850.457,851.4723999998569,851.972,851.9720999999046,853.5890999999046,1265,853.5892000000476,4,853.6015999999046,2,21,81,2,1,1.2,0.3,Time
,,355759,001,女,18,2025-06-03_12h51.02.642,Serial_Dependence_U,2023.2.3,Win32,59.88023952095548,,,,,,853.602,216,2,853.602,216,,,,857.189,857.6878999998569,856.6737000000477,857.1887999999523,854.6065999999046,856.6735,857.6878999998569,858.188,858.1882000000477,859.7719999999999,1182,859.7720999999046,4,859.7842999999523,2,22,82,1,1,1,0.3,Time
,,355759,001,女,18,2025-06-03_12h51.02.642,Serial_Dependence_U,2023.2.3,Win32,59.88023952095548,,,,,,859.7845999999046,0,2,859.7847000000477,0,,,,863.1725,863.6705999999045,862.6557999999523,863.1722999999523,860.7887000000477,862.6555999999046,863.6705999999045,864.1707000000476,864.1707999999522,866.8542000000476,1031,866.8544999999999,4,866.8667999999523,2,23,83,0,1,0.8,0.3,Time
,,355759,001,女,18,2025-06-03_12h51.02.642,Serial_Dependence_U,2023.2.3,Win32,59.88023952095548,,,,,,866.8672999999523,263,2,866.867399999857,263,,,,870.8205999999046,871.3195999999045,870.3045999999046,870.8203999998569,867.8713999998569,870.3043999998569,871.3195999999045,871.8195999999045,871.8195999999045,874.0867000000477,1770,874.087,4,874.0965999999046,2,24,84,8,1,1.4,0.7,Time
,,355759,001,女,18,2025-06-03_12h51.02.642,Serial_Dependence_U,2023.2.3,Win32,59.88023952095548,,,,,,874.0967999999523,201,2,874.097,201,,,,877.4363999998569,877.9354999999999,876.9205999999045,877.4362000000476,875.0868999998569,876.9205,877.9355999999046,878.4354999999999,878.4355999999046,882.819,3551,882.8192000000477,5,882.8317000000476,2,25,85,15,1,0.8,0.7,Time
,,355759,001,女,18,2025-06-03_12h51.02.642,Serial_Dependence_U,2023.2.3,Win32,59.88023952095548,,,,,,882.832,231,2,882.8322999999523,231,,,,886.1862000000476,886.6847000000477,885.669899999857,886.1859999999999,883.8357999999523,885.6697000000477,886.6847999999522,887.1845,887.1845999999045,891.3350999999046,3632,891.3352999999523,5,891.3490999999046,2,26,86,5,1,0.8,0.7,Time
,,355759,001,女,18,2025-06-03_12h51.02.642,Serial_Dependence_U,2023.2.3,Win32,59.88023952095548,,,,,,891.3494999999999,206,2,891.3494999999999,206,,,,895.502,895.9995999999046,894.9847000000476,895.5017999999523,892.3515,894.9843999998569,895.9995999999046,896.4997000000476,896.4997000000476,897.5002999999523,312,897.5005,1,897.5117000000477,2,27,87,29,1,1.6,0.7,Time
,,355759,001,女,18,2025-06-03_12h51.02.642,Serial_Dependence_U,2023.2.3,Win32,59.88023952095548,,,,,,897.512,239,2,897.5122000000476,239,,,,901.0675,901.5657000000476,900.5507999999522,901.0672999999523,898.5167999999522,900.5507000000476,901.5657999999523,902.0657000000476,902.0657000000476,904.8167000000476,2531,904.817,5,904.8305999999046,2,28,88,16,1,1,0.7,Time
,,355759,001,女,18,2025-06-03_12h51.02.642,Serial_Dependence_U,2023.2.3,Win32,59.88023952095548,,,,,,904.8307999999523,314,2,904.831,314,,,,909.016,909.5147999999523,908.4993999998569,909.0158999998569,905.833,908.4992999999523,909.5148999998569,910.0145999999046,910.0148999998569,912.1147999999523,1614,912.115,3,912.1255,2,29,89,14,1,1.6,0.3,Time
,,355759,001,女,18,2025-06-03_12h51.02.642,Serial_Dependence_U,2023.2.3,Win32,59.88023952095548,,,,,,912.1257999999523,203,3,914.6147000000476,203,s,2.471699999809175,,918.7662000000477,919.2642000000476,918.2493999998569,918.7660999999046,915.6155,918.2492000000476,919.2642999999523,919.7642999999523,919.7645999999046,921.5903999998569,1344,921.5904999999999,2,921.6037000000476,3,0,90,29,1,1.6,0.7,Time
,,355759,001,女,18,2025-06-03_12h51.02.642,Serial_Dependence_U,2023.2.3,Win32,59.88023952095548,,,,,,921.6039999999999,261,3,921.6052999999523,261,,,,925.1887000000477,925.6802000000476,924.6717000000476,925.1885999999046,922.6055999999046,924.6717000000476,925.6802999999522,926.1678999998569,926.168,928.0052999999523,1217,928.0052999999523,4,928.020899999857,3,1,91,1,1,1,0.3,Time
,,355759,001,女,18,2025-06-03_12h51.02.642,Serial_Dependence_U,2023.2.3,Win32,59.88023952095548,,,,,,928.0212999999522,313,3,928.0215,313,,,,932.203899999857,932.6963999998569,931.6868999998569,932.203899999857,929.0210999999045,931.6867999999523,932.6963999998569,933.1958999998569,933.1960999999046,934.4219999999999,884,934.4222000000476,1,934.4345,3,2,92,24,1,1.6,0.3,Time
,,355759,001,女,18,2025-06-03_12h51.02.642,Serial_Dependence_U,2023.2.3,Win32,59.88023952095548,,,,,,934.4347999999522,350,3,934.434899999857,350,,,,937.7874999999999,938.2845,937.27,937.7873999998569,935.4367000000476,937.2697999999523,938.2847000000477,938.7837999999523,938.7838999998569,940.0212999999522,835,940.021399999857,3,940.0343999998569,3,3,93,25,1,0.8,0.7,Time
,,355759,001,女,18,2025-06-03_12h51.02.642,Serial_Dependence_U,2023.2.3,Win32,59.88023952095548,,,,,,940.0347000000477,94,3,940.0348999998569,94,,,,944.2189999999999,944.7110999999046,943.7022999999523,944.218899999857,941.0363999998569,943.7020999999046,944.7112000000476,945.213899999857,945.213899999857,946.5728999998569,1070,946.5730999999046,1,946.5878999998569,3,4,94,4,1,1.6,0.3,Time
,,355759,001,女,18,2025-06-03_12h51.02.642,Serial_Dependence_U,2023.2.3,Win32,59.88023952095548,,,,,,946.5882000000477,23,3,946.5882999999523,23,,,,950.5282000000476,951.0267000000476,950.0117999999522,950.5279999999999,947.5787999999523,950.0117000000477,951.0267000000476,951.5264999999999,951.5265999999046,952.2117000000477,165,952.2118999998569,1,952.2273999998569,3,5,95,28,1,1.4,0.7,Time
,,355759,001,女,18,2025-06-03_12h51.02.642,Serial_Dependence_U,2023.2.3,Win32,59.88023952095548,,,,,,952.227899999857,333,3,952.228,333,,,,956.0112000000477,956.509,955.4940999999046,956.0110999999046,953.2284999999999,955.4938999998569,956.509,957.0092999999523,957.0093999998569,959.2768999998569,1797,959.2770999999046,5,959.290899999857,3,6,96,12,1,1.2,0.3,Time
,,355759,001,女,18,2025-06-03_12h51.02.642,Serial_Dependence_U,2023.2.3,Win32,59.88023952095548,,,,,,959.2914999999999,237,3,959.2917000000476,237,,,,963.477899999857,963.9752000000476,962.9612000000476,963.4777999999523,960.2937000000477,962.961,963.9752000000476,964.4752000000476,964.4752999999523,966.4773999998569,1416,966.4777000000477,2,966.4937000000476,3,7,97,14,1,1.6,0.3,Time
,,355759,001,女,18,2025-06-03_12h51.02.642,Serial_Dependence_U,2023.2.3,Win32,59.88023952095548,,,,,,966.4938999998569,156,3,966.4940999999046,156,,,,969.8762999999523,970.3743999998569,969.3595999999046,969.8760999999046,967.4940999999046,969.3594999999999,970.3745,970.8740999999046,970.8742000000476,972.492,1066,972.4922999999523,5,972.5067000000477,3,8,98,10,1,0.8,0.3,Time
,,355759,001,女,18,2025-06-03_12h51.02.642,Serial_Dependence_U,2023.2.3,Win32,59.88023952095548,,,,,,972.507,78,3,972.5072999999522,78,,,,976.4742000000476,976.9727000000477,975.9577000000477,976.4740999999046,973.5247999999523,975.9575,976.9727000000477,977.4725999999046,977.4725999999046,979.5072000000476,1016,979.5074999999999,2,979.5182999999523,3,9,99,8,1,1.4,0.7,Time
,,355759,001,女,18,2025-06-03_12h51.02.642,Serial_Dependence_U,2023.2.3,Win32,59.88023952095548,,,,,,979.5185999999046,94,3,979.5187999999523,94,,,,982.8733999998569,983.3722999999522,982.3567000000477,982.8732999999522,980.5233999998569,982.3565,983.372399999857,983.8725999999047,983.8725999999047,986.2067999999523,1850,986.2070999999046,5,986.2212000000477,3,10,100,5,1,0.8,0.7,Time
,,355759,001,女,18,2025-06-03_12h51.02.642,Serial_Dependence_U,2023.2.3,Win32,59.88023952095548,,,,,,986.2217000000477,240,3,986.2218999998569,240,,,,990.2065,990.7048999998569,989.6900999999046,990.2062999999523,987.2242000000476,989.689899999857,990.7049999999999,991.2047999999522,991.2047999999522,994.0222000000476,1600,994.0223999998569,4,994.0357000000477,3,11,101,13,1,1.4,0.3,Time
,,355759,001,女,18,2025-06-03_12h51.02.642,Serial_Dependence_U,2023.2.3,Win32,59.88023952095548,,,,,,994.036,14,3,994.0360999999046,14,,,,997.4229999999999,997.9207999999522,996.9065999999046,997.4228999998569,995.0397000000477,996.906399999857,997.9208999998569,998.4207000000478,998.4207999999522,1000.5887000000478,1383,1000.588899999857,5,1000.605899999857,3,12,102,20,1,0.8,0.3,Time
,,355759,001,女,18,2025-06-03_12h51.02.642,Serial_Dependence_U,2023.2.3,Win32,59.88023952095548,,,,,,1000.6067999999525,300,3,1000.6072000000477,300,,,,1004.1545000000001,1004.6533999998571,1003.6392000000478,1004.1542999999524,1001.6052000000477,1003.6390000000001,1004.6533999998571,1005.152899999857,1005.153,1007.6452000000477,1660,1007.6453999998571,5,1007.6597999999524,3,13,103,6,1,1,0.7,Time
,,355759,001,女,18,2025-06-03_12h51.02.642,Serial_Dependence_U,2023.2.3,Win32,59.88023952095548,,,,,,1007.6600999999048,4,3,1007.6602000000478,4,,,,1011.8105,1012.3077000000478,1011.2937000000477,1011.8102999999523,1008.6610000000001,1011.2937000000477,1012.3077999999523,1012.8025,1012.8025,1014.8110999999046,1283,1014.8112999999523,2,1014.8253999998569,3,14,104,19,1,1.6,0.7,Time
,,355759,001,女,18,2025-06-03_12h51.02.642,Serial_Dependence_U,2023.2.3,Win32,59.88023952095548,,,,,,1014.8257999999523,313,3,1014.8257999999523,313,,,,1018.2097000000479,1018.7012000000477,1017.6930999999047,1018.2095999999046,1015.8267000000478,1017.693,1018.7012000000477,1019.1907999999523,1019.190899999857,1021.2275,1401,1021.2277999999524,5,1021.2410999999047,3,15,105,0,1,0.8,0.3,Time
,,355759,001,女,18,2025-06-03_12h51.02.642,Serial_Dependence_U,2023.2.3,Win32,59.88023952095548,,,,,,1021.2415000000001,248,3,1021.2415999999048,248,,,,1024.792399999857,1025.283899999857,1024.275899999857,1024.792399999857,1022.2425000000001,1024.2757000000477,1025.283899999857,1025.784,1025.7840999999048,1028.375399999857,1817,1028.3755999999048,5,1028.3895,3,16,106,16,1,1,0.7,Time
,,355759,001,女,18,2025-06-03_12h51.02.642,Serial_Dependence_U,2023.2.3,Win32,59.88023952095548,,,,,,1028.389899999857,222,3,1028.3900999999048,222,,,,1032.374899999857,1032.8712000000478,1031.8580000000002,1032.3747999999523,1029.3912000000478,1031.857899999857,1032.8712999999525,1033.3665,1033.3665,1035.6590999999048,1733,1035.6592999999523,4,1035.6727000000478,3,17,107,3,1,1.4,0.3,Time
,,355759,001,女,18,2025-06-03_12h51.02.642,Serial_Dependence_U,2023.2.3,Win32,59.88023952095548,,,,,,1035.6730999999047,38,3,1035.6732999999524,38,,,,1039.257,1039.7487000000478,1038.741399999857,1039.2567999999524,1036.674,1038.7412999999524,1039.7487999999523,1040.2542000000478,1040.2542000000478,1041.9250999999047,1149,1041.9252999999524,4,1041.9382000000478,3,18,108,21,1,1,0.3,Time
,,355759,001,女,18,2025-06-03_12h51.02.642,Serial_Dependence_U,2023.2.3,Win32,59.88023952095548,,,,,,1041.9385999999047,270,3,1041.9385999999047,270,,,,1045.4892000000477,1045.981399999857,1044.9725,1045.489,1042.9397000000477,1044.9725,1045.9815999999048,1046.4810999999047,1046.4812000000477,1047.0567000000478,183,1047.057,1,1047.070399999857,3,19,109,26,1,1,0.7,Time
,,355759,001,女,18,2025-06-03_12h51.02.642,Serial_Dependence_U,2023.2.3,Win32,59.88023952095548,,,,,,1047.0707000000477,105,3,1047.0707999999524,105,,,,1050.8227000000477,1051.3145999999047,1050.3057999999523,1050.8225999999047,1048.0727000000477,1050.3057000000479,1051.3145999999047,1051.8142999999525,1051.814399999857,1055.4225999999046,2834,1055.4227999999523,5,1055.4372000000478,3,20,110,7,1,1.2,0.7,Time
,,355759,001,女,18,2025-06-03_12h51.02.642,Serial_Dependence_U,2023.2.3,Win32,59.88023952095548,,,,,,1055.4375,127,3,1055.4375999999047,127,,,,1059.1880999999048,1059.6825999999046,1058.6710999999048,1059.188,1056.4377000000477,1058.6710999999048,1059.6825999999046,1060.1797999999524,1060.1797999999524,1063.9382999999525,3033,1063.938399999857,5,1063.953,3,21,111,17,1,1.2,0.7,Time
,,355759,001,女,18,2025-06-03_12h51.02.642,Serial_Dependence_U,2023.2.3,Win32,59.88023952095548,,,,,,1063.9532999999524,256,3,1063.953399999857,256,,,,1068.1032999999525,1068.594899999857,1067.587,1068.1030999999048,1064.9537999999525,1067.5867999999523,1068.595,1069.094899999857,1069.095,1071.2452000000478,1702,1071.2452999999523,4,1071.2605,3,22,112,9,1,1.6,0.7,Time
,,355759,001,女,18,2025-06-03_12h51.02.642,Serial_Dependence_U,2023.2.3,Win32,59.88023952095548,,,,,,1071.2607999999525,332,3,1071.261,332,,,,1075.2455,1075.743899999857,1074.729,1075.2455,1072.2637000000477,1074.728899999857,1075.7440000000001,1076.2437999999524,1076.2437999999524,1079.4777000000477,2565,1079.477899999857,5,1079.4915,3,23,113,23,1,1.4,0.3,Time
,,355759,001,女,18,2025-06-03_12h51.02.642,Serial_Dependence_U,2023.2.3,Win32,59.88023952095548,,,,,,1079.4917999999525,254,3,1079.4920000000002,254,,,,1083.4347000000478,1083.9260999999046,1082.9280999999048,1083.4347000000478,1080.4950999999046,1082.9278999998571,1083.9262999999523,1084.4265,1084.4265999999047,1089.3520999999048,4399,1089.352399999857,5,1089.3652999999524,3,24,114,18,1,1.4,0.7,Time
,,355759,001,女,18,2025-06-03_12h51.02.642,Serial_Dependence_U,2023.2.3,Win32,59.88023952095548,,,,,,1089.3657999999523,260,3,1089.366,260,,,,1093.1500999999048,1093.644899999857,1092.6335999999046,1093.15,1090.3670999999047,1092.6335999999046,1093.644899999857,1094.1442000000477,1094.1442999999524,1098.2012000000477,3468,1098.2013999998571,5,1098.2155999999047,3,25,115,2,1,1.2,0.3,Time
,,355759,001,女,18,2025-06-03_12h51.02.642,Serial_Dependence_U,2023.2.3,Win32,59.88023952095548,,,,,,1098.2157999999524,146,3,1098.2160000000001,146,,,,1101.9660000000001,1102.4575,1101.4490999999048,1101.9660000000001,1099.2152999999523,1101.449,1102.4575999999047,1102.957399999857,1102.9575,1106.3670000000002,2785,1106.3672000000477,5,1106.3805,3,26,116,27,1,1.2,0.7,Time
,,355759,001,女,18,2025-06-03_12h51.02.642,Serial_Dependence_U,2023.2.3,Win32,59.88023952095548,,,,,,1106.3807999999524,180,3,1106.380899999857,180,,,,1109.9650000000001,1110.460899999857,1109.448399999857,1109.964899999857,1107.3817999999524,1109.4482999999525,1110.461,1110.961899999857,1110.9620999999047,1113.1825999999046,1751,1113.1827999999523,5,1113.1957000000477,3,27,117,11,1,1,0.3,Time
,,355759,001,女,18,2025-06-03_12h51.02.642,Serial_Dependence_U,2023.2.3,Win32,59.88023952095548,,,,,,1113.1960000000001,152,3,1113.1962000000478,152,,,,1116.5467999999523,1117.044899999857,1116.0307999999525,1116.5467000000478,1114.1980999999048,1116.0307999999525,1117.044899999857,1117.5447000000477,1117.5447999999524,1120.881,2901,1120.8812000000478,5,1120.8967999999525,3,28,118,15,1,0.8,0.7,Time
,,355759,001,女,18,2025-06-03_12h51.02.642,Serial_Dependence_U,2023.2.3,Win32,59.88023952095548,,,,,,1120.8970999999046,94,3,1120.8972999999523,94,,,,1124.6792999999525,1125.1712999999525,1124.163,1124.6792000000478,1121.896399999857,1124.1627999999523,1125.171399999857,1125.6707000000479,1125.6707999999524,1127.9797999999523,1899,1127.9800999999047,5,1127.994399999857,3,29,119,22,1,1.2,0.3,Time
,,355759,001,女,18,2025-06-03_12h51.02.642,Serial_Dependence_U,2023.2.3,Win32,59.88023952095548,,,,,,1127.9947000000477,193,4,1129.7210999999047,193,s,1.7165999999047017,,1133.3047999999524,1133.803,1132.7883999998571,1133.3047000000477,1130.7215999999048,1132.7882999999524,1133.803,1134.3032999999523,1134.303399999857,1136.003899999857,1599,1136.0040999999046,5,1136.017899999857,4,0,120,11,1,1,0.3,Time
,,355759,001,女,18,2025-06-03_12h51.02.642,Serial_Dependence_U,2023.2.3,Win32,59.88023952095548,,,,,,1136.0182000000477,188,4,1136.0197000000478,188,,,,1139.3692999999523,1139.8690000000001,1138.8527999999524,1139.3692000000478,1137.020899999857,1138.8527999999524,1139.8692000000478,1140.3687999999524,1140.368899999857,1146.178,1768,1146.1782000000478,5,1146.1920999999047,4,1,121,5,1,0.8,0.7,Time
,,355759,001,女,18,2025-06-03_12h51.02.642,Serial_Dependence_U,2023.2.3,Win32,59.88023952095548,,,,,,1146.1925,267,4,1146.1925999999048,267,,,,1149.576,1150.067899999857,1149.059899999857,1149.575899999857,1147.193,1149.059899999857,1150.067899999857,1150.5680999999047,1150.5682000000477,1153.4430999999047,2400,1153.4432999999524,5,1153.4560000000001,4,2,122,10,1,0.8,0.3,Time
,,355759,001,女,18,2025-06-03_12h51.02.642,Serial_Dependence_U,2023.2.3,Win32,59.88023952095548,,,,,,1153.4565,276,4,1153.4565999999047,276,,,,1157.208899999857,1157.7005000000001,1156.6920999999047,1157.2087999999524,1154.4590999999048,1156.6920999999047,1157.7005999999046,1158.188899999857,1158.188899999857,1160.0915,1366,1160.0915999999047,4,1160.1062000000477,4,3,123,7,1,1.2,0.7,Time
,,355759,001,女,18,2025-06-03_12h51.02.642,Serial_Dependence_U,2023.2.3,Win32,59.88023952095548,,,,,,1160.1065,310,4,1160.1065999999048,310,,,,1164.0745000000002,1164.5662999999524,1163.5582999999524,1164.074399999857,1161.1080999999047,1163.5582000000477,1164.566399999857,1165.0657999999523,1165.066,1166.8087999999525,1267,1166.8090999999047,2,1166.8217999999524,4,4,124,28,1,1.4,0.7,Time
,,355759,001,女,18,2025-06-03_12h51.02.642,Serial_Dependence_U,2023.2.3,Win32,59.88023952095548,,,,,,1166.8220999999048,139,4,1166.8222000000478,139,,,,1171.007399999857,1171.4985999999046,1170.4902999999524,1171.0072999999525,1167.8237999999524,1170.4900999999047,1171.4987999999523,1171.9985999999046,1171.9987000000478,1174.0572999999524,1450,1174.0575000000001,2,1174.0727999999524,4,5,125,14,1,1.6,0.3,Time
,,355759,001,女,18,2025-06-03_12h51.02.642,Serial_Dependence_U,2023.2.3,Win32,59.88023952095548,,,,,,1174.0732000000478,223,4,1174.0732999999525,223,,,,1177.8227000000477,1178.314399999857,1177.3073999998571,1177.8225,1175.0722000000478,1177.3072999999524,1178.314399999857,1178.8187000000478,1178.8187999999525,1180.6567000000477,1401,1180.6567999999525,4,1180.669899999857,4,6,126,27,1,1.2,0.7,Time
,,355759,001,女,18,2025-06-03_12h51.02.642,Serial_Dependence_U,2023.2.3,Win32,59.88023952095548,,,,,,1180.6702000000478,227,4,1180.6702999999525,227,,,,1184.6380000000001,1185.1300999999048,1184.1362000000477,1184.637899999857,1181.6720999999047,1184.1362000000477,1185.1302000000478,1185.6362999999524,1185.636399999857,1187.7140000000002,1206,1187.7142000000479,2,1187.7277999999524,4,7,127,23,1,1.4,0.3,Time
,,355759,001,女,18,2025-06-03_12h51.02.642,Serial_Dependence_U,2023.2.3,Win32,59.88023952095548,,,,,,1187.7280999999048,213,4,1187.7282000000478,213,,,,1191.304899999857,1191.7960999999048,1190.7967000000478,1191.3047999999524,1188.7305999999046,1190.7965999999046,1191.7962000000477,1192.2957000000479,1192.295899999857,1194.971,2232,1194.9710999999047,5,1194.9852999999523,4,8,128,21,1,1,0.3,Time
,,355759,001,女,18,2025-06-03_12h51.02.642,Serial_Dependence_U,2023.2.3,Win32,59.88023952095548,,,,,,1194.9855,322,4,1194.9857000000477,322,,,,1198.935399999857,1199.428,1198.4195999999047,1198.935399999857,1195.9867999999524,1198.4195999999047,1199.4280999999048,1199.931399999857,1199.9315000000001,1204.4450000000002,1783,1204.4452999999523,4,1204.4590999999048,4,9,129,8,1,1.4,0.7,Time
,,355759,001,女,18,2025-06-03_12h51.02.642,Serial_Dependence_U,2023.2.3,Win32,59.88023952095548,,,,,,1204.459399999857,113,4,1204.4595000000002,113,,,,1207.8125999999047,1208.3102999999523,1207.2955999999047,1207.812399999857,1205.4622999999524,1207.2955000000002,1208.3102999999523,1208.809899999857,1208.8100999999047,1210.8110999999046,1501,1210.811399999857,5,1210.8240999999048,4,10,130,25,1,0.8,0.7,Time
,,355759,001,女,18,2025-06-03_12h51.02.642,Serial_Dependence_U,2023.2.3,Win32,59.88023952095548,,,,,,1210.824399999857,33,4,1210.8245000000002,33,,,,1214.6177000000478,1215.1092000000478,1214.1015999999047,1214.6175999999048,1211.828399999857,1214.101399999857,1215.1092999999523,1215.6095999999047,1215.6097000000477,1217.3522000000478,1233,1217.352399999857,3,1217.3665999999048,4,11,131,12,1,1.2,0.3,Time
,,355759,001,女,18,2025-06-03_12h51.02.642,Serial_Dependence_U,2023.2.3,Win32,59.88023952095548,,,,,,1217.366899999857,293,4,1217.3670000000002,293,,,,1220.9167000000477,1221.409,1220.400399999857,1220.9165999999047,1218.3677999999525,1220.4002999999525,1221.4090999999048,1221.8982000000478,1221.8982999999523,1223.4685000000002,1084,1223.4687000000476,4,1223.4820999999047,4,12,132,16,1,1,0.7,Time
,,355759,001,女,18,2025-06-03_12h51.02.642,Serial_Dependence_U,2023.2.3,Win32,59.88023952095548,,,,,,1223.4825,284,4,1223.4825,284,,,,1227.6662999999523,1228.163,1227.1505999999047,1227.6660999999046,1224.4817000000478,1227.150399999857,1228.163,1228.6635999999048,1228.6637000000478,1229.935399999857,686,1229.9355999999048,1,1229.948899999857,4,13,133,4,1,1.6,0.3,Time
,,355759,001,女,18,2025-06-03_12h51.02.642,Serial_Dependence_U,2023.2.3,Win32,59.88023952095548,,,,,,1229.9492000000478,318,4,1229.9492999999525,318,,,,1233.7320999999047,1234.2235,1233.2152999999523,1233.731899999857,1230.9487000000477,1233.2152000000478,1234.2235,1234.7292000000477,1234.7292999999524,1235.7817000000477,767,1235.7817999999525,1,1235.7942000000478,4,14,134,2,1,1.2,0.3,Time
,,355759,001,女,18,2025-06-03_12h51.02.642,Serial_Dependence_U,2023.2.3,Win32,59.88023952095548,,,,,,1235.7947999999524,78,4,1235.795,78,,,,1239.3490000000002,1239.8400000000001,1238.832,1239.348899999857,1236.7985,1238.8317999999524,1239.8400000000001,1240.3282000000477,1240.328399999857,1244.2332999999524,2402,1244.233399999857,5,1244.2477999999523,4,15,135,6,1,1,0.7,Time
,,355759,001,女,18,2025-06-03_12h51.02.642,Serial_Dependence_U,2023.2.3,Win32,59.88023952095548,,,,,,1244.248,44,4,1244.2480999999048,44,,,,1248.3972000000479,1248.888399999857,1247.88,1248.3970999999046,1245.2472999999525,1247.88,1248.8885,1249.377899999857,1249.3780999999046,1251.231899999857,1501,1251.2322000000477,2,1251.2450999999046,4,16,136,29,1,1.6,0.7,Time
,,355759,001,女,18,2025-06-03_12h51.02.642,Serial_Dependence_U,2023.2.3,Win32,59.88023952095548,,,,,,1251.245399999857,162,4,1251.2455,162,,,,1254.7795999999048,1255.2712000000477,1254.279,1254.7795999999048,1252.246399999857,1254.278899999857,1255.2712999999524,1255.7707000000478,1255.7707999999525,1257.6882999999525,1535,1257.688399999857,5,1257.7017999999523,4,17,137,26,1,1,0.7,Time
,,355759,001,女,18,2025-06-03_12h51.02.642,Serial_Dependence_U,2023.2.3,Win32,59.88023952095548,,,,,,1257.7022000000477,136,4,1257.702399999857,136,,,,1261.6555,1262.1537000000478,1261.1382000000478,1261.655399999857,1258.7055999999047,1261.1380999999046,1262.1537999999523,1262.6535999999046,1262.6537000000478,1265.17,2133,1265.1702000000478,5,1265.183,4,18,138,18,1,1.4,0.7,Time
,,355759,001,女,18,2025-06-03_12h51.02.642,Serial_Dependence_U,2023.2.3,Win32,59.88023952095548,,,,,,1265.183399999857,347,4,1265.1835,347,,,,1269.353899999857,1269.8527000000477,1268.837,1269.3537999999523,1266.2045,1268.837,1269.8527999999524,1270.3525999999047,1270.3527000000477,1272.0442999999525,1300,1272.044399999857,2,1272.0585,4,19,139,9,1,1.6,0.7,Time
,,355759,001,女,18,2025-06-03_12h51.02.642,Serial_Dependence_U,2023.2.3,Win32,59.88023952095548,,,,,,1272.058899999857,315,4,1272.059,315,,,,1275.4435999999048,1275.9352999999523,1274.9272000000478,1275.4435999999048,1273.0600999999047,1274.9270999999046,1275.935399999857,1276.435399999857,1276.435399999857,1279.4947000000477,2601,1279.4950000000001,5,1279.5077999999523,4,20,140,0,1,0.8,0.3,Time
,,355759,001,女,18,2025-06-03_12h51.02.642,Serial_Dependence_U,2023.2.3,Win32,59.88023952095548,,,,,,1279.5080999999047,137,4,1279.5082000000477,137,,,,1282.842899999857,1283.3372999999524,1282.3420999999048,1282.842899999857,1280.5097000000478,1282.342,1283.3372999999524,1283.834399999857,1283.8345000000002,1287.2927000000477,3099,1287.2927999999524,5,1287.3072000000477,4,21,141,15,1,0.8,0.7,Time
,,355759,001,女,18,2025-06-03_12h51.02.642,Serial_Dependence_U,2023.2.3,Win32,59.88023952095548,,,,,,1287.3075000000001,337,4,1287.3075999999046,337,,,,1291.2907000000478,1291.7832000000478,1290.7747000000477,1291.2905999999048,1288.3092000000477,1290.7747000000477,1291.7832999999523,1292.2710999999047,1292.2712000000477,1294.3765999999048,1435,1294.3767000000478,3,1294.390399999857,4,22,142,13,1,1.4,0.3,Time
,,355759,001,女,18,2025-06-03_12h51.02.642,Serial_Dependence_U,2023.2.3,Win32,59.88023952095548,,,,,,1294.3907000000477,263,4,1294.3907999999524,263,,,,1298.1740999999047,1298.6657999999525,1297.657399999857,1298.173899999857,1295.3907000000477,1297.6572999999523,1298.6657999999525,1299.1657000000478,1299.1657000000478,1301.1652999999524,1134,1301.1655,2,1301.1802000000478,4,23,143,22,1,1.2,0.3,Time
,,355759,001,女,18,2025-06-03_12h51.02.642,Serial_Dependence_U,2023.2.3,Win32,59.88023952095548,,,,,,1301.180899999857,158,4,1301.1810999999047,158,,,,1304.5575000000001,1305.047899999857,1304.049899999857,1304.5573999998571,1302.1832999999524,1304.0497999999525,1305.048,1305.5515,1305.5515999999047,1308.598399999857,885,1308.5985999999048,4,1308.6125000000002,4,24,144,20,1,0.8,0.3,Time
,,355759,001,女,18,2025-06-03_12h51.02.642,Serial_Dependence_U,2023.2.3,Win32,59.88023952095548,,,,,,1308.6127999999524,86,4,1308.612899999857,86,,,,1312.5882000000477,1313.0805999999047,1312.0818999998571,1312.5880999999047,1309.6155999999048,1312.0817000000477,1313.0805999999047,1313.568399999857,1313.568399999857,1315.3065000000001,1333,1315.3065999999046,3,1315.3197999999525,4,25,145,3,1,1.4,0.3,Time
,,355759,001,女,18,2025-06-03_12h51.02.642,Serial_Dependence_U,2023.2.3,Win32,59.88023952095548,,,,,,1315.3202000000479,131,4,1315.3202999999523,131,,,,1319.0712000000478,1319.5690999999047,1318.5542999999525,1319.0710999999046,1316.3215999999047,1318.5542000000478,1319.5690999999047,1320.0687000000478,1320.0687999999525,1321.789,1350,1321.7890999999047,4,1321.8028999998571,4,26,146,17,1,1.2,0.7,Time
,,355759,001,女,18,2025-06-03_12h51.02.642,Serial_Dependence_U,2023.2.3,Win32,59.88023952095548,,,,,,1321.8032999999523,107,4,1321.8032999999523,107,,,,1325.9547000000478,1326.4452999999523,1325.4370000000001,1325.9547000000478,1322.8035,1325.4368999998571,1326.445399999857,1326.9452000000479,1326.945399999857,1328.6385,1218,1328.6385999999047,2,1328.6515999999046,4,27,147,19,1,1.6,0.7,Time
,,355759,001,女,18,2025-06-03_12h51.02.642,Serial_Dependence_U,2023.2.3,Win32,59.88023952095548,,,,,,1328.651899999857,164,4,1328.652,164,,,,1332.2365999999047,1332.7337999999525,1331.7197000000479,1332.2365,1329.653,1331.7197000000479,1332.733899999857,1333.2275999999047,1333.2277999999524,1334.9360999999046,1400,1334.9362000000478,5,1334.9495999999046,4,28,148,1,1,1,0.3,Time
,,355759,001,女,18,2025-06-03_12h51.02.642,Serial_Dependence_U,2023.2.3,Win32,59.88023952095548,,,,,,1334.9497999999523,176,4,1334.95,176,,,,1339.1345999999048,1339.6267999999525,1338.6187999999524,1339.1345000000001,1335.9522000000477,1338.6187999999524,1339.626899999857,1340.1320999999048,1340.1322999999525,1342.2355999999047,1550,1342.2357000000477,3,1342.2482999999525,4,29,149,24,1,1.6,0.3,Time
,,355759,001,女,18,2025-06-03_12h51.02.642,Serial_Dependence_U,2023.2.3,Win32,59.88023952095548,,,,,,1342.2487000000478,212,5,1344.276399999857,212,s,2.0091000001430075,,1348.0600999999047,1348.559,1347.5445,1348.059899999857,1345.2782000000477,1347.544399999857,1348.559,1349.059,1349.0590999999047,1351.5092999999524,1766,1351.5093999998571,5,1351.521399999857,5,0,150,22,1,1.2,0.3,Time
,,355759,001,女,18,2025-06-03_12h51.02.642,Serial_Dependence_U,2023.2.3,Win32,59.88023952095548,,,,,,1351.5217999999525,344,5,1351.522899999857,344,,,,1355.5100999999047,1356.0082999999524,1354.9932999999523,1355.509899999857,1352.527899999857,1354.9932000000479,1356.0082999999524,1356.5082000000477,1356.5082000000477,1358.6082000000479,1381,1358.6085999999048,3,1358.6210999999048,5,1,151,13,1,1.4,0.3,Time
,,355759,001,女,18,2025-06-03_12h51.02.642,Serial_Dependence_U,2023.2.3,Win32,59.88023952095548,,,,,,1358.6212999999525,137,5,1358.6215,137,,,,1362.808,1363.3072999999524,1362.292399999857,1362.807899999857,1359.6262999999524,1362.2922999999523,1363.3072999999524,1363.8072000000477,1363.8072999999524,1366.1917999999523,2013,1366.1920999999047,4,1366.207399999857,5,2,152,24,1,1.6,0.3,Time
,,355759,001,女,18,2025-06-03_12h51.02.642,Serial_Dependence_U,2023.2.3,Win32,59.88023952095548,,,,,,1366.207899999857,181,5,1366.2080999999048,181,,,,1369.7977000000478,1370.289899999857,1369.2812000000476,1369.7975999999046,1367.2147000000477,1369.2812000000476,1370.289899999857,1370.7960999999048,1370.797,1371.998899999857,1183,1371.9990999999047,4,1372.0120000000002,5,3,153,1,1,1,0.3,Time
,,355759,001,女,18,2025-06-03_12h51.02.642,Serial_Dependence_U,2023.2.3,Win32,59.88023952095548,,,,,,1372.012399999857,178,5,1372.012399999857,178,,,,1375.5632999999525,1376.0557000000479,1375.0475999999046,1375.5632000000478,1373.0138999998571,1375.0475000000001,1376.055899999857,1376.5607999999525,1376.5607999999525,1378.9977000000479,2100,1378.997899999857,5,1379.0135999999047,5,4,154,6,1,1,0.7,Time
,,355759,001,女,18,2025-06-03_12h51.02.642,Serial_Dependence_U,2023.2.3,Win32,59.88023952095548,,,,,,1379.0138999998571,101,5,1379.0140999999046,101,,,,1382.3567999999525,1382.8547999999523,1381.846399999857,1382.3567000000478,1380.0135,1381.846399999857,1382.854899999857,1383.354399999857,1383.3545000000001,1387.0215,1337,1387.0217999999525,5,1387.035,5,5,155,15,1,0.8,0.7,Time
,,355759,001,女,18,2025-06-03_12h51.02.642,Serial_Dependence_U,2023.2.3,Win32,59.88023952095548,,,,,,1387.035399999857,145,5,1387.035399999857,145,,,,1391.0220999999046,1391.5200999999047,1390.505399999857,1391.021899999857,1388.0392999999524,1390.5052999999523,1391.5200999999047,1392.0200999999047,1392.0202000000477,1395.720899999857,2150,1395.7212000000477,5,1395.7360999999048,5,6,156,3,1,1.4,0.3,Time
,,355759,001,女,18,2025-06-03_12h51.02.642,Serial_Dependence_U,2023.2.3,Win32,59.88023952095548,,,,,,1395.7365999999047,198,5,1395.736899999857,198,,,,1399.9210999999048,1400.4190999999048,1399.4042000000477,1399.920899999857,1396.739,1399.4040999999047,1400.4190999999048,1400.9187999999524,1400.918899999857,1403.1360999999047,1712,1403.136399999857,4,1403.1492000000478,5,7,157,4,1,1.6,0.3,Time
,,355759,001,女,18,2025-06-03_12h51.02.642,Serial_Dependence_U,2023.2.3,Win32,59.88023952095548,,,,,,1403.1495,177,5,1403.1495999999047,177,,,,1406.536899999857,1407.0350999999048,1406.0202999999524,1406.5367999999523,1404.1547000000478,1406.0200999999047,1407.035399999857,1407.535,1407.535,1409.969,1985,1409.9692999999525,5,1409.9842000000478,5,8,158,10,1,0.8,0.3,Time
,,355759,001,女,18,2025-06-03_12h51.02.642,Serial_Dependence_U,2023.2.3,Win32,59.88023952095548,,,,,,1409.9847999999524,257,5,1409.9850000000001,257,,,,1413.735899999857,1414.233899999857,1413.2192000000477,1413.7357999999524,1410.9860999999048,1413.219,1414.2340000000002,1414.7335999999048,1414.7337000000477,1417.0012999999524,1934,1417.0015999999048,5,1417.016399999857,5,9,159,17,1,1.2,0.7,Time
,,355759,001,女,18,2025-06-03_12h51.02.642,Serial_Dependence_U,2023.2.3,Win32,59.88023952095548,,,,,,1417.0170999999048,271,5,1417.0172999999525,271,,,,1420.3682000000479,1420.866399999857,1419.8520999999048,1420.3680999999046,1418.0192000000477,1419.852,1420.866399999857,1421.366399999857,1421.3665999999048,1423.9172000000478,1500,1423.9175999999047,5,1423.9322999999524,5,10,160,25,1,0.8,0.7,Time
,,355759,001,女,18,2025-06-03_12h51.02.642,Serial_Dependence_U,2023.2.3,Win32,59.88023952095548,,,,,,1423.9327999999523,165,5,1423.9330999999047,165,,,,1427.7177999999524,1428.215399999857,1427.2012999999524,1427.7175,1424.9347999999525,1427.2010999999047,1428.2155,1428.7152999999523,1428.7155,1430.4005999999047,1266,1430.401,4,1430.415899999857,5,11,161,12,1,1.2,0.3,Time
,,355759,001,女,18,2025-06-03_12h51.02.642,Serial_Dependence_U,2023.2.3,Win32,59.88023952095548,,,,,,1430.416399999857,147,5,1430.4165999999047,147,,,,1434.5835000000002,1435.0815,1434.0667999999523,1434.5832999999525,1431.4337000000478,1434.0667000000478,1435.0815,1435.5812999999523,1435.5812999999523,1438.148399999857,2046,1438.1485999999047,4,1438.1625999999046,5,12,162,19,1,1.6,0.7,Time
,,355759,001,女,18,2025-06-03_12h51.02.642,Serial_Dependence_U,2023.2.3,Win32,59.88023952095548,,,,,,1438.162899999857,127,5,1438.1632999999524,127,,,,1441.5487000000478,1442.0472000000477,1441.0327999999524,1441.5485999999048,1439.1655999999048,1441.0327000000477,1442.0472000000477,1442.5467999999523,1442.5467999999523,1445.5810999999046,2614,1445.5812999999523,5,1445.5947000000479,5,13,163,20,1,0.8,0.3,Time
,,355759,001,女,18,2025-06-03_12h51.02.642,Serial_Dependence_U,2023.2.3,Win32,59.88023952095548,,,,,,1445.595,239,5,1445.5952000000477,239,,,,1449.5557999999523,1450.0520000000001,1449.048399999857,1449.5555999999046,1446.614899999857,1449.0482999999524,1450.0522999999523,1450.551899999857,1450.5520000000001,1452.4062000000476,1432,1452.406399999857,3,1452.4192999999525,5,14,164,28,1,1.4,0.7,Time
,,355759,001,女,18,2025-06-03_12h51.02.642,Serial_Dependence_U,2023.2.3,Win32,59.88023952095548,,,,,,1452.4197000000477,337,5,1452.4197000000477,337,,,,1456.604,1457.1002000000478,1456.0862000000477,1456.603899999857,1453.4207999999524,1456.0860999999047,1457.1002000000478,1457.595,1457.5950999999047,1459.587899999857,1150,1459.588,2,1459.6017999999524,5,15,165,14,1,1.6,0.3,Time
,,355759,001,女,18,2025-06-03_12h51.02.642,Serial_Dependence_U,2023.2.3,Win32,59.88023952095548,,,,,,1459.602,264,5,1459.6022000000478,264,,,,1463.752399999857,1464.2502999999524,1463.235899999857,1463.7522999999524,1460.602399999857,1463.2357999999524,1464.250399999857,1464.7440000000001,1464.7440999999046,1466.105,985,1466.1052000000477,1,1466.118399999857,5,16,166,29,1,1.6,0.7,Time
,,355759,001,女,18,2025-06-03_12h51.02.642,Serial_Dependence_U,2023.2.3,Win32,59.88023952095548,,,,,,1466.1185999999047,175,5,1466.1187999999524,175,,,,1469.5025,1469.9937000000477,1468.9860999999048,1469.5022999999524,1467.1190000000001,1468.986,1469.9937000000477,1470.4940000000001,1470.4940999999046,1471.861399999857,1011,1471.8617000000477,4,1471.8760999999047,5,17,167,0,1,0.8,0.3,Time
,,355759,001,女,18,2025-06-03_12h51.02.642,Serial_Dependence_U,2023.2.3,Win32,59.88023952095548,,,,,,1471.8765999999048,182,5,1471.8770000000002,182,,,,1475.4612000000477,1475.9595000000002,1474.9455,1475.4610999999047,1472.8780000000002,1474.945399999857,1475.9597000000479,1476.459399999857,1476.4595000000002,1479.4770999999048,963,1479.477399999857,3,1479.4937000000477,5,18,168,21,1,1,0.3,Time
,,355759,001,女,18,2025-06-03_12h51.02.642,Serial_Dependence_U,2023.2.3,Win32,59.88023952095548,,,,,,1479.4940999999046,261,5,1479.4942000000478,261,,,,1483.442899999857,1483.9415000000001,1482.9270000000001,1483.4427999999523,1480.4940999999046,1482.9267999999524,1483.9415000000001,1484.441399999857,1484.4415000000001,1488.0927999999524,2833,1488.0932000000478,5,1488.1080000000002,5,19,169,8,1,1.4,0.7,Time
,,355759,001,女,18,2025-06-03_12h51.02.642,Serial_Dependence_U,2023.2.3,Win32,59.88023952095548,,,,,,1488.1085999999048,204,5,1488.1087999999525,204,,,,1492.242899999857,1492.7402999999524,1491.7412999999524,1492.2425999999048,1489.1090000000002,1491.7412999999524,1492.7403999998571,1493.2402999999524,1493.2403999998571,1496.4750999999046,2600,1496.4755999999047,5,1496.4917000000478,5,20,170,9,1,1.6,0.7,Time
,,355759,001,女,18,2025-06-03_12h51.02.642,Serial_Dependence_U,2023.2.3,Win32,59.88023952095548,,,,,,1496.4920000000002,18,5,1496.4920999999047,18,,,,1500.2415999999048,1500.7395000000001,1499.7242999999523,1500.2415,1497.491399999857,1499.7240000000002,1500.7395000000001,1501.2395999999046,1501.2395999999046,1505.54,1433,1505.5405999999048,4,1505.5585999999048,5,21,171,7,1,1.2,0.7,Time
,,355759,001,女,18,2025-06-03_12h51.02.642,Serial_Dependence_U,2023.2.3,Win32,59.88023952095548,,,,,,1505.559,253,5,1505.5592000000477,253,,,,1509.540399999857,1510.0385,1509.0237000000477,1509.5402000000477,1506.5575999999046,1509.0235,1510.0385,1510.5382999999524,1510.5385,1512.706399999857,1598,1512.7068999998571,4,1512.722899999857,5,22,172,23,1,1.4,0.3,Time
,,355759,001,女,18,2025-06-03_12h51.02.642,Serial_Dependence_U,2023.2.3,Win32,59.88023952095548,,,,,,1512.723399999857,162,5,1512.7235,162,,,,1516.2735999999047,1516.770899999857,1515.7562999999525,1516.273399999857,1513.7230000000002,1515.7562000000478,1516.770899999857,1517.2705999999048,1517.2707000000478,1519.306,1603,1519.3062000000477,5,1519.3192000000477,5,23,173,16,1,1,0.7,Time
,,355759,001,女,18,2025-06-03_12h51.02.642,Serial_Dependence_U,2023.2.3,Win32,59.88023952095548,,,,,,1519.3197999999525,318,5,1519.319899999857,318,,,,1522.6720999999047,1523.1702000000478,1522.1555,1522.672,1520.3218999998571,1522.155399999857,1523.1705999999047,1523.669399999857,1523.6695,1525.603899999857,1484,1525.6042000000477,5,1525.6172000000477,5,24,174,5,1,0.8,0.7,Time
,,355759,001,女,18,2025-06-03_12h51.02.642,Serial_Dependence_U,2023.2.3,Win32,59.88023952095548,,,,,,1525.6177000000478,334,5,1525.6177999999525,334,,,,1529.171399999857,1529.6690999999048,1528.6542999999524,1529.1712999999525,1526.6212999999525,1528.654,1529.6690999999048,1530.1695,1530.1695999999047,1530.388399999857,137,1530.3887000000477,1,1530.401399999857,5,25,175,26,1,1,0.7,Time
,,355759,001,女,18,2025-06-03_12h51.02.642,Serial_Dependence_U,2023.2.3,Win32,59.88023952095548,,,,,,1530.4017000000479,30,5,1530.402,30,,,,1534.171,1534.669,1533.6697999999524,1534.170899999857,1531.4045,1533.6697000000477,1534.6690999999048,1535.168899999857,1535.169,1537.3692999999523,1733,1537.3695,5,1537.384,5,26,176,2,1,1.2,0.3,Time
,,355759,001,女,18,2025-06-03_12h51.02.642,Serial_Dependence_U,2023.2.3,Win32,59.88023952095548,,,,,,1537.3842999999524,122,5,1537.3845999999048,122,,,,1541.136,1541.6342999999524,1540.6197000000477,1541.1357999999525,1538.386899999857,1540.6195,1541.6343999998571,1542.1340999999047,1542.1340999999047,1543.968,1301,1543.9682999999525,4,1543.9827000000478,5,27,177,27,1,1.2,0.7,Time
,,355759,001,女,18,2025-06-03_12h51.02.642,Serial_Dependence_U,2023.2.3,Win32,59.88023952095548,,,,,,1543.9832999999524,307,5,1543.983399999857,307,,,,1547.5750999999048,1548.0718999998571,1547.0587000000478,1547.5750999999048,1544.9855,1547.0585999999048,1548.0718999998571,1548.566899999857,1548.567,1550.6092000000478,1699,1550.6092999999523,5,1550.6217999999524,5,28,178,11,1,1,0.3,Time
,,355759,001,女,18,2025-06-03_12h51.02.642,Serial_Dependence_U,2023.2.3,Win32,59.88023952095548,,,,,,1550.6220999999048,109,5,1550.6222000000478,109,,,,1554.574,1555.0660999999047,1554.0575999999046,1554.574,1551.6247000000478,1554.0575000000001,1555.0662000000477,1555.5660999999047,1555.5662999999524,1557.4082999999523,1633,1557.4085999999047,4,1557.4220999999047,5,29,179,18,1,1.4,0.7,Time
,,355759,001,女,18,2025-06-03_12h51.02.642,Serial_Dependence_U,2023.2.3,Win32,59.88023952095548,,,,,,1557.4225000000001,102,6,1561.4277000000477,102,s,3.981900000095493,,1565.406899999857,1565.8975999999047,1564.8997999999524,1565.406899999857,1562.4327999999523,1564.8995999999047,1565.8977999999524,1566.3980999999046,1566.3982000000478,1567.7402999999524,1282,1567.7405,2,1567.7542999999523,6,0,180,3,1,1.4,0.3,Time
,,355759,001,女,18,2025-06-03_12h51.02.642,Serial_Dependence_U,2023.2.3,Win32,59.88023952095548,,,,,,1567.7547000000477,131,6,1567.7560999999048,131,,,,1571.9387999999524,1572.4307000000479,1571.4220999999047,1571.9387000000477,1568.7555,1571.422,1572.4307999999523,1572.9365999999047,1572.9365999999047,1574.6055999999046,1266,1574.6057999999523,2,1574.6197999999524,6,1,181,24,1,1.6,0.3,Time
,,355759,001,女,18,2025-06-03_12h51.02.642,Serial_Dependence_U,2023.2.3,Win32,59.88023952095548,,,,,,1574.6202000000478,22,6,1574.6202999999523,22,,,,1578.3715999999047,1578.8630999999048,1577.8547000000478,1578.371399999857,1575.6215999999047,1577.8545999999046,1578.8632000000478,1579.362899999857,1579.362899999857,1581.2235999999048,1335,1581.2237999999525,4,1581.2375999999047,6,2,182,7,1,1.2,0.7,Time
,,355759,001,女,18,2025-06-03_12h51.02.642,Serial_Dependence_U,2023.2.3,Win32,59.88023952095548,,,,,,1581.237899999857,319,6,1581.238,319,,,,1585.0205999999048,1585.5183999998571,1584.5035999999047,1585.020399999857,1582.2372000000478,1584.5035,1585.5183999998571,1586.0175999999046,1586.0177000000479,1587.571399999857,1117,1587.5715999999047,2,1587.5845000000002,6,3,183,22,1,1.2,0.3,Time
,,355759,001,女,18,2025-06-03_12h51.02.642,Serial_Dependence_U,2023.2.3,Win32,59.88023952095548,,,,,,1587.5847999999523,132,6,1587.584899999857,132,,,,1590.9695000000002,1591.4612999999524,1590.453399999857,1590.969399999857,1588.5862000000477,1590.4532999999524,1591.4612999999524,1591.9613999998571,1591.9615000000001,1594.1292000000478,1300,1594.1295999999047,5,1594.143899999857,6,4,184,0,1,0.8,0.3,Time
,,355759,001,女,18,2025-06-03_12h51.02.642,Serial_Dependence_U,2023.2.3,Win32,59.88023952095548,,,,,,1594.1445,307,6,1594.1447000000478,307,,,,1598.2955999999047,1598.794,1597.7795,1598.295399999857,1595.145899999857,1597.7792999999524,1598.794,1599.2937000000477,1599.2937000000477,1600.9945999999047,1184,1600.9950000000001,2,1601.009,6,5,185,19,1,1.6,0.7,Time
,,355759,001,女,18,2025-06-03_12h51.02.642,Serial_Dependence_U,2023.2.3,Win32,59.88023952095548,,,,,,1601.0095000000001,353,6,1601.0097999999523,353,,,,1604.7945,1605.2925999999047,1604.2783999998571,1604.794399999857,1602.0115999999048,1604.2782999999524,1605.2925999999047,1605.7925999999047,1605.7927000000477,1607.360399999857,1166,1607.3607999999524,3,1607.3742000000477,6,6,186,2,1,1.2,0.3,Time
,,355759,001,女,18,2025-06-03_12h51.02.642,Serial_Dependence_U,2023.2.3,Win32,59.88023952095548,,,,,,1607.3745000000001,85,6,1607.3747999999523,85,,,,1610.7765999999046,1611.2757000000477,1610.261,1610.7762999999525,1608.3945,1610.2607999999525,1611.2757000000477,1611.7752999999525,1611.775399999857,1613.2602000000477,999,1613.2605999999048,4,1613.2747999999524,6,7,187,20,1,0.8,0.3,Time
,,355759,001,女,18,2025-06-03_12h51.02.642,Serial_Dependence_U,2023.2.3,Win32,59.88023952095548,,,,,,1613.2752999999525,302,6,1613.2755999999047,302,,,,1617.442899999857,1617.9410999999047,1616.9267999999524,1617.4427999999523,1614.276899999857,1616.9265999999047,1617.9412000000477,1618.441399999857,1618.4415000000001,1619.9920999999047,1200,1619.9922000000477,2,1620.008,6,8,188,9,1,1.6,0.7,Time
,,355759,001,女,18,2025-06-03_12h51.02.642,Serial_Dependence_U,2023.2.3,Win32,59.88023952095548,,,,,,1620.0085000000001,78,6,1620.0085999999046,78,,,,1624.1915999999046,1624.690399999857,1623.6762000000479,1624.191399999857,1621.0093999998571,1623.6760000000002,1624.690399999857,1625.190399999857,1625.190399999857,1627.7412999999524,1332,1627.7415999999048,2,1627.7557000000477,6,9,189,4,1,1.6,0.3,Time
,,355759,001,女,18,2025-06-03_12h51.02.642,Serial_Dependence_U,2023.2.3,Win32,59.88023952095548,,,,,,1627.756,29,6,1627.7562000000478,29,,,,1631.723899999857,1632.2225999999048,1631.207,1631.7237000000478,1628.7585999999046,1631.2067999999524,1632.2225999999048,1632.7225999999048,1632.7227999999525,1634.8232999999525,1267,1634.8237000000477,2,1634.838,6,10,190,8,1,1.4,0.7,Time
,,355759,001,女,18,2025-06-03_12h51.02.642,Serial_Dependence_U,2023.2.3,Win32,59.88023952095548,,,,,,1634.8385999999048,120,6,1634.838899999857,120,,,,1638.4235,1638.9215999999046,1637.9082000000478,1638.4232999999524,1635.8407999999524,1637.9077999999524,1638.9217000000478,1639.4215000000002,1639.4217000000478,1641.2892000000477,1551,1641.289899999857,5,1641.3040999999048,6,11,191,21,1,1,0.3,Time
,,355759,001,女,18,2025-06-03_12h51.02.642,Serial_Dependence_U,2023.2.3,Win32,59.88023952095548,,,,,,1641.3045000000002,258,6,1641.3047000000477,258,,,,1645.3060999999047,1645.8042999999525,1644.79,1645.305899999857,1642.323,1644.7897999999525,1645.8042999999525,1646.3042999999525,1646.304399999857,1648.0047999999524,1352,1648.0050999999048,3,1648.0170999999048,6,12,192,13,1,1.4,0.3,Time
,,355759,001,女,18,2025-06-03_12h51.02.642,Serial_Dependence_U,2023.2.3,Win32,59.88023952095548,,,,,,1648.0175000000002,268,6,1648.0175000000002,268,,,,1651.3717000000477,1651.8702000000478,1650.8557999999523,1651.3715999999047,1649.0222999999523,1650.8557000000478,1651.8702000000478,1652.3702000000478,1652.3702000000478,1655.0875,1984,1655.0877999999525,5,1655.1012000000478,6,13,193,5,1,0.8,0.7,Time
,,355759,001,女,18,2025-06-03_12h51.02.642,Serial_Dependence_U,2023.2.3,Win32,59.88023952095548,,,,,,1655.1015,100,6,1655.1017000000477,100,,,,1659.055,1659.5525,1658.538,1659.0547999999524,1656.1047999999523,1658.537899999857,1659.553,1660.0527999999524,1660.0527999999524,1662.1872999999523,1467,1662.1877000000477,3,1662.2022000000477,6,14,194,28,1,1.4,0.7,Time
,,355759,001,女,18,2025-06-03_12h51.02.642,Serial_Dependence_U,2023.2.3,Win32,59.88023952095548,,,,,,1662.2027000000478,165,6,1662.202899999857,165,,,,1665.986899999857,1666.4850000000001,1665.4705999999046,1665.9867000000477,1663.204399999857,1665.4703999998571,1666.4850000000001,1666.9745999999047,1666.9747000000477,1668.728899999857,1167,1668.7292000000477,3,1668.7430000000002,6,15,195,12,1,1.2,0.3,Time
,,355759,001,女,18,2025-06-03_12h51.02.642,Serial_Dependence_U,2023.2.3,Win32,59.88023952095548,,,,,,1668.7432999999523,224,6,1668.743399999857,224,,,,1672.693,1673.1842000000477,1672.1767000000477,1672.692899999857,1669.7425999999048,1672.1765999999047,1673.1842999999524,1673.684399999857,1673.684399999857,1675.1952000000479,1136,1675.1952999999523,2,1675.2082999999525,6,16,196,18,1,1.4,0.7,Time
,,355759,001,女,18,2025-06-03_12h51.02.642,Serial_Dependence_U,2023.2.3,Win32,59.88023952095548,,,,,,1675.2085999999047,114,6,1675.2087000000477,114,,,,1678.958,1679.45,1678.4423999998571,1678.957899999857,1676.2092000000478,1678.4422999999524,1679.4500999999048,1679.9560999999046,1679.9562999999523,1682.027,1601,1682.0270999999047,5,1682.0417000000477,6,17,197,17,1,1.2,0.7,Time
,,355759,001,女,18,2025-06-03_12h51.02.642,Serial_Dependence_U,2023.2.3,Win32,59.88023952095548,,,,,,1682.0420000000001,284,6,1682.0420999999046,284,,,,1685.6012999999523,1686.098899999857,1685.0837000000477,1685.6012000000478,1683.0407000000478,1685.0835000000002,1686.0990000000002,1686.5990000000002,1686.5990999999046,1688.4997000000478,1382,1688.499899999857,5,1688.512899999857,6,18,198,16,1,1,0.7,Time
,,355759,001,女,18,2025-06-03_12h51.02.642,Serial_Dependence_U,2023.2.3,Win32,59.88023952095548,,,,,,1688.5132000000478,335,6,1688.513399999857,335,,,,1692.5002999999524,1692.9982999999525,1691.9835,1692.5002000000477,1689.517399999857,1691.9835,1692.9982999999525,1693.4980999999048,1693.4982000000477,1695.598899999857,1731,1695.5990000000002,4,1695.612899999857,6,19,199,23,1,1.4,0.3,Time
,,355759,001,女,18,2025-06-03_12h51.02.642,Serial_Dependence_U,2023.2.3,Win32,59.88023952095548,,,,,,1695.6135999999046,172,6,1695.6137999999523,172,,,,1698.9992999999524,1699.4972999999525,1698.4830000000002,1698.9990999999047,1696.6160999999047,1698.482899999857,1699.4972999999525,1699.9972999999525,1699.997399999857,1702.064399999857,1568,1702.0647000000477,5,1702.0782000000477,6,20,200,10,1,0.8,0.3,Time
,,355759,001,女,18,2025-06-03_12h51.02.642,Serial_Dependence_U,2023.2.3,Win32,59.88023952095548,,,,,,1702.0785999999048,49,6,1702.0787000000478,49,,,,1705.4302000000478,1705.929899999857,1704.9150999999047,1705.43,1703.082,1704.915,1705.93,1706.4295999999047,1706.4295999999047,1708.2472000000478,1468,1708.2475000000002,5,1708.2612999999524,6,21,201,25,1,0.8,0.7,Time
,,355759,001,女,18,2025-06-03_12h51.02.642,Serial_Dependence_U,2023.2.3,Win32,59.88023952095548,,,,,,1708.2617999999525,198,6,1708.2620999999046,198,,,,1712.0142999999523,1712.512399999857,1711.4982000000477,1712.0142000000478,1709.2650999999048,1711.498,1712.512399999857,1713.0122999999523,1713.0122999999523,1714.7470999999048,1713,1714.7475000000002,5,1714.7635,6,22,202,27,1,1.2,0.7,Time
,,355759,001,女,18,2025-06-03_12h51.02.642,Serial_Dependence_U,2023.2.3,Win32,59.88023952095548,,,,,,1714.7637999999524,53,6,1714.7638999998571,53,,,,1718.3475999999048,1718.844899999857,1717.8465,1718.347399999857,1715.7787999999523,1717.846399999857,1718.844899999857,1719.3447999999523,1719.3447999999523,1721.5285000000001,933,1721.5287000000478,2,1721.5412999999523,6,23,203,1,1,1,0.3,Time
,,355759,001,女,18,2025-06-03_12h51.02.642,Serial_Dependence_U,2023.2.3,Win32,59.88023952095548,,,,,,1721.5415999999047,235,6,1721.5417000000477,235,,,,1725.0960999999047,1725.593899999857,1724.5795,1725.095899999857,1722.5457999999524,1724.5792999999524,1725.594,1726.0942000000477,1726.0942999999525,1727.7942999999525,1261,1727.7945,4,1727.8097000000478,6,24,204,6,1,1,0.7,Time
,,355759,001,女,18,2025-06-03_12h51.02.642,Serial_Dependence_U,2023.2.3,Win32,59.88023952095548,,,,,,1727.8102999999523,317,6,1727.8105,317,,,,1731.3775,1731.8767999999525,1730.8620999999048,1731.377399999857,1728.8125,1730.862,1731.876899999857,1732.376399999857,1732.3765,1734.4267000000477,1534,1734.426899999857,5,1734.4397000000477,6,25,205,26,1,1,0.7,Time
,,355759,001,女,18,2025-06-03_12h51.02.642,Serial_Dependence_U,2023.2.3,Win32,59.88023952095548,,,,,,1734.44,77,6,1734.4402000000478,77,,,,1738.6262000000477,1739.1255,1738.111,1738.6260999999047,1735.4445999999048,1738.110899999857,1739.1255999999048,1739.625399999857,1739.6255,1741.260399999857,1115,1741.2605999999048,1,1741.2752000000478,6,26,206,14,1,1.6,0.3,Time
,,355759,001,女,18,2025-06-03_12h51.02.642,Serial_Dependence_U,2023.2.3,Win32,59.88023952095548,,,,,,1741.2757999999524,311,6,1741.276,311,,,,1744.6270000000002,1745.1247999999523,1744.1105,1744.6267000000478,1742.276899999857,1744.110399999857,1745.1247999999523,1745.6247999999523,1745.6247999999523,1747.2590999999047,1269,1747.2597000000478,5,1747.2738999998571,6,27,207,15,1,0.8,0.7,Time
,,355759,001,女,18,2025-06-03_12h51.02.642,Serial_Dependence_U,2023.2.3,Win32,59.88023952095548,,,,,,1747.2742999999523,349,6,1747.274399999857,349,,,,1750.859399999857,1751.3575999999048,1750.3425,1750.8592000000478,1748.2767999999523,1750.3422999999525,1751.3575999999048,1751.8572000000477,1751.8572999999524,1753.390899999857,1168,1753.3912000000478,4,1753.4037999999523,6,28,208,11,1,1,0.3,Time
,,355759,001,女,18,2025-06-03_12h51.02.642,Serial_Dependence_U,2023.2.3,Win32,59.88023952095548,,,,,,1753.4040999999047,30,6,1753.4042999999524,30,,,,1757.574899999857,1758.073399999857,1757.0585999999048,1757.5747999999523,1754.408899999857,1757.0585,1758.073399999857,1758.5727000000477,1758.572899999857,1760.140899999857,1035,1760.1412000000478,1,1760.155899999857,6,29,209,29,1,1.6,0.7,Time
,,355759,001,女,18,2025-06-03_12h51.02.642,Serial_Dependence_U,2023.2.3,Win32,59.88023952095548,,,,,,1760.1565,332,7,1762.0395,332,s,1.8622999999524836,,1765.5905,1766.088899999857,1765.0745999999046,1765.5902000000478,1763.0410999999046,1765.0745000000002,1766.088899999857,1766.5885999999048,1766.5887000000478,1768.6890999999048,1203,1768.6892999999525,4,1768.704399999857,7,0,210,16,1,1,0.7,Time
,,355759,001,女,18,2025-06-03_12h51.02.642,Serial_Dependence_U,2023.2.3,Win32,59.88023952095548,,,,,,1768.704899999857,259,7,1768.7070999999048,259,,,,1772.6565999999048,1773.1550999999047,1772.1552000000477,1772.656399999857,1769.7230999999047,1772.1550999999047,1773.1550999999047,1773.6542999999524,1773.654399999857,1776.5887999999525,1079,1776.5890000000002,2,1776.6037000000479,7,1,211,8,1,1.4,0.7,Time
,,355759,001,女,18,2025-06-03_12h51.02.642,Serial_Dependence_U,2023.2.3,Win32,59.88023952095548,,,,,,1776.604399999857,27,7,1776.6045999999046,27,,,,1780.5887999999525,1781.0865000000001,1780.0725,1780.5885999999048,1777.6057000000478,1780.0722999999523,1781.0865000000001,1781.5867000000478,1781.5867999999523,1783.004399999857,1070,1783.0047000000477,2,1783.0183999998571,7,2,212,23,1,1.4,0.3,Time
,,355759,001,女,18,2025-06-03_12h51.02.642,Serial_Dependence_U,2023.2.3,Win32,59.88023952095548,,,,,,1783.018899999857,220,7,1783.0190999999047,220,,,,1786.9612999999524,1787.4527000000478,1786.454899999857,1786.9612000000477,1784.021899999857,1786.4547999999525,1787.4527999999525,1787.9560999999046,1787.9562000000478,1790.195399999857,1616,1790.1955999999047,4,1790.207899999857,7,3,213,28,1,1.4,0.7,Time
,,355759,001,女,18,2025-06-03_12h51.02.642,Serial_Dependence_U,2023.2.3,Win32,59.88023952095548,,,,,,1790.2082999999525,77,7,1790.208399999857,77,,,,1794.3600999999046,1794.8512000000478,1793.844,1794.3600999999046,1791.2095999999046,1793.844,1794.8512999999523,1795.3407999999524,1795.3407999999524,1797.710899999857,1666,1797.7110999999047,3,1797.7240999999046,7,4,214,9,1,1.6,0.7,Time
,,355759,001,女,18,2025-06-03_12h51.02.642,Serial_Dependence_U,2023.2.3,Win32,59.88023952095548,,,,,,1797.7245,189,7,1797.7245999999047,189,,,,1801.0763999998571,1801.566899999857,1800.5597000000478,1801.0762999999524,1798.7262999999523,1800.5595,1801.567,1802.0735,1802.0735,1803.8262000000477,1732,1803.8263999998571,5,1803.8387999999525,7,5,215,15,1,0.8,0.7,Time
,,355759,001,女,18,2025-06-03_12h51.02.642,Serial_Dependence_U,2023.2.3,Win32,59.88023952095548,,,,,,1803.8390999999046,32,7,1803.8392999999523,32,,,,1808.0255,1808.5167000000476,1807.5080999999047,1808.0252999999525,1804.8422999999525,1807.5080999999047,1808.5167999999524,1809.0165999999047,1809.0167000000476,1811.1427999999523,1434,1811.143,2,1811.1560000000002,7,6,216,14,1,1.6,0.3,Time
,,355759,001,女,18,2025-06-03_12h51.02.642,Serial_Dependence_U,2023.2.3,Win32,59.88023952095548,,,,,,1811.156399999857,141,7,1811.156399999857,141,,,,1815.3242000000478,1815.815899999857,1814.8232999999525,1815.3242000000478,1812.1577000000477,1814.8232999999525,1815.816,1816.321399999857,1816.3215,1818.3822999999525,1315,1818.3825000000002,2,1818.3952999999524,7,7,217,4,1,1.6,0.3,Time
,,355759,001,女,18,2025-06-03_12h51.02.642,Serial_Dependence_U,2023.2.3,Win32,59.88023952095548,,,,,,1818.3955999999048,78,7,1818.3957000000478,78,,,,1822.140399999857,1822.6317000000477,1821.6332000000477,1822.140399999857,1819.3997999999524,1821.633,1822.6317000000477,1823.131399999857,1823.1315000000002,1825.0740999999048,1383,1825.0742999999525,4,1825.0882000000477,7,8,218,27,1,1.2,0.7,Time
,,355759,001,女,18,2025-06-03_12h51.02.642,Serial_Dependence_U,2023.2.3,Win32,59.88023952095548,,,,,,1825.0885,263,7,1825.0887000000478,263,,,,1828.6723999998571,1829.1682000000478,1828.1557000000478,1828.6722999999524,1826.089399999857,1828.1555,1829.1682999999523,1829.6642999999524,1829.6642999999524,1831.3577000000478,1235,1831.3577999999525,4,1831.3717999999524,7,9,219,21,1,1,0.3,Time
,,355759,001,女,18,2025-06-03_12h51.02.642,Serial_Dependence_U,2023.2.3,Win32,59.88023952095548,,,,,,1831.3722000000478,170,7,1831.3722999999525,170,,,,1834.7547999999524,1835.2467000000477,1834.237899999857,1834.7547999999524,1832.3722000000478,1834.2377999999524,1835.2467999999524,1835.7350000000001,1835.7350000000001,1837.8735999999046,1501,1837.873899999857,5,1837.8870999999046,7,10,220,0,1,0.8,0.3,Time
,,355759,001,女,18,2025-06-03_12h51.02.642,Serial_Dependence_U,2023.2.3,Win32,59.88023952095548,,,,,,1837.887399999857,270,7,1837.8875,270,,,,1841.8702000000478,1842.3680999999046,1841.3537000000479,1841.8700999999046,1838.8872999999523,1841.3535000000002,1842.3682000000479,1842.8665,1842.8665999999048,1844.7707999999525,1183,1844.770899999857,2,1844.7845,7,11,221,3,1,1.4,0.3,Time
,,355759,001,女,18,2025-06-03_12h51.02.642,Serial_Dependence_U,2023.2.3,Win32,59.88023952095548,,,,,,1844.7847999999524,346,7,1844.784899999857,346,,,,1848.5367000000479,1849.0312999999524,1848.0197999999523,1848.5365999999046,1845.7862999999525,1848.0195999999048,1849.0312999999524,1849.5312000000476,1849.5312999999524,1851.6372999999523,1400,1851.637399999857,4,1851.6505,7,12,222,7,1,1.2,0.7,Time
,,355759,001,女,18,2025-06-03_12h51.02.642,Serial_Dependence_U,2023.2.3,Win32,59.88023952095548,,,,,,1851.650899999857,103,7,1851.651,103,,,,1855.8117000000477,1856.3102999999523,1855.295399999857,1855.8115999999047,1852.6517999999523,1855.2952999999525,1856.3102999999523,1856.8102000000479,1856.8102999999523,1858.911,1817,1858.9112000000478,4,1858.9245999999048,7,13,223,29,1,1.6,0.7,Time
,,355759,001,女,18,2025-06-03_12h51.02.642,Serial_Dependence_U,2023.2.3,Win32,59.88023952095548,,,,,,1858.9250000000002,147,7,1858.9250000000002,147,,,,1862.2772999999524,1862.7762000000478,1861.7615999999048,1862.2772999999524,1859.9282000000478,1861.7615,1862.7762000000478,1863.2762999999525,1863.2762999999525,1865.4435999999048,1749,1865.4437999999525,5,1865.458899999857,7,14,224,5,1,0.8,0.7,Time
,,355759,001,女,18,2025-06-03_12h51.02.642,Serial_Dependence_U,2023.2.3,Win32,59.88023952095548,,,,,,1865.4592000000478,353,7,1865.459399999857,353,,,,1869.0435999999047,1869.5420999999046,1868.5270999999047,1869.0435,1866.4607000000478,1868.5270999999047,1869.5420999999046,1870.0420000000001,1870.0420000000001,1872.109399999857,1202,1872.1097000000477,4,1872.1227000000479,7,15,225,1,1,1,0.3,Time
,,355759,001,女,18,2025-06-03_12h51.02.642,Serial_Dependence_U,2023.2.3,Win32,59.88023952095548,,,,,,1872.122899999857,3,7,1872.123,3,,,,1875.9087000000477,1876.4075999999047,1875.3925000000002,1875.9085999999047,1873.126899999857,1875.392399999857,1876.4077000000477,1876.9082000000478,1876.9082000000478,1878.9745999999047,1299,1878.974899999857,4,1878.9887000000479,7,16,226,12,1,1.2,0.3,Time
,,355759,001,女,18,2025-06-03_12h51.02.642,Serial_Dependence_U,2023.2.3,Win32,59.88023952095548,,,,,,1878.9890999999047,342,7,1878.9892000000477,342,,,,1883.175399999857,1883.6735999999048,1882.6597000000477,1883.1752999999524,1879.9930999999046,1882.6595999999047,1883.6737000000478,1884.1735999999048,1884.1737000000478,1885.624899999857,1166,1885.6257000000478,2,1885.6417000000476,7,17,227,24,1,1.6,0.3,Time
,,355759,001,女,18,2025-06-03_12h51.02.642,Serial_Dependence_U,2023.2.3,Win32,59.88023952095548,,,,,,1885.6422000000478,142,7,1885.6422999999525,142,,,,1889.4078999998571,1889.9062000000476,1888.8907999999524,1889.4077999999524,1886.6435000000001,1888.8907000000477,1889.9062000000476,1890.4062000000476,1890.4062000000476,1892.1237000000478,1250,1892.123899999857,3,1892.1388999998571,7,18,228,17,1,1.2,0.7,Time
,,355759,001,女,18,2025-06-03_12h51.02.642,Serial_Dependence_U,2023.2.3,Win32,59.88023952095548,,,,,,1892.1392000000478,58,7,1892.1395,58,,,,1895.7232000000477,1896.221399999857,1895.2075,1895.7230000000002,1893.1412000000478,1895.2072999999523,1896.221399999857,1896.721399999857,1896.721399999857,1898.088899999857,934,1898.0892999999523,2,1898.1022000000478,7,19,229,11,1,1,0.3,Time
,,355759,001,女,18,2025-06-03_12h51.02.642,Serial_Dependence_U,2023.2.3,Win32,59.88023952095548,,,,,,1898.1025999999047,98,7,1898.1027000000477,98,,,,1901.473399999857,1901.9712000000477,1900.957399999857,1901.4732999999524,1899.1070999999047,1900.9572000000478,1901.9712000000477,1902.470899999857,1902.471,1904.0220000000002,1035,1904.0222000000479,4,1904.0357999999524,7,20,230,25,1,0.8,0.7,Time
,,355759,001,女,18,2025-06-03_12h51.02.642,Serial_Dependence_U,2023.2.3,Win32,59.88023952095548,,,,,,1904.0360999999048,155,7,1904.0362000000478,155,,,,1907.8295999999048,1908.3202999999523,1907.3127999999524,1907.8295,1905.039399999857,1907.3127000000477,1908.3205,1908.8082000000477,1908.8082999999524,1910.9640999999046,1583,1910.9642999999523,5,1910.9782999999525,7,21,231,22,1,1.2,0.3,Time
,,355759,001,女,18,2025-06-03_12h51.02.642,Serial_Dependence_U,2023.2.3,Win32,59.88023952095548,,,,,,1910.9785000000002,137,7,1910.9785999999046,137,,,,1914.5272999999524,1915.019899999857,1914.0112000000477,1914.5272000000477,1911.9775999999047,1914.0110999999047,1915.02,1915.5195999999048,1915.5195999999048,1917.3447999999523,1366,1917.345,5,1917.358899999857,7,22,232,6,1,1,0.7,Time
,,355759,001,女,18,2025-06-03_12h51.02.642,Serial_Dependence_U,2023.2.3,Win32,59.88023952095548,,,,,,1917.3592000000478,106,7,1917.3592999999523,106,,,,1921.3102000000479,1921.8025999999047,1920.7935999999047,1921.3100999999047,1918.3605999999047,1920.793399999857,1921.8027000000477,1922.2925,1922.2925,1924.0190999999047,1401,1924.0193999998571,3,1924.032399999857,7,23,233,18,1,1.4,0.7,Time
,,355759,001,女,18,2025-06-03_12h51.02.642,Serial_Dependence_U,2023.2.3,Win32,59.88023952095548,,,,,,1924.0327000000477,139,7,1924.0327999999524,139,,,,1927.8197000000478,1928.3173999998571,1927.3035,1927.8195999999048,1925.036899999857,1927.303399999857,1928.3175,1928.818,1928.818,1930.6357999999525,1266,1930.6360999999047,4,1930.6495,7,24,234,2,1,1.2,0.3,Time
,,355759,001,女,18,2025-06-03_12h51.02.642,Serial_Dependence_U,2023.2.3,Win32,59.88023952095548,,,,,,1930.6500999999048,2,7,1930.6502999999525,2,,,,1934.6357999999525,1935.1337999999523,1934.1190000000001,1934.6355999999048,1931.653,1934.118899999857,1935.133899999857,1935.633,1935.633,1936.9360000000001,934,1936.9362999999523,1,1936.952,7,25,235,13,1,1.4,0.3,Time
,,355759,001,女,18,2025-06-03_12h51.02.642,Serial_Dependence_U,2023.2.3,Win32,59.88023952095548,,,,,,1936.9525,354,7,1936.9525999999048,354,,,,1940.334399999857,1940.833399999857,1939.8180999999047,1940.3342999999525,1937.9525999999048,1939.818,1940.833399999857,1941.3327000000477,1941.332899999857,1943.917399999857,1435,1943.9175999999047,5,1943.9317000000478,7,26,236,20,1,0.8,0.3,Time
,,355759,001,女,18,2025-06-03_12h51.02.642,Serial_Dependence_U,2023.2.3,Win32,59.88023952095548,,,,,,1943.9325999999046,167,7,1943.933,167,,,,1948.0840999999048,1948.5817999999524,1947.5675,1948.083899999857,1944.9345,1947.5672999999524,1948.5818999998571,1949.0817000000477,1949.0817000000477,1951.5512999999523,2003,1951.5515,4,1951.5645999999047,7,27,237,19,1,1.6,0.7,Time
,,355759,001,女,18,2025-06-03_12h51.02.642,Serial_Dependence_U,2023.2.3,Win32,59.88023952095548,,,,,,1951.5652999999525,240,7,1951.5655000000002,240,,,,1955.1312999999525,1955.6302000000478,1954.615,1955.1312000000478,1952.566399999857,1954.6147999999523,1955.6302999999523,1956.1300999999048,1956.1302000000478,1958.8307000000477,1794,1958.8308999998571,5,1958.8410000000001,7,28,238,26,1,1,0.7,Time
,,355759,001,女,18,2025-06-03_12h51.02.642,Serial_Dependence_U,2023.2.3,Win32,59.88023952095548,,,,,,1958.8412999999523,155,7,1958.841399999857,155,,,,1962.2145999999047,1962.7127000000478,1961.6977000000477,1962.214399999857,1959.8308999998571,1961.6975,1962.7127999999525,1963.2132000000477,1963.2132000000477,1965.3645999999046,1489,1965.365,5,1965.3802000000478,7,29,239,10,1,0.8,0.3,Time
,,355759,001,女,18,2025-06-03_12h51.02.642,Serial_Dependence_U,2023.2.3,Win32,59.88023952095548,,,,,,1965.3807999999524,56,8,1968.6642000000477,56,s,3.2605999999045707,,1972.6522000000477,1973.145,1972.135899999857,1972.6522000000477,1969.6687999999524,1972.1357999999525,1973.1452000000477,1973.6447999999523,1973.644899999857,1975.7692000000477,1767,1975.7693999998571,4,1975.7800999999047,8,0,240,13,1,1.4,0.3,Time
,,355759,001,女,18,2025-06-03_12h51.02.642,Serial_Dependence_U,2023.2.3,Win32,59.88023952095548,,,,,,1975.780399999857,130,8,1975.781399999857,130,,,,1979.9342000000477,1980.4270000000001,1979.417399999857,1979.9340999999047,1976.7842999999523,1979.417399999857,1980.4270999999046,1980.9272000000478,1980.9272999999523,1982.6705999999047,1069,1982.6707999999524,1,1982.6822000000477,8,1,241,9,1,1.6,0.7,Time
,,355759,001,女,18,2025-06-03_12h51.02.642,Serial_Dependence_U,2023.2.3,Win32,59.88023952095548,,,,,,1982.6823999998571,220,8,1982.6825000000001,220,,,,1986.0665000000001,1986.5625,1985.5505,1986.066399999857,1983.6835999999048,1985.5505,1986.5625,1987.0600999999047,1987.0602000000479,1988.7675000000002,1183,1988.7677000000479,5,1988.7792999999524,8,2,242,20,1,0.8,0.3,Time
,,355759,001,女,18,2025-06-03_12h51.02.642,Serial_Dependence_U,2023.2.3,Win32,59.88023952095548,,,,,,1988.7795999999048,142,8,1988.7797000000478,142,,,,1992.9497000000479,1993.442,1992.4487999999524,1992.9495999999046,1989.7825,1992.4487000000477,1993.442,1993.931,1993.931,1996.3007000000478,1950,1996.3007999999525,4,1996.3135999999047,8,3,243,24,1,1.6,0.3,Time
,,355759,001,女,18,2025-06-03_12h51.02.642,Serial_Dependence_U,2023.2.3,Win32,59.88023952095548,,,,,,1996.314,339,8,1996.3140999999048,339,,,,2000.2647000000477,2000.7622000000479,1999.748,2000.2645999999047,1997.315399999857,1999.748,2000.7622000000479,2001.2575999999046,2001.2575999999046,2002.7415999999048,1160,2002.7417999999525,2,2002.7520000000002,8,4,244,8,1,1.4,0.7,Time
,,355759,001,女,18,2025-06-03_12h51.02.642,Serial_Dependence_U,2023.2.3,Win32,59.88023952095548,,,,,,2002.7522999999524,215,8,2002.7525,215,,,,2006.4912000000477,2006.9902999999524,2005.9747000000477,2006.4910999999047,2003.7412999999524,2005.9745999999047,2006.9902999999524,2007.4912999999524,2007.4912999999524,2008.8845999999048,1015,2008.8847999999523,2,2008.8982000000478,8,5,245,27,1,1.2,0.7,Time
,,355759,001,女,18,2025-06-03_12h51.02.642,Serial_Dependence_U,2023.2.3,Win32,59.88023952095548,,,,,,2008.8985,11,8,2008.8985999999047,11,,,,2012.2502000000477,2012.7407000000478,2011.7327000000478,2012.2500999999047,2009.8990000000001,2011.7325,2012.7407000000478,2013.228899999857,2013.229,2015.1507000000477,1516,2015.1507999999524,5,2015.1632999999524,8,6,246,25,1,0.8,0.7,Time
,,355759,001,女,18,2025-06-03_12h51.02.642,Serial_Dependence_U,2023.2.3,Win32,59.88023952095548,,,,,,2015.1637999999523,281,8,2015.163899999857,281,,,,2018.5482999999524,2019.0425,2018.031399999857,2018.5482000000477,2016.1647000000478,2018.0312999999524,2019.0425999999047,2019.5395999999048,2019.5397999999525,2020.9815,1066,2020.9817000000478,5,2020.9970999999048,8,7,247,0,1,0.8,0.3,Time
,,355759,001,女,18,2025-06-03_12h51.02.642,Serial_Dependence_U,2023.2.3,Win32,59.88023952095548,,,,,,2020.9975999999047,295,8,2020.9977999999523,295,,,,2024.7805999999043,2025.2724999999998,2024.2645999999047,2024.7805,2021.9975,2024.2645,2025.2725999999045,2025.777399999857,2025.7775999999046,2027.499,1435,2027.499299999952,4,2027.5132000000474,8,8,248,2,1,1.2,0.3,Time
,,355759,001,女,18,2025-06-03_12h51.02.642,Serial_Dependence_U,2023.2.3,Win32,59.88023952095548,,,,,,2027.5134999999998,144,8,2027.5134999999998,144,,,,2031.2630999999044,2031.7547999999522,2030.7465999999047,2031.2629999999997,2028.5130999999044,2030.7465,2031.754899999857,2032.2432999999521,2032.2434999999998,2034.0627000000475,1350,2034.0627999999522,4,2034.0759999999998,8,9,249,17,1,1.2,0.7,Time
,,355759,001,女,18,2025-06-03_12h51.02.642,Serial_Dependence_U,2023.2.3,Win32,59.88023952095548,,,,,,2034.076399999857,110,8,2034.0765,110,,,,2037.4623999998569,2037.9537999999523,2036.9455,2037.4623999998569,2035.0790999999047,2036.9452999999523,2037.953899999857,2038.4599999999998,2038.4600999999045,2041.1139999999998,1568,2041.1142000000475,5,2041.1269999999997,8,10,250,10,1,0.8,0.3,Time
,,355759,001,女,18,2025-06-03_12h51.02.642,Serial_Dependence_U,2023.2.3,Win32,59.88023952095548,,,,,,2041.1273999998568,359,8,2041.1273999998568,359,,,,2045.0775999999044,2045.5695999999045,2044.5612999999523,2045.0775999999044,2042.1280999999046,2044.5612000000476,2045.5697000000475,2046.0697999999522,2046.069899999857,2047.9292999999523,1533,2047.9295999999047,4,2047.942899999857,8,11,251,18,1,1.4,0.7,Time
,,355759,001,女,18,2025-06-03_12h51.02.642,Serial_Dependence_U,2023.2.3,Win32,59.88023952095548,,,,,,2047.9430999999047,262,8,2047.9432000000477,262,,,,2051.4932000000476,2051.9855000000002,2050.977,2051.4930999999046,2048.9437999999523,2050.976899999857,2051.985599999905,2052.4742999999526,2052.4745000000003,2053.895700000048,982,2053.895899999857,3,2053.908899999857,8,12,252,16,1,1,0.7,Time
,,355759,001,女,18,2025-06-03_12h51.02.642,Serial_Dependence_U,2023.2.3,Win32,59.88023952095548,,,,,,2053.909200000048,137,8,2053.9092999999525,137,,,,2057.4595999999046,2057.951599999905,2056.9427999999525,2057.4595999999046,2054.909700000048,2056.942599999905,2057.951599999905,2058.451399999857,2058.4515,2059.9097999999526,1016,2059.91,3,2059.9230000000002,8,13,253,26,1,1,0.7,Time
,,355759,001,女,18,2025-06-03_12h51.02.642,Serial_Dependence_U,2023.2.3,Win32,59.88023952095548,,,,,,2059.923399999857,192,8,2059.9235999999046,192,,,,2063.267899999857,2063.767200000048,2062.759599999905,2063.2677999999523,2060.926399999857,2062.7595,2063.7672999999522,2064.267200000048,2064.2672999999522,2066.5930000000003,1433,2066.5932000000475,5,2066.6065999999046,8,14,254,15,1,0.8,0.7,Time
