Scale_setup.started,Scale_setup.stopped,participant,session,sex,age,date,expName,psychopyVersion,OS,frameRate,Intro.started,Intro.stopped,key_resp_2.keys,key_resp_2.rt,key_resp_2.duration,block.started,direction,Block_id,block.stopped,trial_direction,Block_resp_2.keys,Block_resp_2.rt,Block_resp_2.duration,ITI.started,ITI.stopped,Mask_2.started,Mask_2.stopped,encoding.started,encoding.stopped,Cue.started,Cue.stopped,Response.started,Response.stopped,keyDuration,Feedback_Time.started,FeedbackID_T,Feedback_Time.stopped,trials.thisRepN,trials.thisTrialN,trials.thisN,trials.thisIndex,trials.ran,TimeDur,Coherence1,TrialType
0.00009999996423459834,0.0001999999880837322,384894,001,男,19,2025-06-04_10h26.20.680,Serial_Dependence_U,2023.2.3,Win32,60.60606060606061,,,,,,,,,,,,,,,,,,,,,,,,,,,,,,,,,,,
,,384894,001,男,19,2025-06-04_10h26.20.680,Serial_Dependence_U,2023.2.3,Win32,60.60606060606061,49.819199999988086,96.33049999999999,space,46.484399999976134,,,,,,,,,,,,,,,,,,,,,,,,,,,,,,,
,,384894,001,男,19,2025-06-04_10h26.20.680,Serial_Dependence_U,2023.2.3,Win32,60.60606060606061,,,,,,96.33539999997616,250,0,102.3872999999523,250,s,5.9922999999523086,,105.7347999999523,106.22679999995232,105.2262999999523,105.73459999996423,103.38869999998808,105.22619999998808,106.22699999999999,106.71959999996422,106.71979999995231,108.50829999995231,534,108.50859999996423,1,109.50929999995232,0,0,0,5,1,0.8,0.7,Time
,,384894,001,男,19,2025-06-04_10h26.20.680,Serial_Dependence_U,2023.2.3,Win32,60.60606060606061,,,,,,109.51009999996423,341,0,109.5115,341,,,,113.0545,113.5465,112.54569999998806,113.05439999997616,110.51059999996424,112.54559999996424,113.5465,114.03889999997615,114.03889999997615,115.58199999999998,909,115.58209999996423,2,116.58559999996423,0,1,1,26,1,1,0.7,Time
,,384894,001,男,19,2025-06-04_10h26.20.680,Serial_Dependence_U,2023.2.3,Win32,60.60606060606061,,,,,,116.58589999997615,6,0,116.58589999997615,6,,,,120.53829999995232,121.0305,120.03519999998808,120.53819999998807,117.59059999996423,120.03509999996423,121.03059999996422,121.52289999997616,121.52289999997616,122.26519999998807,580,122.26519999998807,1,123.26239999997615,0,2,2,8,1,1.4,0.7,Time
,,384894,001,男,19,2025-06-04_10h26.20.680,Serial_Dependence_U,2023.2.3,Win32,60.60606060606061,,,,,,123.26269999998807,213,0,123.26279999995232,213,,,,127.41499999999998,127.90719999998807,126.90659999996423,127.41489999997616,124.2657999999523,126.90659999996423,127.90719999998807,128.3995,128.3995,129.17089999997614,692,129.171,1,130.17289999997615,0,3,3,9,1,1.6,0.7,Time
,,384894,001,男,19,2025-06-04_10h26.20.680,Serial_Dependence_U,2023.2.3,Win32,60.60606060606061,,,,,,130.17319999998807,27,0,130.1732999999523,27,,,,134.35739999997617,134.84949999999998,133.84889999997614,134.35739999997617,131.17869999998805,133.8487999999523,134.84959999996425,135.34219999998805,135.34229999995233,137.08139999997616,875,137.0815,1,138.08269999998805,0,4,4,14,1,1.6,0.3,Time
,,384894,001,男,19,2025-06-04_10h26.20.680,Serial_Dependence_U,2023.2.3,Win32,60.60606060606061,,,,,,138.08309999996425,163,0,138.0831999999881,163,,,,142.05789999997614,142.54669999998805,141.54919999998805,142.05789999997614,139.0837999999523,141.54909999996426,142.54669999998805,143.04179999995233,143.04189999997612,144.4840999999642,659,144.48419999998805,1,145.48439999997618,0,5,5,3,1,1.4,0.3,Time
,,384894,001,男,19,2025-06-04_10h26.20.680,Serial_Dependence_U,2023.2.3,Win32,60.60606060606061,,,,,,145.48489999997616,185,0,145.48509999996423,185,,,,149.25959999996422,149.75149999999996,148.75099999999998,149.2595,146.486,148.75089999997613,149.75149999999996,150.24409999996425,150.24409999996425,151.5415999999642,500,151.54169999998805,1,152.54149999999998,0,6,6,12,1,1.2,0.3,Time
,,384894,001,男,19,2025-06-04_10h26.20.680,Serial_Dependence_U,2023.2.3,Win32,60.60606060606061,,,,,,152.54189999997612,270,0,152.54219999998804,270,,,,156.28469999998805,156.7756999999881,155.77529999995232,156.28459999996426,153.543,155.77519999998805,156.7756999999881,157.26829999995232,157.26839999997617,158.81139999997617,885,158.81149999999997,2,159.81209999996423,0,7,7,27,1,1.2,0.7,Time
,,384894,001,男,19,2025-06-04_10h26.20.680,Serial_Dependence_U,2023.2.3,Win32,60.60606060606061,,,,,,159.8125,105,0,159.81259999996422,105,,,,163.35769999998809,163.8501999999881,162.8487999999523,163.35759999996424,160.81339999997613,162.84869999998807,163.8501999999881,164.3417999999523,164.3417999999523,164.99879999995233,197,164.99899999999997,1,165.99959999996423,0,8,8,16,1,1,0.7,Time
,,384894,001,男,19,2025-06-04_10h26.20.680,Serial_Dependence_U,2023.2.3,Win32,60.60606060606061,,,,,,165.99989999997615,278,0,166,278,,,,169.57799999999997,170.07039999997613,169.0692999999523,169.57789999997613,167.00069999998806,169.0691999999881,170.07039999997613,170.56219999998808,170.5622999999523,172.08919999998807,805,172.0892999999523,2,173.08989999997613,0,9,9,1,1,1,0.3,Time
,,384894,001,男,19,2025-06-04_10h26.20.680,Serial_Dependence_U,2023.2.3,Win32,60.60606060606061,,,,,,173.09039999997617,294,0,173.09050000000002,294,,,,176.6676999999881,177.16059999996423,176.15959999996426,176.66759999996424,174.09119999998808,176.15949999999998,177.16059999996423,177.65219999998806,177.65229999995233,178.80179999995232,590,178.80199999999996,1,179.80239999997616,0,10,10,11,1,1,0.3,Time
,,384894,001,男,19,2025-06-04_10h26.20.680,Serial_Dependence_U,2023.2.3,Win32,60.60606060606061,,,,,,179.80289999997615,233,0,179.803,233,,,,183.7742999999523,184.2667999999523,183.26539999997613,183.77419999998807,180.80369999998805,183.26529999995233,184.2667999999523,184.7586999999881,184.7586999999881,186.10469999998804,824,186.10469999998804,1,187.10539999997616,0,11,11,13,1,1.4,0.3,Time
,,384894,001,男,19,2025-06-04_10h26.20.680,Serial_Dependence_U,2023.2.3,Win32,60.60606060606061,,,,,,187.1057999999523,111,0,187.10589999997615,111,,,,191.07769999998806,191.56989999997614,190.56909999996424,191.0775999999642,188.10739999997617,190.56900000000002,191.57,192.06189999997616,192.062,193.32569999998805,587,193.32579999995232,1,194.3267999999523,0,12,12,23,1,1.4,0.3,Time
,,384894,001,男,19,2025-06-04_10h26.20.680,Serial_Dependence_U,2023.2.3,Win32,60.60606060606061,,,,,,194.3272999999523,279,0,194.3275,279,,,,198.2665,198.7580999999642,197.7592999999523,198.26639999997616,195.32850000000002,197.7592999999523,198.7580999999642,199.25099999999998,199.25109999996425,200.6132999999523,890,200.61339999997614,1,201.6135,0,13,13,18,1,1.4,0.7,Time
,,384894,001,男,19,2025-06-04_10h26.20.680,Serial_Dependence_U,2023.2.3,Win32,60.60606060606061,,,,,,201.61389999997613,277,0,201.61399999999998,277,,,,205.3722999999523,205.86459999996424,204.86389999997613,205.37209999996423,202.6185999999642,204.86379999995233,205.8646999999881,206.35669999998805,206.35669999998805,207.21059999996424,805,207.2106999999881,1,208.2112999999523,0,14,14,17,1,1.2,0.7,Time
,,384894,001,男,19,2025-06-04_10h26.20.680,Serial_Dependence_U,2023.2.3,Win32,60.60606060606061,,,,,,208.2117999999523,125,0,208.21189999997614,125,,,,211.7895999999642,212.2821999999881,211.2815,211.78949999999998,209.21299999999997,211.2815,212.2821999999881,212.77379999995236,212.7738999999762,214.38229999995235,1305,214.3823999999762,5,215.38339999997618,0,15,15,21,1,1,0.3,Time
,,384894,001,男,19,2025-06-04_10h26.20.680,Serial_Dependence_U,2023.2.3,Win32,60.60606060606061,,,,,,215.3836999999881,229,0,215.38379999995237,229,,,,219.5686999999881,220.0608999999762,219.06000000000006,219.56850000000003,216.3848999999762,219.0598999999762,220.0608999999762,220.55300000000005,220.55300000000005,222.57179999995236,1232,222.5718999999762,2,223.57309999996426,0,16,16,4,1,1.6,0.3,Time
,,384894,001,男,19,2025-06-04_10h26.20.680,Serial_Dependence_U,2023.2.3,Win32,60.60606060606061,,,,,,223.57350000000002,275,0,223.57359999996424,275,,,,226.95379999995237,227.44629999995237,226.44559999996426,226.9536999999881,224.57419999998814,226.4453999999762,227.44629999995237,227.9386999999881,227.9386999999881,229.61239999997622,936,229.61239999997622,4,230.6136999999881,0,17,17,20,1,0.8,0.3,Time
,,384894,001,男,19,2025-06-04_10h26.20.680,Serial_Dependence_U,2023.2.3,Win32,60.60606060606061,,,,,,230.61389999997618,182,0,230.61409999996425,182,,,,233.96229999995234,234.454,233.4531999999881,233.96219999998812,231.61519999998814,233.45309999996425,234.45409999996428,234.94629999995237,234.94629999995237,236.9651999999881,1055,236.9651999999881,5,237.96619999998813,0,18,18,25,1,0.8,0.7,Time
,,384894,001,男,19,2025-06-04_10h26.20.680,Serial_Dependence_U,2023.2.3,Win32,60.60606060606061,,,,,,237.96650000000005,52,0,237.96669999998812,52,,,,241.3476999999881,241.83929999995235,240.83929999995235,241.34759999996425,238.96779999995238,240.83919999998813,241.83929999995235,242.3318999999762,242.3318999999762,243.76000000000005,977,243.76009999996427,4,244.7615999999643,0,19,19,0,1,0.8,0.3,Time
,,384894,001,男,19,2025-06-04_10h26.20.680,Serial_Dependence_U,2023.2.3,Win32,60.60606060606061,,,,,,244.7618999999762,258,0,244.76200000000006,258,,,,248.72009999996425,249.2085999999643,248.20879999995236,248.72000000000003,245.76279999995234,248.20869999998814,249.20869999998814,249.70139999997622,249.70139999997622,251.5065999999643,1188,251.5066999999881,2,252.5073999999762,0,20,20,28,1,1.4,0.7,Time
,,384894,001,男,19,2025-06-04_10h26.20.680,Serial_Dependence_U,2023.2.3,Win32,60.60606060606061,,,,,,252.5078999999762,284,0,252.50800000000004,284,,,,256.2825,256.79100000000005,255.77729999995233,256.2825,253.50900000000001,255.7771999999881,256.79100000000005,257.2830999999643,257.28319999998814,258.7768999999762,1318,258.7768999999762,4,259.77789999997617,0,21,21,22,1,1.2,0.3,Time
,,384894,001,男,19,2025-06-04_10h26.20.680,Serial_Dependence_U,2023.2.3,Win32,60.60606060606061,,,,,,259.77829999995237,98,0,259.7785,98,,,,263.9668999999762,264.4553999999762,263.4546999999881,263.96679999995234,260.7826999999881,263.4546999999881,264.4553999999762,264.9476999999881,264.9476999999881,266.5661999999881,1040,266.5662999999524,1,267.55729999995236,0,22,22,24,1,1.6,0.3,Time
,,384894,001,男,19,2025-06-04_10h26.20.680,Serial_Dependence_U,2023.2.3,Win32,60.60606060606061,,,,,,267.55779999995235,2,0,267.55800000000005,2,,,,271.7131999999881,272.20169999998814,271.2043999999762,271.7130999999643,268.5586999999881,271.20429999995235,272.20169999998814,272.69389999997617,272.694,274.5157999999524,1292,274.5157999999524,2,275.51750000000004,0,23,23,19,1,1.6,0.7,Time
,,384894,001,男,19,2025-06-04_10h26.20.680,Serial_Dependence_U,2023.2.3,Win32,60.60606060606061,,,,,,275.51779999995233,142,0,275.51779999995233,142,,,,279.6696999999881,280.1622999999523,279.1608999999762,279.66959999996425,276.5185999999643,279.16079999995236,280.1622999999523,280.6543999999762,280.6543999999762,282.55769999998813,1467,282.55779999995235,2,283.5587999999523,0,24,24,29,1,1.6,0.7,Time
,,384894,001,男,19,2025-06-04_10h26.20.680,Serial_Dependence_U,2023.2.3,Win32,60.60606060606061,,,,,,283.5591999999881,277,0,283.5592999999524,277,,,,286.90729999995233,287.39950000000005,286.39900000000006,286.9071999999881,284.56100000000004,286.3988999999762,287.39950000000005,287.89229999995234,287.89229999995234,289.0898999999762,697,289.0898999999762,2,290.0906999999881,0,25,25,15,1,0.8,0.7,Time
,,384894,001,男,19,2025-06-04_10h26.20.680,Serial_Dependence_U,2023.2.3,Win32,60.60606060606061,,,,,,290.091,266,0,290.0910999999643,266,,,,293.4721999999881,293.9646999999881,292.9635,293.4721999999881,291.09250000000003,292.9633999999762,293.96479999995233,294.4561999999881,294.4561999999881,296.11409999996425,896,296.11409999996425,4,297.11529999995236,0,26,26,10,1,0.8,0.3,Time
,,384894,001,男,19,2025-06-04_10h26.20.680,Serial_Dependence_U,2023.2.3,Win32,60.60606060606061,,,,,,297.11579999995234,339,0,297.1158999999762,339,,,,300.89129999995237,301.38259999996427,300.3815,300.8910999999643,298.1170999999643,300.3815,301.3826999999881,301.8753999999762,301.8753999999762,303.4186999999881,1133,303.4186999999881,2,304.4195,0,27,27,2,1,1.2,0.3,Time
,,384894,001,男,19,2025-06-04_10h26.20.680,Serial_Dependence_U,2023.2.3,Win32,60.60606060606061,,,,,,304.4200999999643,358,0,304.4201999999881,358,,,,308.1611999999881,308.65289999997617,307.65250000000003,308.1610999999643,305.42029999995236,307.6523999999762,308.653,309.1453999999762,309.1455,310.49150000000003,1056,310.49150000000003,2,311.4950999999643,0,28,28,7,1,1.2,0.7,Time
,,384894,001,男,19,2025-06-04_10h26.20.680,Serial_Dependence_U,2023.2.3,Win32,60.60606060606061,,,,,,311.49579999995234,138,0,311.49600000000004,138,,,,315.03779999995237,315.5296999999881,314.52950000000004,315.0376999999881,312.49359999996426,314.52929999995234,315.5296999999881,316.0221999999881,316.02229999995234,317.4510999999643,1003,317.4510999999643,3,318.4508999999762,0,29,29,6,1,1,0.7,Time
,,384894,001,男,19,2025-06-04_10h26.20.680,Serial_Dependence_U,2023.2.3,Win32,60.60606060606061,,,,,,318.4513999999762,338,1,333.5335999999643,338,s,15.072300000011921,,337.2922999999524,337.7841999999881,336.78319999998814,337.2922999999524,334.5405999999643,336.78319999998814,337.7841999999881,338.27650000000006,338.2765999999643,340.06579999995233,1330,340.06579999995233,4,340.06609999996425,1,0,30,17,1,1.2,0.7,Time
,,384894,001,男,19,2025-06-04_10h26.20.680,Serial_Dependence_U,2023.2.3,Win32,60.60606060606061,,,,,,340.0661999999881,76,1,340.06679999995237,76,,,,343.4465999999643,343.9387999999523,342.9376999999881,343.4465,341.06679999995237,342.9376999999881,343.9387999999523,344.4311999999881,344.43129999995233,345.3013999999762,411,345.3013999999762,1,345.30159999996425,1,1,31,0,1,0.8,0.3,Time
,,384894,001,男,19,2025-06-04_10h26.20.680,Serial_Dependence_U,2023.2.3,Win32,60.60606060606061,,,,,,345.3017999999523,299,1,345.3018999999762,299,,,,348.6493999999762,349.14200000000005,348.1415,348.64929999995235,346.3025999999643,348.1413999999762,349.14200000000005,349.6337999999524,349.63389999997617,350.91409999996426,871,350.9141999999881,4,350.9143999999762,1,2,32,15,1,0.8,0.7,Time
,,384894,001,男,19,2025-06-04_10h26.20.680,Serial_Dependence_U,2023.2.3,Win32,60.60606060606061,,,,,,350.9146999999881,31,1,350.9146999999881,31,,,,354.26229999995235,354.7543999999762,353.75350000000003,354.2621999999881,351.91629999995234,353.75350000000003,354.7543999999762,355.24659999996425,355.2466999999881,356.47829999995236,803,356.47850000000005,3,356.4786999999881,1,3,33,25,1,0.8,0.7,Time
,,384894,001,男,19,2025-06-04_10h26.20.680,Serial_Dependence_U,2023.2.3,Win32,60.60606060606061,,,,,,356.47900000000004,344,1,356.47909999996426,344,,,,360.2208999999762,360.71259999996425,359.71150000000006,360.22079999995236,357.4793999999762,359.7113999999762,360.71259999996425,361.2046999999881,361.2046999999881,362.51759999996426,994,362.5176999999881,2,362.5178999999762,1,4,34,7,1,1.2,0.7,Time
,,384894,001,男,19,2025-06-04_10h26.20.680,Serial_Dependence_U,2023.2.3,Win32,60.60606060606061,,,,,,362.5181999999881,34,1,362.5182999999524,34,,,,366.4891999999881,366.98159999996426,365.98400000000004,366.48909999996425,363.51919999998813,365.9838999999762,366.98159999996426,367.4735999999643,367.4735999999643,368.5896999999881,728,368.58979999995233,1,368.59009999996425,1,5,35,23,1,1.4,0.3,Time
,,384894,001,男,19,2025-06-04_10h26.20.680,Serial_Dependence_U,2023.2.3,Win32,60.60606060606061,,,,,,368.5905,69,1,368.5906999999881,69,,,,372.7746999999881,373.2671999999881,372.26979999995234,372.7746999999881,369.5952999999524,372.2696999999881,373.2671999999881,373.75979999995235,373.75979999995235,375.30269999998814,1221,375.30269999998814,2,375.30300000000005,1,6,36,4,1,1.6,0.3,Time
,,384894,001,男,19,2025-06-04_10h26.20.680,Serial_Dependence_U,2023.2.3,Win32,60.60606060606061,,,,,,375.30329999995234,236,1,375.30350000000004,236,,,,378.8803999999762,379.37269999998813,378.37529999995235,378.8803999999762,376.3070999999643,378.3750999999643,379.37269999998813,379.8648999999762,379.865,380.8698999999762,673,380.8698999999762,1,380.8700999999643,1,7,37,11,1,1,0.3,Time
,,384894,001,男,19,2025-06-04_10h26.20.680,Serial_Dependence_U,2023.2.3,Win32,60.60606060606061,,,,,,380.87029999995235,130,1,380.8703999999762,130,,,,384.41429999995233,384.90629999995235,383.9077999999524,384.4141999999881,381.87059999996427,383.9076999999881,384.90629999995235,385.3981999999881,385.3981999999881,387.05350000000004,1235,387.05350000000004,4,387.05379999995233,1,8,38,6,1,1,0.7,Time
,,384894,001,男,19,2025-06-04_10h26.20.680,Serial_Dependence_U,2023.2.3,Win32,60.60606060606061,,,,,,387.05400000000003,180,1,387.05409999996425,180,,,,390.43779999995235,390.9268999999762,389.9253999999762,390.4376999999881,388.05809999996427,389.9253999999762,390.927,391.4186999999881,391.4186999999881,392.6998999999762,721,392.70000000000005,2,392.7003999999762,1,9,39,20,1,0.8,0.3,Time
,,384894,001,男,19,2025-06-04_10h26.20.680,Serial_Dependence_U,2023.2.3,Win32,60.60606060606061,,,,,,392.7006999999881,231,1,392.7007999999523,231,,,,396.44100000000003,396.9365,395.9325999999643,396.44100000000003,393.7001999999881,395.93250000000006,396.93659999996424,397.42629999995233,397.4263999999762,399.00529999995234,1259,399.0053999999762,3,399.00550000000004,1,10,40,27,1,1.2,0.7,Time
,,384894,001,男,19,2025-06-04_10h26.20.680,Serial_Dependence_U,2023.2.3,Win32,60.60606060606061,,,,,,399.0056999999881,300,1,399.0058999999762,300,,,,402.9568999999762,403.4498999999762,402.4483999999762,402.95679999995235,400.0028999999762,402.4481999999881,403.4498999999762,403.94109999996425,403.94109999996425,405.50109999996425,1270,405.5012999999523,2,405.5015,1,11,41,8,1,1.4,0.7,Time
,,384894,001,男,19,2025-06-04_10h26.20.680,Serial_Dependence_U,2023.2.3,Win32,60.60606060606061,,,,,,405.5016999999881,242,1,405.5016999999881,242,,,,409.2752999999523,409.76759999996426,408.76679999995235,409.2751999999881,406.502,408.76669999998813,409.76759999996426,410.25979999995235,410.25979999995235,411.1625999999643,572,411.1625999999643,1,411.16279999995237,1,12,42,22,1,1.2,0.3,Time
,,384894,001,男,19,2025-06-04_10h26.20.680,Serial_Dependence_U,2023.2.3,Win32,60.60606060606061,,,,,,411.1630999999643,73,1,411.1630999999643,73,,,,415.34850000000006,415.8402999999524,414.83929999995235,415.3483999999762,412.1636999999881,414.83929999995235,415.8402999999524,416.33229999995234,416.33229999995234,417.925,1270,417.92519999998814,2,417.92550000000006,1,13,43,14,1,1.6,0.3,Time
,,384894,001,男,19,2025-06-04_10h26.20.680,Serial_Dependence_U,2023.2.3,Win32,60.60606060606061,,,,,,417.9255999999643,178,1,417.9256999999881,178,,,,421.8806999999881,422.372,421.37479999995236,421.88059999996426,418.92650000000003,421.37469999998814,422.372,422.8645,422.8645,424.1780999999643,949,424.1780999999643,1,424.17850000000004,1,14,44,28,1,1.4,0.7,Time
,,384894,001,男,19,2025-06-04_10h26.20.680,Serial_Dependence_U,2023.2.3,Win32,60.60606060606061,,,,,,424.17879999995233,338,1,424.17879999995233,338,,,,427.55939999997616,428.0516999999881,427.0533999999762,427.5592999999524,425.17900000000003,427.05329999995234,428.0516999999881,428.54329999995235,428.5433999999762,429.88919999998814,1049,429.88919999998814,5,429.88979999995234,1,15,45,10,1,0.8,0.3,Time
,,384894,001,男,19,2025-06-04_10h26.20.680,Serial_Dependence_U,2023.2.3,Win32,60.60606060606061,,,,,,429.8901999999881,228,1,429.89029999995233,228,,,,434.04159999996426,434.53329999995236,433.5333999999762,434.0413999999762,430.89059999996425,433.53329999995236,434.53329999995236,435.02619999998814,435.02619999998814,436.4535,1172,436.4535999999643,2,436.45379999995237,1,16,46,29,1,1.6,0.7,Time
,,384894,001,男,19,2025-06-04_10h26.20.680,Serial_Dependence_U,2023.2.3,Win32,60.60606060606061,,,,,,436.4540999999643,192,1,436.4540999999643,192,,,,440.4093999999762,440.90129999995236,439.9008999999762,440.40929999995234,437.45529999995233,439.90079999995237,440.90129999995236,441.3936999999881,441.39379999995236,442.88800000000003,1211,442.88809999996425,2,442.8883999999762,1,17,47,18,1,1.4,0.7,Time
,,384894,001,男,19,2025-06-04_10h26.20.680,Serial_Dependence_U,2023.2.3,Win32,60.60606060606061,,,,,,442.8886999999881,269,1,442.8888999999762,269,,,,446.43300000000005,446.9248999999762,445.92350000000005,446.4328999999762,443.8886999999881,445.9233999999762,446.9248999999762,447.4168999999762,447.41700000000003,448.648,965,448.64809999996424,3,448.64829999995237,1,18,48,16,1,1,0.7,Time
,,384894,001,男,19,2025-06-04_10h26.20.680,Serial_Dependence_U,2023.2.3,Win32,60.60606060606061,,,,,,448.6485999999643,116,1,448.6485999999643,116,,,,452.6196999999881,453.1118999999762,452.1116999999881,452.6195999999643,449.65000000000003,452.11159999996426,453.1118999999762,453.605,453.605,454.75389999997617,837,454.754,1,454.7541999999881,1,19,49,3,1,1.4,0.3,Time
,,384894,001,男,19,2025-06-04_10h26.20.680,Serial_Dependence_U,2023.2.3,Win32,60.60606060606061,,,,,,454.75469999998813,351,1,454.7548999999762,351,,,,458.52829999995237,459.02009999996426,458.01959999996427,458.5280999999643,455.7545,458.01950000000005,459.0201999999881,459.51259999996427,459.5126999999881,460.94100000000003,882,460.94109999996425,2,460.9412999999524,1,20,50,2,1,1.2,0.3,Time
,,384894,001,男,19,2025-06-04_10h26.20.680,Serial_Dependence_U,2023.2.3,Win32,60.60606060606061,,,,,,460.9415999999643,168,1,460.9416999999881,168,,,,464.4856999999881,464.9776999999881,463.97779999995237,464.4855,461.9415999999643,463.97779999995237,464.97779999995237,465.47,465.4700999999643,466.81859999996425,1031,466.8186999999881,3,466.8187999999524,1,21,51,26,1,1,0.7,Time
,,384894,001,男,19,2025-06-04_10h26.20.680,Serial_Dependence_U,2023.2.3,Win32,60.60606060606061,,,,,,466.81909999996424,108,1,466.81909999996424,108,,,,470.97179999995234,471.4603999999761,470.46339999997616,470.97169999998806,467.8208999999761,470.46339999997616,471.4603999999761,471.95269999998806,471.95269999998806,473.7912999999523,1393,473.7912999999523,2,473.7916999999881,1,22,52,19,1,1.6,0.7,Time
,,384894,001,男,19,2025-06-04_10h26.20.680,Serial_Dependence_U,2023.2.3,Win32,60.60606060606061,,,,,,473.792,94,1,473.79209999996425,94,,,,477.7631999999881,478.2555999999642,477.2605999999642,477.763,474.7926999999881,477.2604999999999,478.2555999999642,478.7477999999523,478.74789999997614,480.35599999999994,1243,480.35599999999994,2,480.35629999995234,1,23,53,13,1,1.4,0.3,Time
,,384894,001,男,19,2025-06-04_10h26.20.680,Serial_Dependence_U,2023.2.3,Win32,60.60606060606061,,,,,,480.3565999999642,145,1,480.35669999998805,145,,,,483.93489999997615,484.42609999996426,483.4255,483.93489999997615,481.3575,483.42539999997615,484.42609999996426,484.9189999999999,484.91919999998805,485.85389999997614,618,485.85389999997614,1,485.8542999999523,1,24,54,1,1,1,0.3,Time
,,384894,001,男,19,2025-06-04_10h26.20.680,Serial_Dependence_U,2023.2.3,Win32,60.60606060606061,,,,,,485.85459999996425,154,1,485.8546999999881,154,,,,489.62899999999996,490.1210999999642,489.1203999999761,489.6288999999761,486.8553999999761,489.1203999999761,490.1210999999642,490.61339999997614,490.61339999997614,492.33679999995235,1168,492.33679999995235,3,492.33719999998806,1,25,55,12,1,1.2,0.3,Time
,,384894,001,男,19,2025-06-04_10h26.20.680,Serial_Dependence_U,2023.2.3,Win32,60.60606060606061,,,,,,492.3373999999762,347,1,492.33750000000003,347,,,,495.9147999999523,496.4067999999523,495.4071999999881,495.91469999998804,493.33819999998803,495.40709999996426,496.40689999997613,496.89949999999993,496.8995999999642,497.98309999996417,548,497.983199999988,1,497.9835,1,26,56,21,1,1,0.3,Time
,,384894,001,男,19,2025-06-04_10h26.20.680,Serial_Dependence_U,2023.2.3,Win32,60.60606060606061,,,,,,497.9837999999523,81,1,497.98389999997613,81,,,,502.16849999999994,502.6598999999762,501.6590999999642,502.1683999999761,498.98389999997613,501.6588999999761,502.6598999999762,503.1525,503.1525,505.1053999999761,1378,505.10549999999995,2,505.1056999999881,1,27,57,24,1,1.6,0.3,Time
,,384894,001,男,19,2025-06-04_10h26.20.680,Serial_Dependence_U,2023.2.3,Win32,60.60606060606061,,,,,,505.10599999999994,21,1,505.10619999998806,21,,,,508.45729999995234,508.9458999999761,507.945,508.4570999999642,506.1077999999523,507.945,508.9458999999761,509.43819999998806,509.43829999995233,510.4561999999881,710,510.4561999999881,2,510.45649999999995,1,28,58,5,1,0.8,0.7,Time
,,384894,001,男,19,2025-06-04_10h26.20.680,Serial_Dependence_U,2023.2.3,Win32,60.60606060606061,,,,,,510.4566999999881,200,1,510.4568999999761,200,,,,514.607699999988,515.100699999988,514.1042999999522,514.607699999988,511.45719999998806,514.104199999988,515.1007999999522,515.5922999999523,515.5922999999523,517.0364999999999,1144,517.0365999999642,2,517.036699999988,1,29,59,9,1,1.6,0.7,Time
,,384894,001,男,19,2025-06-04_10h26.20.680,Serial_Dependence_U,2023.2.3,Win32,60.60606060606061,,,,,,517.0368999999761,354,2,542.6727999999522,354,s,25.60280000001194,,546.0534999999999,546.5460999999642,545.545,546.053399999976,543.6745999999641,545.5447999999523,546.546199999988,547.0384999999999,547.0385999999642,547.8292999999522,496,547.8292999999522,1,547.8294999999999,2,0,60,20,1,0.8,0.3,Time
,,384894,001,男,19,2025-06-04_10h26.20.680,Serial_Dependence_U,2023.2.3,Win32,60.60606060606061,,,,,,547.829699999988,29,2,547.8305999999642,29,,,,551.766699999988,552.2567999999522,551.2592999999522,551.7665999999641,548.827399999976,551.2592999999522,552.2568999999761,552.7500999999642,552.7500999999642,554.2797999999523,1130,554.2797999999523,2,554.280199999988,2,1,61,18,1,1.4,0.7,Time
,,384894,001,男,19,2025-06-04_10h26.20.680,Serial_Dependence_U,2023.2.3,Win32,60.60606060606061,,,,,,554.2803999999761,196,2,554.2805999999641,196,,,,558.4445999999641,558.936699999988,557.9358999999761,558.4443999999761,555.2968999999761,557.9357999999522,558.936699999988,559.4295999999641,559.4295999999641,561.223199999988,1327,561.2232999999522,2,561.2233999999761,2,2,62,29,1,1.6,0.7,Time
,,384894,001,男,19,2025-06-04_10h26.20.680,Serial_Dependence_U,2023.2.3,Win32,60.60606060606061,,,,,,561.2235999999641,328,2,561.223699999988,328,,,,564.602699999988,565.091199999988,564.0939999999999,564.6025999999641,562.2192999999522,564.0939999999999,565.091199999988,565.583699999988,565.583699999988,566.4075999999642,470,566.407699999988,1,566.407899999976,2,3,63,10,1,0.8,0.3,Time
,,384894,001,男,19,2025-06-04_10h26.20.680,Serial_Dependence_U,2023.2.3,Win32,60.60606060606061,,,,,,566.4080999999642,159,2,566.408199999988,159,,,,570.18,570.671199999988,569.6739999999999,570.1798999999761,567.406199999988,569.6738999999761,570.671199999988,571.1635999999642,571.1635999999642,572.5755999999642,1003,572.5755999999642,2,572.5759999999999,2,4,64,12,1,1.2,0.3,Time
,,384894,001,男,19,2025-06-04_10h26.20.680,Serial_Dependence_U,2023.2.3,Win32,60.60606060606061,,,,,,572.5760999999642,161,2,572.5762999999522,161,,,,576.7305999999642,577.2200999999642,576.224699999988,576.7305999999642,573.577199999988,576.224699999988,577.2200999999642,577.7122999999523,577.7122999999523,579.7017999999522,1432,579.701899999976,2,579.7019999999999,2,5,65,9,1,1.6,0.7,Time
,,384894,001,男,19,2025-06-04_10h26.20.680,Serial_Dependence_U,2023.2.3,Win32,60.60606060606061,,,,,,579.702199999988,174,2,579.7022999999523,174,,,,583.047199999988,583.5393999999761,582.5373999999761,583.0469999999999,580.6993999999761,582.5372999999522,583.5393999999761,584.0305,584.0305,584.9988999999761,634,584.9988999999761,2,584.999199999988,2,6,66,15,1,0.8,0.7,Time
,,384894,001,男,19,2025-06-04_10h26.20.680,Serial_Dependence_U,2023.2.3,Win32,60.60606060606061,,,,,,584.999399999976,185,2,584.9994999999999,185,,,,588.9547999999522,589.4465999999642,588.4457999999522,588.954699999988,586.0008999999761,588.4457999999522,589.446699999988,589.939699999988,589.939699999988,591.187399999976,997,591.1877999999523,2,591.1879999999999,2,7,67,8,1,1.4,0.7,Time
,,384894,001,男,19,2025-06-04_10h26.20.680,Serial_Dependence_U,2023.2.3,Win32,60.60606060606061,,,,,,591.1883999999761,291,2,591.1883999999761,291,,,,594.5677999999523,595.0597999999522,594.0595999999641,594.567699999988,592.1877999999523,594.0595,595.0598999999761,595.5519999999999,595.5519999999999,596.8489999999999,720,596.8490999999642,2,596.8493999999761,2,8,68,0,1,0.8,0.3,Time
,,384894,001,男,19,2025-06-04_10h26.20.680,Serial_Dependence_U,2023.2.3,Win32,60.60606060606061,,,,,,596.8495999999642,306,2,596.8498999999761,306,,,,601.034199999988,601.5267999999522,600.5255999999641,601.0340999999642,597.850399999976,600.5255999999641,601.5267999999522,602.0182999999522,602.0182999999522,603.6929999999999,987,603.6930999999641,1,603.6932999999523,2,9,69,4,1,1.6,0.3,Time
,,384894,001,男,19,2025-06-04_10h26.20.680,Serial_Dependence_U,2023.2.3,Win32,60.60606060606061,,,,,,603.6935999999641,316,2,603.693699999988,316,,,,607.0412999999522,607.532699999988,606.533199999988,607.041199999988,604.693699999988,606.5330999999642,607.532699999988,608.0252999999523,608.0253999999761,609.4857999999523,1024,609.485899999976,4,609.4860999999642,2,10,70,25,1,0.8,0.7,Time
,,384894,001,男,19,2025-06-04_10h26.20.680,Serial_Dependence_U,2023.2.3,Win32,60.60606060606061,,,,,,609.4863999999761,218,2,609.4863999999761,218,,,,613.4577999999523,613.9497999999522,612.9498999999761,613.457699999988,610.4818999999761,612.9498999999761,613.9497999999522,614.4420999999642,614.442199999988,615.8045999999641,957,615.804699999988,1,615.805,2,11,71,3,1,1.4,0.3,Time
,,384894,001,男,19,2025-06-04_10h26.20.680,Serial_Dependence_U,2023.2.3,Win32,60.60606060606061,,,,,,615.805199999988,288,2,615.8053999999761,288,,,,619.3498999999761,619.8419999999999,618.8410999999642,619.3497999999522,616.806699999988,618.840899999976,619.8419999999999,620.3340999999641,620.3340999999641,621.8937999999522,1160,621.8939999999999,4,621.8942999999522,2,12,72,16,1,1,0.7,Time
,,384894,001,男,19,2025-06-04_10h26.20.680,Serial_Dependence_U,2023.2.3,Win32,60.60606060606061,,,,,,621.8945999999642,350,2,621.894699999988,350,,,,625.4742999999522,625.9662999999522,624.9657999999522,625.4742999999522,622.898199999988,624.965699999988,625.9662999999522,626.4594999999999,626.4594999999999,627.8217999999522,1001,627.821899999976,3,627.8220999999642,2,13,73,11,1,1,0.3,Time
,,384894,001,男,19,2025-06-04_10h26.20.680,Serial_Dependence_U,2023.2.3,Win32,60.60606060606061,,,,,,627.822199999988,272,2,627.8222999999523,272,,,,631.5632999999523,632.055,631.0542999999523,631.563199999988,628.822699999988,631.0542999999523,632.055,632.5472999999522,632.5472999999522,634.0418999999761,1016,634.0418999999761,2,634.0420999999642,2,14,74,17,1,1.2,0.7,Time
,,384894,001,男,19,2025-06-04_10h26.20.680,Serial_Dependence_U,2023.2.3,Win32,60.60606060606061,,,,,,634.0422999999522,224,2,634.042399999976,224,,,,638.1909999999999,638.682699999988,637.685,638.1909999999999,635.0425999999642,637.6848999999761,638.682699999988,639.1752999999522,639.1752999999522,641.408199999988,1544,641.4082999999522,3,641.4084999999999,2,15,75,19,1,1.6,0.7,Time
,,384894,001,男,19,2025-06-04_10h26.20.680,Serial_Dependence_U,2023.2.3,Win32,60.60606060606061,,,,,,641.408699999988,28,2,641.4087999999523,28,,,,645.3797999999522,645.8709999999999,644.8739999999999,645.379699999988,642.408699999988,644.8738999999761,645.8710999999641,646.3633999999761,646.3633999999761,648.0893999999761,1098,648.0893999999761,2,648.0895999999642,2,16,76,23,1,1.4,0.3,Time
,,384894,001,男,19,2025-06-04_10h26.20.680,Serial_Dependence_U,2023.2.3,Win32,60.60606060606061,,,,,,648.0897999999522,183,2,648.0898999999761,183,,,,651.8299999999999,652.322399999976,651.3233999999761,651.8298999999761,649.0893999999761,651.3232999999523,652.322399999976,652.8137999999523,652.8137999999523,654.0320999999642,919,654.0320999999642,2,654.0322999999522,2,17,77,7,1,1.2,0.7,Time
,,384894,001,男,19,2025-06-04_10h26.20.680,Serial_Dependence_U,2023.2.3,Win32,60.60606060606061,,,,,,654.0324999999999,46,2,654.0325999999642,46,,,,657.6060999999642,658.098,657.100899999976,657.6059999999999,655.0332999999522,657.1007999999522,658.098,658.5905999999642,658.590699999988,659.608199999988,620,659.608199999988,1,659.6083999999761,2,18,78,1,1,1,0.3,Time
,,384894,001,男,19,2025-06-04_10h26.20.680,Serial_Dependence_U,2023.2.3,Win32,60.60606060606061,,,,,,659.6085999999642,333,2,659.608699999988,333,,,,663.3499999999999,663.8422999999523,662.841699999988,663.3499999999999,660.6094999999999,662.8415999999642,663.8422999999523,664.3347999999522,664.3348999999761,665.9764999999999,1280,665.9765999999642,4,665.9767999999523,2,19,79,27,1,1.2,0.7,Time
,,384894,001,男,19,2025-06-04_10h26.20.680,Serial_Dependence_U,2023.2.3,Win32,60.60606060606061,,,,,,665.9770999999641,4,2,665.977199999988,4,,,,669.3243999999761,669.816899999976,668.8164999999999,669.324199999988,666.971699999988,668.8162999999522,669.8169999999999,670.3087999999523,670.309,671.3960999999641,635,671.396199999988,2,671.3962999999522,2,20,80,5,1,0.8,0.7,Time
,,384894,001,男,19,2025-06-04_10h26.20.680,Serial_Dependence_U,2023.2.3,Win32,60.60606060606061,,,,,,671.3965999999641,153,2,671.3965999999641,153,,,,675.1853999999761,675.6758999999761,674.675,675.1852999999522,672.4102999999523,674.675,675.6759999999999,676.167699999988,676.167699999988,677.5627999999523,1033,677.5627999999523,2,677.5629999999999,2,21,81,2,1,1.2,0.3,Time
,,384894,001,男,19,2025-06-04_10h26.20.680,Serial_Dependence_U,2023.2.3,Win32,60.60606060606061,,,,,,677.563199999988,264,2,677.5632999999523,264,,,,681.1083999999761,681.5999999999999,680.603199999988,681.108199999988,678.5675999999642,680.6030999999641,681.5999999999999,682.092699999988,682.092699999988,684.098699999988,1115,684.098699999988,4,684.0988999999761,2,22,82,26,1,1,0.7,Time
,,384894,001,男,19,2025-06-04_10h26.20.680,Serial_Dependence_U,2023.2.3,Win32,60.60606060606061,,,,,,684.0990999999642,283,2,684.0990999999642,283,,,,687.6734999999999,688.1648999999761,687.1648999999761,687.673399999976,685.0960999999642,687.1647999999523,688.165,688.662199999988,688.662199999988,690.2168999999761,661,690.2168999999761,1,690.2170999999641,2,23,83,21,1,1,0.3,Time
,,384894,001,男,19,2025-06-04_10h26.20.680,Serial_Dependence_U,2023.2.3,Win32,60.60606060606061,,,,,,690.2173999999761,274,2,690.2173999999761,274,,,,694.1888999999761,694.6805999999641,693.682899999976,694.1887999999523,691.218,693.6827999999522,694.680699999988,695.172899999976,695.172899999976,696.5350999999641,962,696.5350999999641,1,696.5353999999761,2,24,84,13,1,1.4,0.3,Time
,,384894,001,男,19,2025-06-04_10h26.20.680,Serial_Dependence_U,2023.2.3,Win32,60.60606060606061,,,,,,696.535699999988,233,2,696.5358999999761,233,,,,700.4740999999642,700.966199999988,699.9685999999641,700.4739999999999,697.5370999999642,699.9685999999641,700.9662999999522,701.4587999999522,701.4587999999522,703.4487999999523,1415,703.4487999999523,3,703.449,2,25,85,28,1,1.4,0.7,Time
,,384894,001,男,19,2025-06-04_10h26.20.680,Serial_Dependence_U,2023.2.3,Win32,60.60606060606061,,,,,,703.4490999999641,112,2,703.449199999988,112,,,,707.630699999988,708.122,707.1242999999522,707.6305999999641,704.4483999999761,707.124199999988,708.122,708.6142999999522,708.6143999999761,710.682899999976,1420,710.6829999999999,2,710.683199999988,2,26,86,14,1,1.6,0.3,Time
,,384894,001,男,19,2025-06-04_10h26.20.680,Serial_Dependence_U,2023.2.3,Win32,60.60606060606061,,,,,,710.6833999999761,289,2,710.6834999999999,289,,,,714.8673999999761,715.359899999976,714.3595999999642,714.8672999999523,711.6838999999761,714.3593999999761,715.359899999976,715.8518999999761,715.8518999999761,717.3127999999523,1120,717.312899999976,1,717.3130999999642,2,27,87,24,1,1.6,0.3,Time
,,384894,001,男,19,2025-06-04_10h26.20.680,Serial_Dependence_U,2023.2.3,Win32,60.60606060606061,,,,,,717.313199999988,55,2,717.313199999988,55,,,,721.088199999988,721.5802999999522,720.579699999988,721.0880999999641,718.3149999999999,720.5795999999641,721.5802999999522,722.0722999999523,722.0722999999523,723.5005999999642,1075,723.500699999988,2,723.501,2,28,88,22,1,1.2,0.3,Time
,,384894,001,男,19,2025-06-04_10h26.20.680,Serial_Dependence_U,2023.2.3,Win32,60.60606060606061,,,,,,723.5010999999641,309,2,723.501199999988,309,,,,727.0455,727.5373999999761,726.5364999999999,727.0453999999761,724.5017999999523,726.5363999999761,727.5373999999761,728.03,728.03,729.261,930,729.261,2,729.2612999999523,2,29,89,6,1,1,0.7,Time
,,384894,001,男,19,2025-06-04_10h26.20.680,Serial_Dependence_U,2023.2.3,Win32,60.60606060606061,,,,,,729.2615999999641,350,3,765.8107999999522,350,s,36.52940000003582,0.0016999999880908945,769.5525999999642,770.0453999999761,769.0439999999999,769.5525999999642,766.811899999976,769.0438999999761,770.0453999999761,770.5368999999761,770.5368999999761,772.1955999999642,1207,772.1955999999642,3,772.1958999999761,3,0,90,7,1,1.2,0.7,Time
,,384894,001,男,19,2025-06-04_10h26.20.680,Serial_Dependence_U,2023.2.3,Win32,60.60606060606061,,,,,,772.1960999999642,164,3,772.1967999999522,164,,,,775.5758999999761,776.068199999988,775.066899999976,775.575699999988,773.196199999988,775.066899999976,776.0682999999523,776.5603999999761,776.5603999999761,777.7257999999522,618,777.725899999976,2,777.726199999988,3,1,91,0,1,0.8,0.3,Time
,,384894,001,男,19,2025-06-04_10h26.20.680,Serial_Dependence_U,2023.2.3,Win32,60.60606060606061,,,,,,777.726399999976,11,3,777.7265999999642,11,,,,781.3042999999523,781.7957999999522,780.7955999999641,781.304199999988,778.727199999988,780.7955,781.7957999999522,782.2882999999522,782.288399999976,783.2572999999522,453,783.2572999999522,1,783.2577999999522,3,2,92,11,1,1,0.3,Time
,,384894,001,男,19,2025-06-04_10h26.20.680,Serial_Dependence_U,2023.2.3,Win32,60.60606060606061,,,,,,783.2580999999642,258,3,783.2580999999642,258,,,,787.2130999999641,787.704,786.7035999999641,787.213,784.258199999988,786.7035,787.7040999999641,788.196399999976,788.196399999976,789.9855999999642,1074,789.985699999988,2,789.9859999999999,3,3,93,28,1,1.4,0.7,Time
,,384894,001,男,19,2025-06-04_10h26.20.680,Serial_Dependence_U,2023.2.3,Win32,60.60606060606061,,,,,,789.9862999999523,292,3,789.9863999999761,292,,,,793.531,794.023399999976,793.0222999999522,793.5307999999523,790.9868999999761,793.022199999988,794.0234999999999,794.515199999988,794.5152999999523,795.762699999988,902,795.7627999999522,2,795.7630999999642,3,4,94,26,1,1,0.7,Time
,,384894,001,男,19,2025-06-04_10h26.20.680,Serial_Dependence_U,2023.2.3,Win32,60.60606060606061,,,,,,795.7634999999999,337,3,795.7635999999642,337,,,,799.7180999999641,800.2099999999999,799.2095999999642,799.718,796.7640999999642,799.2094999999999,800.2099999999999,800.7025999999641,800.7025999999641,802.442199999988,1352,802.442199999988,3,802.442399999976,3,5,95,8,1,1.4,0.7,Time
,,384894,001,男,19,2025-06-04_10h26.20.680,Serial_Dependence_U,2023.2.3,Win32,60.60606060606061,,,,,,802.4425999999642,95,3,802.442699999988,95,,,,806.1847999999522,806.676699999988,805.676699999988,806.184699999988,803.4437999999523,805.6765999999642,806.676699999988,807.1688999999761,807.1688999999761,809.0894999999999,1453,809.0895999999642,4,809.0898999999761,3,6,96,27,1,1.2,0.7,Time
,,384894,001,男,19,2025-06-04_10h26.20.680,Serial_Dependence_U,2023.2.3,Win32,60.60606060606061,,,,,,809.090199999988,322,3,809.0902999999522,322,,,,812.667899999976,813.1589999999999,812.1585999999642,812.667699999988,810.090699999988,812.1584999999999,813.1589999999999,813.6514999999999,813.6515999999641,814.867699999988,770,814.8677999999522,2,814.8679999999999,3,7,97,1,1,1,0.3,Time
,,384894,001,男,19,2025-06-04_10h26.20.680,Serial_Dependence_U,2023.2.3,Win32,60.60606060606061,,,,,,814.868199999988,102,3,814.868199999988,102,,,,818.6407999999523,819.1329999999999,818.1322999999522,818.6407999999523,815.868199999988,818.132199999988,819.1330999999642,819.6254999999999,819.6254999999999,821.1523999999761,909,821.1523999999761,2,821.1525999999642,3,8,98,22,1,1.2,0.3,Time
,,384894,001,男,19,2025-06-04_10h26.20.680,Serial_Dependence_U,2023.2.3,Win32,60.60606060606061,,,,,,821.1528999999761,346,3,821.1529999999999,346,,,,824.5004999999999,824.9922999999523,823.992199999988,824.500399999976,822.1530999999642,823.992,824.9922999999523,825.4849999999999,825.4849999999999,826.4700999999642,713,826.4700999999642,2,826.470199999988,3,9,99,15,1,0.8,0.7,Time
,,384894,001,男,19,2025-06-04_10h26.20.680,Serial_Dependence_U,2023.2.3,Win32,60.60606060606061,,,,,,826.4704999999999,50,3,826.4705999999642,50,,,,830.2447999999522,830.7362999999523,829.7390999999642,830.2447999999522,827.4712999999523,829.7389999999999,830.7362999999523,831.2284999999999,831.2284999999999,832.201199999988,644,832.201199999988,1,832.201399999976,3,10,100,2,1,1.2,0.3,Time
,,384894,001,男,19,2025-06-04_10h26.20.680,Serial_Dependence_U,2023.2.3,Win32,60.60606060606061,,,,,,832.201699999988,345,3,832.201899999976,345,,,,836.369399999976,836.8577999999522,835.857199999988,836.3692999999522,833.215199999988,835.8570999999641,836.8577999999522,837.350899999976,837.3509999999999,838.9430999999641,1204,838.9430999999641,2,838.9432999999523,3,11,101,29,1,1.6,0.7,Time
,,384894,001,男,19,2025-06-04_10h26.20.680,Serial_Dependence_U,2023.2.3,Win32,60.60606060606061,,,,,,838.9435,159,3,838.943699999988,159,,,,842.2908999999761,842.7830999999642,841.7858999999761,842.2908999999761,839.9440999999641,841.7858999999761,842.7830999999642,843.275,843.275,844.3132999999523,733,844.3133999999761,2,844.3135,3,12,102,5,1,0.8,0.7,Time
,,384894,001,男,19,2025-06-04_10h26.20.680,Serial_Dependence_U,2023.2.3,Win32,60.60606060606061,,,,,,844.313699999988,153,3,844.313699999988,153,,,,847.8873999999761,848.3799999999999,847.378699999988,847.8872999999522,845.311199999988,847.3785999999642,848.3799999999999,848.8715999999641,848.8715999999641,849.758899999976,550,849.7589999999999,1,849.7590999999642,3,13,103,21,1,1,0.3,Time
,,384894,001,男,19,2025-06-04_10h26.20.680,Serial_Dependence_U,2023.2.3,Win32,60.60606060606061,,,,,,849.7592999999522,149,3,849.759399999976,149,,,,853.7300999999642,854.2219999999999,853.2214999999999,853.7299999999999,850.7600999999642,853.221399999976,854.2219999999999,854.7143999999761,854.7143999999761,856.0438999999761,980,856.0438999999761,1,856.0439999999999,3,14,104,23,1,1.4,0.3,Time
,,384894,001,男,19,2025-06-04_10h26.20.680,Serial_Dependence_U,2023.2.3,Win32,60.60606060606061,,,,,,856.044199999988,39,3,856.0442999999523,39,,,,860.1962999999522,860.6882999999523,859.687699999988,860.196199999988,857.0455999999641,859.6875999999642,860.6882999999523,861.1807999999522,861.1807999999522,862.6417999999522,1168,862.6418999999761,2,862.6422999999522,3,15,105,19,1,1.6,0.7,Time
,,384894,001,男,19,2025-06-04_10h26.20.680,Serial_Dependence_U,2023.2.3,Win32,60.60606060606061,,,,,,862.6425999999642,125,3,862.6425999999642,125,,,,866.7969999999999,867.2858999999761,866.2884999999999,866.7968999999761,863.6428999999761,866.2884999999999,867.2858999999761,867.778899999976,867.778899999976,869.420199999988,1051,869.4202999999522,1,869.4205,3,16,106,9,1,1.6,0.7,Time
,,384894,001,男,19,2025-06-04_10h26.20.680,Serial_Dependence_U,2023.2.3,Win32,60.60606060606061,,,,,,869.420699999988,189,3,869.4207999999522,189,,,,872.9680999999641,873.4614999999999,872.4594999999999,872.9680999999641,870.4209999999999,872.4594999999999,873.4614999999999,873.9492999999522,873.9492999999522,875.377199999988,1068,875.3772999999522,4,875.3775999999641,3,17,107,6,1,1,0.7,Time
,,384894,001,男,19,2025-06-04_10h26.20.680,Serial_Dependence_U,2023.2.3,Win32,60.60606060606061,,,,,,875.3778999999761,157,3,875.3779999999999,157,,,,878.726399999976,879.2175,878.2168999999761,878.7262999999523,876.378699999988,878.2167999999523,879.2175,879.7098999999761,879.7098999999761,880.928399999976,929,880.9284999999999,4,880.9285999999641,3,18,108,25,1,0.8,0.7,Time
,,384894,001,男,19,2025-06-04_10h26.20.680,Serial_Dependence_U,2023.2.3,Win32,60.60606060606061,,,,,,880.9287999999523,162,3,880.9288999999761,162,,,,884.3054999999999,884.798199999988,883.797899999976,884.3053999999761,881.9259999999999,883.7977999999522,884.798199999988,885.2914999999999,885.2914999999999,886.213699999988,601,886.2137999999522,2,886.2138999999761,3,19,109,10,1,0.8,0.3,Time
,,384894,001,男,19,2025-06-04_10h26.20.680,Serial_Dependence_U,2023.2.3,Win32,60.60606060606061,,,,,,886.2140999999641,308,3,886.2140999999641,308,,,,890.201399999976,890.689699999988,889.6893999999761,890.2012999999522,887.2278999999761,889.689199999988,890.689699999988,891.1819999999999,891.1820999999642,892.0850999999642,523,892.085199999988,1,892.0854999999999,3,20,110,13,1,1.4,0.3,Time
,,384894,001,男,19,2025-06-04_10h26.20.680,Serial_Dependence_U,2023.2.3,Win32,60.60606060606061,,,,,,892.0857999999522,190,3,892.085899999976,190,,,,896.027199999988,896.5180999999642,895.5184999999999,896.027199999988,893.0865999999642,895.518399999976,896.5180999999642,897.0089999999999,897.0089999999999,898.3215999999642,890,898.3215999999642,1,898.3217999999522,3,21,111,18,1,1.4,0.7,Time
,,384894,001,男,19,2025-06-04_10h26.20.680,Serial_Dependence_U,2023.2.3,Win32,60.60606060606061,,,,,,898.322199999988,98,3,898.3222999999523,98,,,,901.705699999988,902.2005999999642,901.1937999999523,901.7055999999642,899.3245999999641,901.193699999988,902.2005999999642,902.6893999999761,902.6895,903.6425999999642,575,903.6425999999642,2,903.642699999988,3,22,112,20,1,0.8,0.3,Time
,,384894,001,男,19,2025-06-04_10h26.20.680,Serial_Dependence_U,2023.2.3,Win32,60.60606060606061,,,,,,903.6428999999761,281,3,903.6429999999999,281,,,,907.8275999999641,908.3187999999523,907.3193999999761,907.8275999999641,904.643399999976,907.3193999999761,908.3187999999523,908.811199999988,908.811199999988,910.1089999999999,886,910.1089999999999,1,910.109199999988,3,23,113,4,1,1.6,0.3,Time
,,384894,001,男,19,2025-06-04_10h26.20.680,Serial_Dependence_U,2023.2.3,Win32,60.60606060606061,,,,,,910.1093999999761,255,3,910.1094999999999,255,,,,913.6500999999641,914.1423999999761,913.1413999999761,913.65,911.1087999999522,913.1412999999523,914.1423999999761,914.6349999999999,914.6350999999642,915.984699999988,936,915.9847999999522,2,915.984899999976,3,24,114,16,1,1,0.7,Time
,,384894,001,男,19,2025-06-04_10h26.20.680,Serial_Dependence_U,2023.2.3,Win32,60.60606060606061,,,,,,915.9850999999642,220,3,915.985199999988,220,,,,919.9735,920.4775,919.4602999999522,919.9733999999761,916.9984999999999,919.460199999988,920.4775,920.9705999999642,920.9705999999642,922.2900999999641,988,922.290199999988,2,922.2903999999761,3,25,115,3,1,1.4,0.3,Time
,,384894,001,男,19,2025-06-04_10h26.20.680,Serial_Dependence_U,2023.2.3,Win32,60.60606060606061,,,,,,922.2905999999641,51,3,922.2905999999641,51,,,,926.4843999999761,926.976699999988,925.976399999976,926.4842999999522,923.304,925.976399999976,926.976699999988,927.4690999999642,927.4690999999642,928.7165999999642,858,928.716699999988,1,928.7170999999641,3,26,116,24,1,1.6,0.3,Time
,,384894,001,男,19,2025-06-04_10h26.20.680,Serial_Dependence_U,2023.2.3,Win32,60.60606060606061,,,,,,928.7172999999523,189,3,928.7173999999761,189,,,,932.491199999988,932.9833999999761,931.9830999999641,932.4910999999641,929.7178999999761,931.9830999999641,932.9833999999761,933.4764999999999,933.4764999999999,934.821899999976,838,934.8219999999999,1,934.822199999988,3,27,117,12,1,1.2,0.3,Time
,,384894,001,男,19,2025-06-04_10h26.20.680,Serial_Dependence_U,2023.2.3,Win32,60.60606060606061,,,,,,934.822699999988,23,3,934.8228999999761,23,,,,938.564,939.0564999999999,938.0554999999999,938.5638999999761,935.8235999999641,938.0553999999761,939.0565999999642,939.548399999976,939.5484999999999,941.074699999988,1132,941.074699999988,2,941.0748999999761,3,28,118,17,1,1.2,0.7,Time
,,384894,001,男,19,2025-06-04_10h26.20.680,Serial_Dependence_U,2023.2.3,Win32,60.60606060606061,,,,,,941.0750999999642,133,3,941.075199999988,133,,,,945.2603999999761,945.752199999988,944.752199999988,945.2602999999523,942.076199999988,944.7520999999641,945.752199999988,946.244699999988,946.244699999988,947.9189999999999,1133,947.919199999988,2,947.9195,3,29,119,14,1,1.6,0.3,Time
,,384894,001,男,19,2025-06-04_10h26.20.680,Serial_Dependence_U,2023.2.3,Win32,60.60606060606061,,,,,,947.9197999999523,294,4,982.499,294,s,34.559300000011945,,986.077,986.5687999999523,985.568,986.0768999999761,983.5002999999524,985.5678999999761,986.5687999999523,987.0620000000001,987.0620000000001,987.9313999999763,591,987.9313999999763,1,987.931699999988,4,0,120,1,1,1,0.3,Time
,,384894,001,男,19,2025-06-04_10h26.20.680,Serial_Dependence_U,2023.2.3,Win32,60.60606060606061,,,,,,987.932,347,4,987.9328999999761,347,,,,991.3126999999881,991.8041999999882,990.8038999999762,991.3126999999881,988.9325999999642,990.8036999999881,991.8041999999882,992.2968999999762,992.2968999999762,993.3805,662,993.3805999999643,2,993.3810999999644,4,1,121,20,1,0.8,0.3,Time
,,384894,001,男,19,2025-06-04_10h26.20.680,Serial_Dependence_U,2023.2.3,Win32,60.60606060606061,,,,,,993.3813999999761,235,4,993.3815,235,,,,997.5323999999762,998.0243999999761,997.0238999999763,997.5322999999523,994.3811999999882,997.0237999999524,998.0243999999761,998.5172999999525,998.5172999999525,1000.2733999999762,1374,1000.2735,2,1000.2737999999524,4,2,122,9,1,1.6,0.7,Time
,,384894,001,男,19,2025-06-04_10h26.20.680,Serial_Dependence_U,2023.2.3,Win32,60.60606060606061,,,,,,1000.2740999999642,273,4,1000.274199999988,273,,,,1004.2287999999523,1004.7203999999763,1003.7200999999643,1004.2286999999881,1001.2743999999761,1003.72,1004.7203999999763,1005.2125999999644,1005.2126999999882,1007.0219999999999,1490,1007.0220999999642,4,1007.0220999999642,4,3,123,18,1,1.4,0.7,Time
,,384894,001,男,19,2025-06-04_10h26.20.680,Serial_Dependence_U,2023.2.3,Win32,60.60606060606061,,,,,,1007.0221999999881,221,4,1007.0222999999523,221,,,,1011.1706999999881,1011.662699999988,1010.6621999999882,1011.1705999999642,1008.019699999988,1010.6621999999882,1011.662699999988,1012.1551999999881,1012.1551999999881,1014.0260999999643,1553,1014.0260999999643,3,1014.0262999999522,4,4,124,19,1,1.6,0.7,Time
,,384894,001,男,19,2025-06-04_10h26.20.680,Serial_Dependence_U,2023.2.3,Win32,60.60606060606061,,,,,,1014.0265999999642,179,4,1014.0266999999881,179,,,,1017.9984999999999,1018.4907999999523,1017.49,1017.9982999999525,1015.0283999999763,1017.49,1018.4907999999523,1018.983,1018.9830999999642,1020.8045999999642,1469,1020.8046999999881,3,1020.8048999999762,4,5,125,13,1,1.4,0.3,Time
,,384894,001,男,19,2025-06-04_10h26.20.680,Serial_Dependence_U,2023.2.3,Win32,60.60606060606061,,,,,,1020.8050999999643,165,4,1020.8051999999882,165,,,,1024.3495999999643,1024.8421999999882,1023.8412999999523,1024.3495,1021.8058999999762,1023.841199999988,1024.8422999999523,1025.3342999999525,1025.3342999999525,1026.8605999999643,1054,1026.8606999999881,4,1026.8608999999763,4,6,126,26,1,1,0.7,Time
,,384894,001,男,19,2025-06-04_10h26.20.680,Serial_Dependence_U,2023.2.3,Win32,60.60606060606061,,,,,,1026.8610999999644,268,4,1026.8612999999523,268,,,,1030.602699999988,1031.0951999999882,1030.0938999999762,1030.6025999999642,1027.861699999988,1030.0938999999762,1031.0951999999882,1031.5876999999882,1031.5877999999523,1033.5236999999881,1219,1033.5237999999524,3,1033.5240000000001,4,7,127,27,1,1.2,0.7,Time
,,384894,001,男,19,2025-06-04_10h26.20.680,Serial_Dependence_U,2023.2.3,Win32,60.60606060606061,,,,,,1033.5242999999523,227,4,1033.5243999999761,227,,,,1037.4965,1037.9877999999524,1036.9871999999882,1037.4963999999761,1034.5250999999644,1036.9868999999762,1037.9878999999762,1038.4801999999881,1038.4801999999881,1039.9080000000001,1081,1039.9080999999642,2,1039.9082999999523,4,8,128,23,1,1.4,0.3,Time
,,384894,001,男,19,2025-06-04_10h26.20.680,Serial_Dependence_U,2023.2.3,Win32,60.60606060606061,,,,,,1039.9085999999643,96,4,1039.9087999999524,96,,,,1043.8475999999644,1044.339199999988,1043.3402999999523,1043.8475,1040.909199999988,1043.3402999999523,1044.3392999999523,1044.8313999999762,1044.8313999999762,1046.6532999999524,1418,1046.6532999999524,3,1046.6535000000001,4,9,129,8,1,1.4,0.7,Time
,,384894,001,男,19,2025-06-04_10h26.20.680,Serial_Dependence_U,2023.2.3,Win32,60.60606060606061,,,,,,1046.6538999999761,26,4,1046.6538999999761,26,,,,1050.6251999999881,1051.1177999999522,1050.116199999988,1050.6250999999643,1047.6553999999762,1050.1160999999643,1051.1177999999522,1051.6097999999524,1051.6097999999524,1052.7092999999525,771,1052.709399999976,1,1052.7095999999642,4,10,130,3,1,1.4,0.3,Time
,,384894,001,男,19,2025-06-04_10h26.20.680,Serial_Dependence_U,2023.2.3,Win32,60.60606060606061,,,,,,1052.7098999999762,2,4,1052.71,2,,,,1056.255,1056.7465,1055.746,1056.2548999999763,1053.710699999988,1055.7458999999762,1056.7465,1057.2387999999523,1057.2388999999762,1059.0445999999642,1194,1059.0445999999642,4,1059.0445999999642,4,11,131,16,1,1,0.7,Time
,,384894,001,男,19,2025-06-04_10h26.20.680,Serial_Dependence_U,2023.2.3,Win32,60.60606060606061,,,,,,1059.0448999999762,246,4,1059.0448999999762,246,,,,1063.2295999999642,1063.722,1062.7208999999762,1063.2295000000001,1060.046,1062.7207999999523,1063.7220999999643,1064.2142999999523,1064.2142999999523,1065.6420999999643,1160,1065.6420999999643,2,1065.6425,4,12,132,14,1,1.6,0.3,Time
,,384894,001,男,19,2025-06-04_10h26.20.680,Serial_Dependence_U,2023.2.3,Win32,60.60606060606061,,,,,,1065.6427999999523,278,4,1065.6428999999762,278,,,,1068.9940000000001,1069.483199999988,1068.4815999999644,1068.9940000000001,1066.6431999999882,1068.4815,1069.483199999988,1069.9750000000001,1069.9750999999642,1070.9632999999524,655,1070.9633999999762,2,1070.9635999999643,4,13,133,15,1,0.8,0.7,Time
,,384894,001,男,19,2025-06-04_10h26.20.680,Serial_Dependence_U,2023.2.3,Win32,60.60606060606061,,,,,,1070.9636999999882,18,4,1070.9637999999522,18,,,,1074.5046999999881,1074.9970999999643,1073.9960999999644,1074.5046999999881,1071.9617999999523,1073.9960999999644,1074.9971999999882,1075.4895999999642,1075.4895999999642,1077.3112999999523,1055,1077.3113999999762,4,1077.3116999999882,4,14,134,6,1,1,0.7,Time
,,384894,001,男,19,2025-06-04_10h26.20.680,Serial_Dependence_U,2023.2.3,Win32,60.60606060606061,,,,,,1077.3120999999642,359,4,1077.3120999999642,359,,,,1080.8888999999763,1081.3810999999644,1080.3807999999524,1080.8887999999524,1078.3123999999762,1080.380699999988,1081.3810999999644,1081.8733999999763,1081.8735,1083.3835000000001,962,1083.3835000000001,3,1083.383699999988,4,15,135,21,1,1,0.3,Time
,,384894,001,男,19,2025-06-04_10h26.20.680,Serial_Dependence_U,2023.2.3,Win32,60.60606060606061,,,,,,1083.3838999999762,161,4,1083.3838999999762,161,,,,1086.7646999999881,1087.2565,1086.2560999999644,1086.7646999999881,1084.3848999999761,1086.256,1087.2565999999642,1087.7491999999882,1087.7491999999882,1088.8986999999881,804,1088.8986999999881,3,1088.899199999988,4,16,136,0,1,0.8,0.3,Time
,,384894,001,男,19,2025-06-04_10h26.20.680,Serial_Dependence_U,2023.2.3,Win32,60.60606060606061,,,,,,1088.8995,183,4,1088.8995999999643,183,,,,1092.2462999999523,1092.738,1091.738699999988,1092.2462999999523,1089.8997999999524,1091.738699999988,1092.7380999999643,1093.2305000000001,1093.2305000000001,1094.297699999988,524,1094.297699999988,1,1094.298,4,17,137,25,1,0.8,0.7,Time
,,384894,001,男,19,2025-06-04_10h26.20.680,Serial_Dependence_U,2023.2.3,Win32,60.60606060606061,,,,,,1094.2982999999524,103,4,1094.2982999999524,103,,,,1097.6456999999882,1098.1377999999524,1097.1372999999523,1097.6456999999882,1095.2990999999643,1097.137199999988,1098.1377999999524,1098.6303999999761,1098.6305,1099.6320999999643,702,1099.6321999999882,2,1099.632399999976,4,18,138,5,1,0.8,0.7,Time
,,384894,001,男,19,2025-06-04_10h26.20.680,Serial_Dependence_U,2023.2.3,Win32,60.60606060606061,,,,,,1099.6325,177,4,1099.632699999988,177,,,,1103.2130999999642,1103.7018999999761,1102.704199999988,1103.2130999999642,1100.6325999999642,1102.7040999999642,1103.702,1104.1937999999523,1104.1937999999523,1105.4287999999524,843,1105.4287999999524,2,1105.429,4,19,139,11,1,1,0.3,Time
,,384894,001,男,19,2025-06-04_10h26.20.680,Serial_Dependence_U,2023.2.3,Win32,60.60606060606061,,,,,,1105.4291999999882,263,4,1105.4292999999523,263,,,,1109.383699999988,1109.8722999999522,1108.8717999999524,1109.383699999988,1106.4260999999642,1108.871699999988,1109.8722999999522,1110.3645999999642,1110.3645999999642,1112.174199999988,1295,1112.1742999999524,2,1112.1743999999762,4,20,140,28,1,1.4,0.7,Time
,,384894,001,男,19,2025-06-04_10h26.20.680,Serial_Dependence_U,2023.2.3,Win32,60.60606060606061,,,,,,1112.1745999999644,115,4,1112.1746999999882,115,,,,1116.360199999988,1116.8476999999882,1115.8500999999642,1116.360199999988,1113.1885,1115.8500999999642,1116.8476999999882,1117.3398999999763,1117.3398999999763,1118.8543999999763,1108,1118.8543999999763,1,1118.8545000000001,4,21,141,4,1,1.6,0.3,Time
,,384894,001,男,19,2025-06-04_10h26.20.680,Serial_Dependence_U,2023.2.3,Win32,60.60606060606061,,,,,,1118.854699999988,74,4,1118.8547999999523,74,,,,1122.2475999999642,1122.7400999999643,1121.739,1122.2475,1119.8675,1121.7388999999762,1122.7400999999643,1123.232,1123.232,1124.1683999999761,603,1124.1685,2,1124.169,4,22,142,10,1,0.8,0.3,Time
,,384894,001,男,19,2025-06-04_10h26.20.680,Serial_Dependence_U,2023.2.3,Win32,60.60606060606061,,,,,,1124.1693999999761,261,4,1124.1695,261,,,,1128.3531999999882,1128.844699999988,1127.8450999999643,1128.3530999999643,1125.1690999999644,1127.8448999999762,1128.8447999999523,1129.3371999999881,1129.3373999999762,1131.192,1127,1131.192,2,1131.1921999999881,4,23,143,24,1,1.6,0.3,Time
,,384894,001,男,19,2025-06-04_10h26.20.680,Serial_Dependence_U,2023.2.3,Win32,60.60606060606061,,,,,,1131.1925999999642,154,4,1131.192699999988,154,,,,1134.9671999999882,1135.4590999999643,1134.4580999999644,1134.967,1132.1932999999524,1134.458,1135.4590999999643,1135.9515999999642,1135.9515999999642,1140.8462999999524,789,1140.8463999999763,1,1140.8465,4,24,144,2,1,1.2,0.3,Time
,,384894,001,男,19,2025-06-04_10h26.20.680,Serial_Dependence_U,2023.2.3,Win32,60.60606060606061,,,,,,1140.8467999999523,204,4,1140.8468999999761,204,,,,1144.601199999988,1145.093,1144.0918999999762,1144.601,1141.847,1144.0918999999762,1145.093,1145.5851999999882,1145.5851999999882,1147.7027999999523,1346,1147.7027999999523,4,1147.703199999988,4,25,145,7,1,1.2,0.7,Time
,,384894,001,男,19,2025-06-04_10h26.20.680,Serial_Dependence_U,2023.2.3,Win32,60.60606060606061,,,,,,1147.7035,139,4,1147.7035,139,,,,1151.4780999999643,1151.9695,1150.9692999999525,1151.4780999999643,1148.7035999999644,1150.9690999999643,1151.9695,1152.4621999999881,1152.4621999999881,1153.971699999988,1196,1153.971699999988,3,1153.9718999999761,4,26,146,22,1,1.2,0.3,Time
,,384894,001,男,19,2025-06-04_10h26.20.680,Serial_Dependence_U,2023.2.3,Win32,60.60606060606061,,,,,,1153.972199999988,248,4,1153.9722999999524,248,,,,1157.714199999988,1158.2223999999762,1157.2053999999762,1157.714199999988,1154.9735,1157.2052999999523,1158.2223999999762,1158.7147999999524,1158.7148999999763,1160.241199999988,1199,1160.2412999999524,3,1160.2415,4,27,147,17,1,1.2,0.7,Time
,,384894,001,男,19,2025-06-04_10h26.20.680,Serial_Dependence_U,2023.2.3,Win32,60.60606060606061,,,,,,1160.2417999999523,313,4,1160.2417999999523,313,,,,1164.3937999999523,1164.8856999999882,1163.8850999999643,1164.393699999988,1161.2430999999642,1163.885,1164.8856999999882,1165.378199999988,1165.378199999988,1167.1833999999762,1320,1167.1835,2,1167.1836999999882,4,28,148,29,1,1.6,0.7,Time
,,384894,001,男,19,2025-06-04_10h26.20.680,Serial_Dependence_U,2023.2.3,Win32,60.60606060606061,,,,,,1167.184,160,4,1167.184,160,,,,1170.9585,1171.450699999988,1170.4500999999643,1170.9585,1168.184899999976,1170.45,1171.450699999988,1171.9428999999761,1171.943,1173.5515,1229,1173.5515,3,1173.5517999999524,4,29,149,12,1,1.2,0.3,Time
,,384894,001,男,19,2025-06-04_10h26.20.680,Serial_Dependence_U,2023.2.3,Win32,60.60606060606061,,,,,,1173.5520999999642,273,5,1302.582699999988,273,s,129.0107999999525,,1306.5381999999881,1307.0306999999882,1306.0295,1306.5380999999643,1303.5837999999524,1306.0293999999762,1307.0307999999523,1307.5225,1307.5225999999643,1309.3171999999881,1386,1309.3171999999881,3,1309.3172999999524,5,0,150,18,1,1.4,0.7,Time
,,384894,001,男,19,2025-06-04_10h26.20.680,Serial_Dependence_U,2023.2.3,Win32,60.60606060606061,,,,,,1309.3175999999642,10,5,1309.3182999999524,10,,,,1313.5140000000001,1314.0053999999761,1313.0055,1313.5138999999763,1310.3295999999643,1313.0053999999761,1314.0055,1314.497699999988,1314.4977999999523,1316.2047999999525,1023,1316.2047999999525,1,1316.2050999999642,5,1,151,14,1,1.6,0.3,Time
,,384894,001,男,19,2025-06-04_10h26.20.680,Serial_Dependence_U,2023.2.3,Win32,60.60606060606061,,,,,,1316.2052999999523,65,5,1316.2053999999762,65,,,,1320.1770000000001,1320.6691999999882,1319.6683999999761,1320.1768999999763,1317.2063999999762,1319.6682999999523,1320.6691999999882,1321.161699999988,1321.1617999999523,1322.6715,1071,1322.6715,2,1322.672,5,2,152,23,1,1.4,0.3,Time
,,384894,001,男,19,2025-06-04_10h26.20.680,Serial_Dependence_U,2023.2.3,Win32,60.60606060606061,,,,,,1322.6723999999763,76,5,1322.6725000000001,76,,,,1326.2426999999882,1326.741199999988,1325.7405999999642,1326.2425999999643,1323.672699999988,1325.7405,1326.7412999999524,1327.2335999999643,1327.2335999999643,1328.7278999999762,1132,1328.7278999999762,4,1328.7281999999882,5,3,153,21,1,1,0.3,Time
,,384894,001,男,19,2025-06-04_10h26.20.680,Serial_Dependence_U,2023.2.3,Win32,60.60606060606061,,,,,,1328.7285999999642,348,5,1328.728699999988,348,,,,1332.2733999999762,1332.7648999999763,1331.7637999999524,1332.2732999999523,1329.7288999999762,1331.7636999999881,1332.765,1333.2568999999762,1333.257,1334.5696999999882,999,1334.5697999999522,3,1334.57,5,4,154,26,1,1,0.7,Time
,,384894,001,男,19,2025-06-04_10h26.20.680,Serial_Dependence_U,2023.2.3,Win32,60.60606060606061,,,,,,1334.5702999999523,170,5,1334.5705,170,,,,1338.525699999988,1339.0177999999523,1338.017,1338.5255999999642,1335.5710999999642,1338.0168999999762,1339.0177999999523,1339.5097999999523,1339.5097999999523,1341.2172999999523,1190,1341.2172999999523,2,1341.217699999988,5,5,155,28,1,1.4,0.7,Time
,,384894,001,男,19,2025-06-04_10h26.20.680,Serial_Dependence_U,2023.2.3,Win32,60.60606060606061,,,,,,1341.2180999999644,102,5,1341.2181999999882,102,,,,1344.598,1345.0903999999762,1344.0892999999523,1344.598,1342.2181999999882,1344.089199999988,1345.0903999999762,1345.5828999999762,1345.5828999999762,1346.6822999999524,1056,1346.6823999999763,5,1346.6825999999642,5,6,156,20,1,0.8,0.3,Time
,,384894,001,男,19,2025-06-04_10h26.20.680,Serial_Dependence_U,2023.2.3,Win32,60.60606060606061,,,,,,1346.6828999999761,199,5,1346.683,199,,,,1350.063199999988,1350.555699999988,1349.5545999999642,1350.0630999999644,1347.6836999999882,1349.5545,1350.5557999999523,1351.0475999999642,1351.0475999999642,1352.4263999999762,940,1352.4265,4,1352.4268999999763,5,7,157,10,1,0.8,0.3,Time
,,384894,001,男,19,2025-06-04_10h26.20.680,Serial_Dependence_U,2023.2.3,Win32,60.60606060606061,,,,,,1352.4272999999523,75,5,1352.4273999999762,75,,,,1356.3988999999763,1356.890699999988,1355.8895999999643,1356.3988999999763,1353.4277999999524,1355.8895,1356.8907999999524,1357.3825,1357.3825999999642,1358.679399999976,922,1358.6795,1,1358.6797999999524,5,8,158,13,1,1.4,0.3,Time
,,384894,001,男,19,2025-06-04_10h26.20.680,Serial_Dependence_U,2023.2.3,Win32,60.60606060606061,,,,,,1358.6800999999643,159,5,1358.6801999999882,159,,,,1362.0271999999882,1362.5193999999763,1361.5190999999643,1362.0270999999643,1359.680699999988,1361.519,1362.5193999999763,1363.012,1363.012,1364.5050999999642,978,1364.5050999999642,4,1364.5052999999523,5,9,159,15,1,0.8,0.7,Time
,,384894,001,男,19,2025-06-04_10h26.20.680,Serial_Dependence_U,2023.2.3,Win32,60.60606060606061,,,,,,1364.5055,285,5,1364.5055999999643,285,,,,1368.690399999976,1369.182699999988,1368.181699999988,1368.690399999976,1365.5072999999522,1368.181699999988,1369.182699999988,1369.6760999999642,1369.6760999999642,1371.628,1124,1371.628,2,1371.6282999999523,5,10,160,4,1,1.6,0.3,Time
,,384894,001,男,19,2025-06-04_10h26.20.680,Serial_Dependence_U,2023.2.3,Win32,60.60606060606061,,,,,,1371.6285,313,5,1371.6285999999643,313,,,,1375.7805,1376.2727999999524,1375.2747999999524,1375.7803999999762,1372.6293999999762,1375.2746999999881,1376.2727999999524,1376.7647999999524,1376.7647999999524,1378.6858999999763,1551,1378.6858999999763,3,1378.6862999999523,5,11,161,29,1,1.6,0.7,Time
,,384894,001,男,19,2025-06-04_10h26.20.680,Serial_Dependence_U,2023.2.3,Win32,60.60606060606061,,,,,,1378.6865999999643,73,5,1378.6866999999882,73,,,,1382.8705,1383.3625,1382.362699999988,1382.8703999999761,1379.6867999999524,1382.3625999999642,1383.3625999999642,1383.8552999999524,1383.8555000000001,1385.7103999999763,1492,1385.7105000000001,2,1385.711,5,12,162,24,1,1.6,0.3,Time
,,384894,001,男,19,2025-06-04_10h26.20.680,Serial_Dependence_U,2023.2.3,Win32,60.60606060606061,,,,,,1385.7111999999881,139,5,1385.7112999999524,139,,,,1389.0910999999642,1389.582699999988,1388.5828999999762,1389.0910000000001,1386.7121999999881,1388.582699999988,1389.582699999988,1390.0751999999882,1390.0752999999524,1391.159,782,1391.159,3,1391.1592999999523,5,13,163,0,1,0.8,0.3,Time
,,384894,001,男,19,2025-06-04_10h26.20.680,Serial_Dependence_U,2023.2.3,Win32,60.60606060606061,,,,,,1391.1595,0,5,1391.159699999988,0,,,,1394.9340999999642,1395.4256999999882,1394.4252999999524,1394.9340999999642,1392.1602999999523,1394.425199999988,1395.4256999999882,1395.9180999999642,1395.9180999999642,1397.2640000000001,851,1397.2640999999642,2,1397.2642999999523,5,14,164,2,1,1.2,0.3,Time
,,384894,001,男,19,2025-06-04_10h26.20.680,Serial_Dependence_U,2023.2.3,Win32,60.60606060606061,,,,,,1397.2645999999643,189,5,1397.2646999999881,189,,,,1400.8422999999523,1401.3342999999525,1400.3331999999882,1400.8422999999523,1398.2657999999524,1400.3330999999644,1401.3342999999525,1401.8263999999763,1401.8265999999642,1402.9752999999523,679,1402.9753999999762,1,1402.9756999999881,5,15,165,11,1,1,0.3,Time
,,384894,001,男,19,2025-06-04_10h26.20.680,Serial_Dependence_U,2023.2.3,Win32,60.60606060606061,,,,,,1402.976,45,5,1402.9760999999642,45,,,,1407.127899999976,1407.6200000000001,1406.6188999999763,1407.1277999999525,1403.9765,1406.6187999999524,1407.6200000000001,1408.1121999999882,1408.1121999999882,1409.4745,1105,1409.4746999999882,1,1409.4750000000001,5,16,166,9,1,1.6,0.7,Time
,,384894,001,男,19,2025-06-04_10h26.20.680,Serial_Dependence_U,2023.2.3,Win32,60.60606060606061,,,,,,1409.4752999999523,359,5,1409.4755,359,,,,1413.0522999999523,1413.544699999988,1412.5437999999524,1413.0522999999523,1410.4758999999763,1412.5435999999643,1413.544699999988,1414.0368999999762,1414.037,1415.8588999999763,1191,1415.8588999999763,4,1415.859199999988,5,17,167,1,1,1,0.3,Time
,,384894,001,男,19,2025-06-04_10h26.20.680,Serial_Dependence_U,2023.2.3,Win32,60.60606060606061,,,,,,1415.8595999999643,49,5,1415.8596999999882,49,,,,1420.0115999999643,1420.5030999999642,1419.5057999999524,1420.0115,1416.8602999999523,1419.505699999988,1420.5030999999642,1420.9955,1420.9955999999643,1422.9692999999525,1215,1422.9693999999763,2,1422.9695,5,18,168,19,1,1.6,0.7,Time
,,384894,001,男,19,2025-06-04_10h26.20.680,Serial_Dependence_U,2023.2.3,Win32,60.60606060606061,,,,,,1422.969699999988,39,5,1422.9698999999762,39,,,,1426.9533999999762,1427.4455999999643,1426.444899999976,1426.9532999999524,1423.9836999999882,1426.4447999999522,1427.4455999999643,1427.9375999999643,1427.9376999999881,1429.5468999999762,1084,1429.5470999999643,2,1429.5472999999524,5,19,169,3,1,1.4,0.3,Time
,,384894,001,男,19,2025-06-04_10h26.20.680,Serial_Dependence_U,2023.2.3,Win32,60.60606060606061,,,,,,1429.5475000000001,232,5,1429.547699999988,232,,,,1433.501899999976,1433.9943999999762,1432.9933999999762,1433.5017999999523,1430.547699999988,1432.993199999988,1433.9945,1434.486199999988,1434.4862999999523,1436.227699999988,1384,1436.227699999988,3,1436.228,5,20,170,8,1,1.4,0.7,Time
,,384894,001,男,19,2025-06-04_10h26.20.680,Serial_Dependence_U,2023.2.3,Win32,60.60606060606061,,,,,,1436.2282999999522,30,5,1436.228399999976,30,,,,1439.5745999999642,1440.0662999999524,1439.0657999999523,1439.5745999999642,1437.2273999999761,1439.065699999988,1440.0662999999524,1440.5587999999523,1440.5587999999523,1441.8063999999763,738,1441.8065000000001,2,1441.8067999999523,5,21,171,5,1,0.8,0.7,Time
,,384894,001,男,19,2025-06-04_10h26.20.680,Serial_Dependence_U,2023.2.3,Win32,60.60606060606061,,,,,,1441.8070999999643,336,5,1441.8071999999881,336,,,,1445.5812999999523,1446.0727999999524,1445.0723999999761,1445.581199999988,1442.8075000000001,1445.072199999988,1446.0727999999524,1446.5657999999523,1446.5657999999523,1448.1620999999643,1210,1448.1620999999643,3,1448.1622999999524,5,22,172,12,1,1.2,0.3,Time
,,384894,001,男,19,2025-06-04_10h26.20.680,Serial_Dependence_U,2023.2.3,Win32,60.60606060606061,,,,,,1448.1625000000001,92,5,1448.1625999999642,92,,,,1451.9030999999643,1452.392,1451.394,1451.9030999999643,1449.159199999988,1451.394,1452.392,1452.8838999999762,1452.884,1454.381399999976,1161,1454.381399999976,3,1454.3815999999642,5,23,173,7,1,1.2,0.7,Time
,,384894,001,男,19,2025-06-04_10h26.20.680,Serial_Dependence_U,2023.2.3,Win32,60.60606060606061,,,,,,1454.3817999999524,245,5,1454.3818999999762,245,,,,1458.1197999999524,1458.612,1457.6145000000001,1458.1196999999881,1455.3790999999642,1457.6145000000001,1458.612,1459.1042999999524,1459.1042999999524,1460.5857999999523,1182,1460.5857999999523,3,1460.5858999999762,5,24,174,27,1,1.2,0.7,Time
,,384894,001,男,19,2025-06-04_10h26.20.680,Serial_Dependence_U,2023.2.3,Win32,60.60606060606061,,,,,,1460.5860999999643,114,5,1460.5861999999881,114,,,,1464.3733999999763,1464.864699999988,1463.866,1464.3732999999525,1461.6025,1463.866,1464.8647999999523,1465.3573999999762,1465.3573999999762,1466.6097999999524,680,1466.6097999999524,1,1466.6100000000001,5,25,175,22,1,1.2,0.3,Time
,,384894,001,男,19,2025-06-04_10h26.20.680,Serial_Dependence_U,2023.2.3,Win32,60.60606060606061,,,,,,1466.610199999988,196,5,1466.6102999999523,196,,,,1469.9698999999762,1470.4615999999642,1469.4605999999642,1469.9697999999523,1467.622699999988,1469.4605999999642,1470.4615999999642,1470.9540999999642,1470.954199999988,1472.1688999999762,816,1472.169,3,1472.1692999999523,5,26,176,25,1,0.8,0.7,Time
,,384894,001,男,19,2025-06-04_10h26.20.680,Serial_Dependence_U,2023.2.3,Win32,60.60606060606061,,,,,,1472.1695999999642,163,5,1472.169699999988,163,,,,1475.7135999999643,1476.2058999999763,1475.2050999999642,1475.7135999999643,1473.1698999999762,1475.205,1476.2058999999763,1476.6980999999644,1476.6980999999644,1477.9785,839,1477.9785999999642,2,1477.9788999999762,5,27,177,16,1,1,0.7,Time
,,384894,001,男,19,2025-06-04_10h26.20.680,Serial_Dependence_U,2023.2.3,Win32,60.60606060606061,,,,,,1477.9791999999882,285,5,1477.9793999999763,285,,,,1481.5236999999881,1482.0152999999523,1481.0180999999643,1481.5235999999643,1478.9803999999763,1481.018,1482.0152999999523,1482.5083999999763,1482.5083999999763,1484.0053999999761,968,1484.0053999999761,3,1484.0055999999643,5,28,178,6,1,1,0.7,Time
,,384894,001,男,19,2025-06-04_10h26.20.680,Serial_Dependence_U,2023.2.3,Win32,60.60606060606061,,,,,,1484.005699999988,37,5,1484.0057999999524,37,,,,1487.7436999999882,1488.2356999999881,1487.2382999999525,1487.7435999999643,1485.0025,1487.2380999999643,1488.2356999999881,1488.7280999999643,1488.7281999999882,1490.3085999999644,1084,1490.3085999999644,2,1490.3087999999523,5,29,179,17,1,1.2,0.7,Time
,,384894,001,男,19,2025-06-04_10h26.20.680,Serial_Dependence_U,2023.2.3,Win32,60.60606060606061,,,,,,1490.309,6,6,1586.248699999988,6,s,95.91450000000009,0.002300000011928205,1589.6393999999761,1590.1380000000001,1589.1215,1589.6392999999523,1587.2535999999643,1589.1215,1590.1380999999642,1590.631,1590.631,1591.6153999999763,591,1591.6153999999763,2,1591.615699999988,6,0,180,0,1,0.8,0.3,Time
,,384894,001,男,19,2025-06-04_10h26.20.680,Serial_Dependence_U,2023.2.3,Win32,60.60606060606061,,,,,,1591.6158999999761,194,6,1591.6172999999524,194,,,,1595.801199999988,1596.2922999999523,1595.2916999999882,1595.8010999999642,1592.620199999988,1595.2916999999882,1596.2922999999523,1596.7848999999762,1596.7848999999762,1598.3441999999882,1059,1598.3442999999525,1,1598.3445,6,1,181,24,1,1.6,0.3,Time
,,384894,001,男,19,2025-06-04_10h26.20.680,Serial_Dependence_U,2023.2.3,Win32,60.60606060606061,,,,,,1598.344699999988,120,6,1598.344699999988,120,,,,1602.316,1602.8078999999761,1601.8081999999881,1602.3157999999523,1599.3453999999763,1601.8080999999643,1602.808,1603.3005999999643,1603.3005999999643,1604.3517999999524,583,1604.3517999999524,1,1604.3520999999644,6,2,182,3,1,1.4,0.3,Time
,,384894,001,男,19,2025-06-04_10h26.20.680,Serial_Dependence_U,2023.2.3,Win32,60.60606060606061,,,,,,1604.3523999999761,2,6,1604.3525,2,,,,1607.9295,1608.4212999999525,1607.4205,1607.9295,1605.3528999999762,1607.420399999976,1608.4212999999525,1608.913699999988,1608.913699999988,1610.2435,559,1610.2435999999643,1,1610.2440000000001,6,3,183,1,1,1,0.3,Time
,,384894,001,男,19,2025-06-04_10h26.20.680,Serial_Dependence_U,2023.2.3,Win32,60.60606060606061,,,,,,1610.244199999988,218,6,1610.2442999999523,218,,,,1614.2148999999763,1614.707,1613.7062999999523,1614.2147999999524,1611.244199999988,1613.706199999988,1614.7070999999644,1615.199399999976,1615.1995,1616.7922999999523,880,1616.7923999999762,1,1616.7926999999881,6,4,184,23,1,1.4,0.3,Time
,,384894,001,男,19,2025-06-04_10h26.20.680,Serial_Dependence_U,2023.2.3,Win32,60.60606060606061,,,,,,1616.7930000000001,295,6,1616.793199999988,295,,,,1620.5667999999523,1621.0588999999761,1620.058,1620.566699999988,1617.7928999999763,1620.0578999999761,1621.0588999999761,1621.5507999999525,1621.550899999976,1622.8965,908,1622.8965999999643,2,1622.8967999999525,6,5,185,12,1,1.2,0.3,Time
,,384894,001,男,19,2025-06-04_10h26.20.680,Serial_Dependence_U,2023.2.3,Win32,60.60606060606061,,,,,,1622.8970999999642,184,6,1622.8970999999642,184,,,,1626.4745999999643,1626.9670999999644,1625.9658999999763,1626.4745,1623.8976999999882,1625.9657999999524,1626.9670999999644,1627.4590999999643,1627.4590999999643,1628.9035000000001,1169,1628.9035000000001,4,1628.903699999988,6,6,186,11,1,1,0.3,Time
,,384894,001,男,19,2025-06-04_10h26.20.680,Serial_Dependence_U,2023.2.3,Win32,60.60606060606061,,,,,,1628.9038999999761,201,6,1628.904,201,,,,1633.0560999999643,1633.5487999999523,1632.5478999999762,1633.056,1629.9048999999761,1632.5477999999523,1633.5487999999523,1634.0402999999524,1634.0403999999762,1635.7470999999643,1169,1635.7471999999882,2,1635.7475,6,7,187,29,1,1.6,0.7,Time
,,384894,001,男,19,2025-06-04_10h26.20.680,Serial_Dependence_U,2023.2.3,Win32,60.60606060606061,,,,,,1635.7477999999523,313,6,1635.7477999999523,313,,,,1639.1283999999762,1639.6207999999524,1638.6205,1639.128199999988,1636.7485999999642,1638.6203999999761,1639.6207999999524,1640.113399999976,1640.113399999976,1640.9336999999882,532,1640.9336999999882,1,1640.934,6,8,188,10,1,0.8,0.3,Time
,,384894,001,男,19,2025-06-04_10h26.20.680,Serial_Dependence_U,2023.2.3,Win32,60.60606060606061,,,,,,1640.9342999999524,295,6,1640.9343999999762,295,,,,1644.6755,1645.1690999999644,1644.1678999999763,1644.6753999999762,1641.9347999999522,1644.1676999999881,1645.1690999999644,1645.6605,1645.6605,1647.1582999999523,1061,1647.1583999999762,2,1647.1585,6,9,189,7,1,1.2,0.7,Time
,,384894,001,男,19,2025-06-04_10h26.20.680,Serial_Dependence_U,2023.2.3,Win32,60.60606060606061,,,,,,1647.1586999999881,24,6,1647.1587999999524,24,,,,1650.5516999999882,1651.043199999988,1650.0427999999524,1650.5515999999643,1648.1746999999882,1650.0426999999881,1651.0432999999523,1651.5357999999524,1651.5357999999524,1652.5245999999643,715,1652.5245999999643,2,1652.5246999999881,6,10,190,20,1,0.8,0.3,Time
,,384894,001,男,19,2025-06-04_10h26.20.680,Serial_Dependence_U,2023.2.3,Win32,60.60606060606061,,,,,,1652.525,95,6,1652.525,95,,,,1656.0657999999523,1656.558,1655.5568999999762,1656.065699999988,1653.5217999999525,1655.5567999999523,1656.5580999999643,1657.049899999976,1657.05,1658.4331999999881,853,1658.4331999999881,2,1658.4333999999762,6,11,191,16,1,1,0.7,Time
,,384894,001,男,19,2025-06-04_10h26.20.680,Serial_Dependence_U,2023.2.3,Win32,60.60606060606061,,,,,,1658.4335999999644,59,6,1658.4335999999644,59,,,,1661.7935,1662.285699999988,1661.2847999999524,1661.7933999999761,1659.447199999988,1661.284699999988,1662.2857999999524,1662.777699999988,1662.7777999999523,1664.1733999999763,898,1664.1735,4,1664.1737999999523,6,12,192,5,1,0.8,0.7,Time
,,384894,001,男,19,2025-06-04_10h26.20.680,Serial_Dependence_U,2023.2.3,Win32,60.60606060606061,,,,,,1664.1740999999643,44,6,1664.1742999999524,44,,,,1667.5212999999524,1668.0130999999642,1667.0123999999762,1667.5210999999642,1665.1740999999643,1667.0123999999762,1668.0130999999642,1668.5053999999761,1668.5053999999761,1669.7861999999882,977,1669.7861999999882,4,1669.786399999976,6,13,193,25,1,0.8,0.7,Time
,,384894,001,男,19,2025-06-04_10h26.20.680,Serial_Dependence_U,2023.2.3,Win32,60.60606060606061,,,,,,1669.7865999999642,148,6,1669.786699999988,148,,,,1673.3315,1673.823,1672.8226999999881,1673.3312999999523,1670.787699999988,1672.8225999999643,1673.823,1674.315399999976,1674.315399999976,1675.7762999999522,1180,1675.776399999976,4,1675.776699999988,6,14,194,6,1,1,0.7,Time
,,384894,001,男,19,2025-06-04_10h26.20.680,Serial_Dependence_U,2023.2.3,Win32,60.60606060606061,,,,,,1675.777,171,6,1675.7770999999643,171,,,,1679.7316999999882,1680.2236999999882,1679.2233999999762,1679.7315999999644,1676.7778999999762,1679.2232999999524,1680.2236999999882,1680.716199999988,1680.716199999988,1682.160399999976,1140,1682.160399999976,2,1682.1605999999642,6,15,195,8,1,1.4,0.7,Time
,,384894,001,男,19,2025-06-04_10h26.20.680,Serial_Dependence_U,2023.2.3,Win32,60.60606060606061,,,,,,1682.1608999999762,283,6,1682.161,283,,,,1686.313199999988,1686.8048999999762,1685.8040999999644,1686.313199999988,1683.1618999999762,1685.8040999999644,1686.8048999999762,1687.2975999999642,1687.2975999999642,1689.4805000000001,1435,1689.4805000000001,2,1689.480699999988,6,16,196,9,1,1.6,0.7,Time
,,384894,001,男,19,2025-06-04_10h26.20.680,Serial_Dependence_U,2023.2.3,Win32,60.60606060606061,,,,,,1689.4810999999643,158,6,1689.4812999999524,158,,,,1693.2225,1693.7147999999524,1692.7146999999882,1693.2225,1690.4817999999523,1692.7145999999643,1693.7147999999524,1694.207699999988,1694.2077999999524,1695.8152999999525,1302,1695.815399999976,4,1695.8155,6,17,197,27,1,1.2,0.7,Time
,,384894,001,男,19,2025-06-04_10h26.20.680,Serial_Dependence_U,2023.2.3,Win32,60.60606060606061,,,,,,1695.8157999999523,44,6,1695.816,44,,,,1699.7870999999643,1700.2792999999524,1699.2791999999881,1699.787,1696.816699999988,1699.2791999999881,1700.2793999999762,1700.7715,1700.7715999999643,1701.954,870,1701.9540999999642,1,1701.9543999999762,6,18,198,13,1,1.4,0.3,Time
,,384894,001,男,19,2025-06-04_10h26.20.680,Serial_Dependence_U,2023.2.3,Win32,60.60606060606061,,,,,,1701.9547999999525,137,6,1701.955,137,,,,1705.729,1706.2205000000001,1705.2205999999642,1705.7288999999762,1702.9546999999882,1705.2205999999642,1706.2205000000001,1706.713,1706.7130999999642,1708.1453999999762,703,1708.1455,1,1708.1456999999882,6,19,199,22,1,1.2,0.3,Time
,,384894,001,男,19,2025-06-04_10h26.20.680,Serial_Dependence_U,2023.2.3,Win32,60.60606060606061,,,,,,1708.145899999976,271,6,1708.146,271,,,,1711.5085999999642,1711.9978999999762,1710.9971999999882,1711.5085000000001,1709.1585,1710.9970999999643,1711.998,1712.4895999999642,1712.4895999999642,1713.855699999988,919,1713.8557999999523,4,1713.8558999999761,6,20,200,15,1,0.8,0.7,Time
,,384894,001,男,19,2025-06-04_10h26.20.680,Serial_Dependence_U,2023.2.3,Win32,60.60606060606061,,,,,,1713.8561999999881,283,6,1713.8562999999524,283,,,,1717.4302999999522,1717.9225000000001,1716.9215,1717.4301999999882,1714.857199999988,1716.9215,1717.9225999999642,1718.4145,1718.4145,1719.629199999988,895,1719.6292999999523,2,1719.6295999999643,6,21,201,21,1,1,0.3,Time
,,384894,001,男,19,2025-06-04_10h26.20.680,Serial_Dependence_U,2023.2.3,Win32,60.60606060606061,,,,,,1719.6298999999763,48,6,1719.630199999988,48,,,,1723.4042999999524,1723.896199999988,1722.8953999999762,1723.4042999999524,1720.630699999988,1722.8952999999524,1723.896199999988,1724.3886999999881,1724.3886999999881,1725.488,805,1725.4880999999643,1,1725.4882999999525,6,22,202,2,1,1.2,0.3,Time
,,384894,001,男,19,2025-06-04_10h26.20.680,Serial_Dependence_U,2023.2.3,Win32,60.60606060606061,,,,,,1725.4885,107,6,1725.488699999988,107,,,,1729.2302999999524,1729.7230999999642,1728.721699999988,1729.2301999999881,1726.489699999988,1728.7215999999644,1729.723199999988,1730.2155999999643,1730.2155999999643,1731.806699999988,1259,1731.8067999999523,3,1731.807,6,23,203,17,1,1.2,0.7,Time
,,384894,001,男,19,2025-06-04_10h26.20.680,Serial_Dependence_U,2023.2.3,Win32,60.60606060606061,,,,,,1731.8072999999524,154,6,1731.8075000000001,154,,,,1735.9922999999524,1736.4838999999763,1735.483199999988,1735.9922999999524,1732.8081999999881,1735.4830999999642,1736.484,1736.9771999999882,1736.9771999999882,1738.437199999988,1157,1738.4372999999523,2,1738.4373999999762,6,24,204,14,1,1.6,0.3,Time
,,384894,001,男,19,2025-06-04_10h26.20.680,Serial_Dependence_U,2023.2.3,Win32,60.60606060606061,,,,,,1738.4376999999881,250,6,1738.4377999999524,250,,,,1741.9833999999762,1742.4750000000001,1741.4740999999642,1741.9832999999524,1739.439,1741.4740999999642,1742.4750000000001,1742.967,1742.967,1744.4115,1042,1744.4115999999642,3,1744.4117999999523,6,25,205,26,1,1,0.7,Time
,,384894,001,男,19,2025-06-04_10h26.20.680,Serial_Dependence_U,2023.2.3,Win32,60.60606060606061,,,,,,1744.4120999999643,296,6,1744.4121999999882,296,,,,1748.5641999999882,1749.0558999999762,1748.0548999999762,1748.5640999999644,1745.413,1748.0547999999524,1749.0558999999762,1749.548,1749.5480999999643,1751.0415999999643,1225,1751.0415999999643,2,1751.0417999999524,6,26,206,19,1,1.6,0.7,Time
,,384894,001,男,19,2025-06-04_10h26.20.680,Serial_Dependence_U,2023.2.3,Win32,60.60606060606061,,,,,,1751.0420999999642,19,6,1751.0420999999642,19,,,,1755.2127999999523,1755.7027999999523,1754.7048999999763,1755.2127999999523,1752.0440999999644,1754.7048999999763,1755.7027999999523,1756.194899999976,1756.195,1757.1510999999643,666,1757.1511999999882,1,1757.1512999999522,6,27,207,4,1,1.6,0.3,Time
,,384894,001,男,19,2025-06-04_10h26.20.680,Serial_Dependence_U,2023.2.3,Win32,60.60606060606061,,,,,,1757.1515,147,6,1757.1515999999642,147,,,,1761.119199999988,1761.6113999999761,1760.6103999999762,1761.1190999999642,1758.1680999999642,1760.6102999999523,1761.6115,1762.1038999999762,1762.1038999999762,1763.482199999988,1132,1763.4822999999524,2,1763.4825999999643,6,28,208,28,1,1.4,0.7,Time
,,384894,001,男,19,2025-06-04_10h26.20.680,Serial_Dependence_U,2023.2.3,Win32,60.60606060606061,,,,,,1763.482899999976,263,6,1763.4830999999642,263,,,,1767.4378999999763,1767.9301999999882,1766.930699999988,1767.4378999999763,1764.4833999999762,1766.9305999999642,1767.9301999999882,1768.4220999999643,1768.4220999999643,1770.2115000000001,1396,1770.211699999988,3,1770.2118999999761,6,29,209,18,1,1.4,0.7,Time
,,384894,001,男,19,2025-06-04_10h26.20.680,Serial_Dependence_U,2023.2.3,Win32,60.60606060606061,,,,,,1770.2121999999881,179,7,1826.1275999999643,179,s,55.89539999997601,,1830.2792999999524,1830.771199999988,1829.7707999999523,1830.2792999999524,1827.1287999999524,1829.7707999999523,1830.771199999988,1831.2638999999763,1831.2638999999763,1832.8762999999524,1325,1832.8762999999524,2,1832.8765,7,0,210,9,1,1.6,0.7,Time
,,384894,001,男,19,2025-06-04_10h26.20.680,Serial_Dependence_U,2023.2.3,Win32,60.60606060606061,,,,,,1832.8766999999882,112,7,1832.8775,112,,,,1836.4180999999642,1836.909699999988,1835.9085,1836.4180999999642,1833.8735,1835.9085,1836.909699999988,1837.4023999999763,1837.4025000000001,1838.6005,970,1838.6005,3,1838.6007999999524,7,1,211,26,1,1,0.7,Time
,,384894,001,男,19,2025-06-04_10h26.20.680,Serial_Dependence_U,2023.2.3,Win32,60.60606060606061,,,,,,1838.601,269,7,1838.6010999999642,269,,,,1842.1785999999643,1842.6698999999762,1841.6695999999642,1842.1785,1839.6015,1841.6693999999761,1842.67,1843.1623999999763,1843.1625000000001,1844.0325,592,1844.0325999999643,1,1844.0327999999524,7,2,212,21,1,1,0.3,Time
,,384894,001,男,19,2025-06-04_10h26.20.680,Serial_Dependence_U,2023.2.3,Win32,60.60606060606061,,,,,,1844.0330000000001,96,7,1844.033199999988,96,,,,1848.2180999999644,1848.709699999988,1847.709,1848.218,1845.0338999999763,1847.709,1848.7097999999523,1849.2067999999524,1849.2068999999763,1850.6298999999763,1039,1850.6298999999763,1,1850.6300999999642,7,3,213,24,1,1.6,0.3,Time
,,384894,001,男,19,2025-06-04_10h26.20.680,Serial_Dependence_U,2023.2.3,Win32,60.60606060606061,,,,,,1850.630199999988,240,7,1850.6303999999761,240,,,,1854.0122999999523,1854.5030999999642,1853.506699999988,1854.0120999999642,1851.631399999976,1853.5065,1854.5030999999642,1854.9955999999643,1854.9955999999643,1856.1162999999524,863,1856.1163999999762,4,1856.1165999999644,7,4,214,20,1,0.8,0.3,Time
,,384894,001,男,19,2025-06-04_10h26.20.680,Serial_Dependence_U,2023.2.3,Win32,60.60606060606061,,,,,,1856.1167999999523,39,7,1856.117,39,,,,1860.2965999999642,1860.7887999999523,1859.7910999999642,1860.2965999999642,1857.1293999999762,1859.7910999999642,1860.7887999999523,1861.2812999999524,1861.2812999999524,1862.4135999999642,800,1862.413699999988,1,1862.4137999999523,7,5,215,14,1,1.6,0.3,Time
,,384894,001,男,19,2025-06-04_10h26.20.680,Serial_Dependence_U,2023.2.3,Win32,60.60606060606061,,,,,,1862.4140999999643,198,7,1862.4142999999524,198,,,,1866.3567999999523,1866.845,1865.8475,1866.3566999999882,1863.4152999999524,1865.8473999999762,1866.8450999999643,1867.3375,1867.3375,1869.2457999999524,1321,1869.2458999999762,2,1869.246,7,6,216,28,1,1.4,0.7,Time
,,384894,001,男,19,2025-06-04_10h26.20.680,Serial_Dependence_U,2023.2.3,Win32,60.60606060606061,,,,,,1869.2460999999644,207,7,1869.2462999999523,207,,,,1873.4102999999523,1873.9031999999881,1872.9012999999522,1873.4101999999882,1870.2623999999762,1872.9012999999522,1873.9032999999524,1874.3945,1874.3945999999644,1876.0385,1378,1876.0385,2,1876.038699999988,7,7,217,19,1,1.6,0.7,Time
,,384894,001,男,19,2025-06-04_10h26.20.680,Serial_Dependence_U,2023.2.3,Win32,60.60606060606061,,,,,,1876.0388999999761,69,7,1876.039,69,,,,1880.0278999999762,1880.5205999999644,1879.5153999999761,1880.0277999999523,1877.0407999999522,1879.5152999999523,1880.5205999999644,1881.0087999999523,1881.0088999999762,1882.2760999999643,949,1882.2760999999643,1,1882.2762999999522,7,8,218,13,1,1.4,0.3,Time
,,384894,001,男,19,2025-06-04_10h26.20.680,Serial_Dependence_U,2023.2.3,Win32,60.60606060606061,,,,,,1882.276399999976,127,7,1882.2765,127,,,,1885.656,1886.1455999999644,1885.145,1885.655899999976,1883.2775000000001,1885.1447999999523,1886.1455999999644,1886.6380000000001,1886.6380000000001,1887.8405999999643,935,1887.8406999999881,4,1887.8407999999524,7,9,219,10,1,0.8,0.3,Time
,,384894,001,男,19,2025-06-04_10h26.20.680,Serial_Dependence_U,2023.2.3,Win32,60.60606060606061,,,,,,1887.8408999999763,309,7,1887.8410999999642,309,,,,1891.2005999999642,1891.6927999999523,1890.6970000000001,1891.2005000000001,1888.8538999999762,1890.6970000000001,1891.6928999999761,1892.1856999999882,1892.1857999999525,1893.3386999999882,870,1893.338899999976,4,1893.339,7,10,220,15,1,0.8,0.7,Time
,,384894,001,男,19,2025-06-04_10h26.20.680,Serial_Dependence_U,2023.2.3,Win32,60.60606060606061,,,,,,1893.3390999999642,248,7,1893.3392999999523,248,,,,1897.125699999988,1897.6175,1896.6185,1897.125699999988,1894.352,1896.6185,1897.6175,1898.1100999999642,1898.1100999999642,1899.2807999999523,832,1899.280899999976,1,1899.281,7,11,221,22,1,1.2,0.3,Time
,,384894,001,男,19,2025-06-04_10h26.20.680,Serial_Dependence_U,2023.2.3,Win32,60.60606060606061,,,,,,1899.281199999988,300,7,1899.2812999999524,300,,,,1903.0671999999881,1903.5587999999523,1902.5615,1903.0670999999643,1900.2962999999525,1902.5613999999762,1903.5587999999523,1904.0517999999524,1904.0517999999524,1905.4956999999881,947,1905.4957999999524,2,1905.496,7,12,222,12,1,1.2,0.3,Time
,,384894,001,男,19,2025-06-04_10h26.20.680,Serial_Dependence_U,2023.2.3,Win32,60.60606060606061,,,,,,1905.4960999999644,286,7,1905.4962999999523,286,,,,1908.8775999999643,1909.3687999999524,1908.3680999999642,1908.8775,1906.4968999999762,1908.3680999999642,1909.3687999999524,1909.861,1909.861,1911.1418999999762,1029,1911.1420999999643,4,1911.1422999999525,7,13,223,0,1,0.8,0.3,Time
,,384894,001,男,19,2025-06-04_10h26.20.680,Serial_Dependence_U,2023.2.3,Win32,60.60606060606061,,,,,,1911.1425,330,7,1911.142699999988,330,,,,1914.6865999999643,1915.1788999999762,1914.1778999999763,1914.6865,1912.1428999999762,1914.1777999999524,1915.179,1915.6710999999643,1915.6710999999643,1917.0661999999882,1129,1917.0662999999524,4,1917.0665999999642,7,14,224,16,1,1,0.7,Time
,,384894,001,男,19,2025-06-04_10h26.20.680,Serial_Dependence_U,2023.2.3,Win32,60.60606060606061,,,,,,1917.067,122,7,1917.0670999999643,122,,,,1920.8431999999882,1921.3331999999882,1920.3325999999643,1920.8430999999644,1918.067699999988,1920.3325,1921.3331999999882,1921.826,1921.826,1923.6148999999762,1250,1923.615,3,1923.6155,7,15,225,2,1,1.2,0.3,Time
,,384894,001,男,19,2025-06-04_10h26.20.680,Serial_Dependence_U,2023.2.3,Win32,60.60606060606061,,,,,,1923.6157999999523,321,7,1923.616,321,,,,1927.1958999999763,1927.6843999999762,1926.6833999999762,1927.1957999999524,1924.6165999999644,1926.6833999999762,1927.6843999999762,1928.1768999999763,1928.1768999999763,1929.4782999999522,1007,1929.4782999999522,3,1929.478399999976,7,16,226,1,1,1,0.3,Time
,,384894,001,男,19,2025-06-04_10h26.20.680,Serial_Dependence_U,2023.2.3,Win32,60.60606060606061,,,,,,1929.4785999999642,192,7,1929.478699999988,192,,,,1933.4305999999642,1933.9210999999643,1932.9233999999763,1933.4305,1930.4781999999882,1932.9232999999524,1933.9210999999643,1934.4135,1934.4135,1936.141,1429,1936.1410999999644,3,1936.1412999999523,7,17,227,18,1,1.4,0.7,Time
,,384894,001,男,19,2025-06-04_10h26.20.680,Serial_Dependence_U,2023.2.3,Win32,60.60606060606061,,,,,,1936.141399999976,152,7,1936.1415,152,,,,1940.1251999999881,1940.6170999999642,1939.6195,1940.1250999999643,1937.1565999999643,1939.6195,1940.6170999999642,1941.1121999999882,1941.1121999999882,1942.932,1084,1942.9320999999643,2,1942.9322999999524,7,18,228,3,1,1.4,0.3,Time
,,384894,001,男,19,2025-06-04_10h26.20.680,Serial_Dependence_U,2023.2.3,Win32,60.60606060606061,,,,,,1942.9325000000001,340,7,1942.932699999988,340,,,,1947.1196999999881,1947.6085999999643,1946.6112999999523,1947.1196999999881,1943.9365999999643,1946.611199999988,1947.6085999999643,1948.1025,1948.1025,1949.7795,1027,1949.7795,1,1949.7795,7,19,229,4,1,1.6,0.3,Time
,,384894,001,男,19,2025-06-04_10h26.20.680,Serial_Dependence_U,2023.2.3,Win32,60.60606060606061,,,,,,1949.7796999999882,175,7,1949.7798999999761,175,,,,1953.9280999999642,1954.4195,1953.419,1953.928,1950.7765,1953.4188999999762,1954.4195999999642,1954.9125999999642,1954.912699999988,1956.6680999999642,1474,1956.6680999999642,2,1956.6682999999523,7,20,230,29,1,1.6,0.7,Time
,,384894,001,男,19,2025-06-04_10h26.20.680,Serial_Dependence_U,2023.2.3,Win32,60.60606060606061,,,,,,1956.6685,319,7,1956.6686999999881,319,,,,1960.2135999999643,1960.7055999999643,1959.7053999999762,1960.2135,1957.6700999999643,1959.7052999999523,1960.7055999999643,1961.199699999988,1961.199699999988,1962.5115999999643,1033,1962.5116999999882,3,1962.511899999976,7,21,231,6,1,1,0.7,Time
,,384894,001,男,19,2025-06-04_10h26.20.680,Serial_Dependence_U,2023.2.3,Win32,60.60606060606061,,,,,,1962.5120999999642,208,7,1962.512199999988,208,,,,1966.252899999976,1966.745199999988,1965.7448999999763,1966.2527999999525,1963.512199999988,1965.7447999999524,1966.745199999988,1967.2375,1967.2375,1968.7313999999762,1212,1968.7313999999762,3,1968.7316999999882,7,22,232,17,1,1.2,0.7,Time
,,384894,001,男,19,2025-06-04_10h26.20.680,Serial_Dependence_U,2023.2.3,Win32,60.60606060606061,,,,,,1968.7317999999523,176,7,1968.7318999999761,176,,,,1972.6868999999763,1973.1787999999524,1972.1787999999524,1972.6868999999763,1969.732899999976,1972.178699999988,1973.1787999999524,1973.6711999999882,1973.6712999999525,1975.2142999999523,1272,1975.2143999999762,2,1975.2145999999643,7,23,233,8,1,1.4,0.7,Time
,,384894,001,男,19,2025-06-04_10h26.20.680,Serial_Dependence_U,2023.2.3,Win32,60.60606060606061,,,,,,1975.2148999999763,75,7,1975.2150999999642,75,,,,1978.9562999999523,1979.4481999999882,1978.447199999988,1978.956199999988,1976.2155999999643,1978.447199999988,1979.4481999999882,1979.9405999999642,1979.9407999999523,1981.3690000000001,1205,1981.3690000000001,3,1981.3693999999762,7,24,234,7,1,1.2,0.7,Time
,,384894,001,男,19,2025-06-04_10h26.20.680,Serial_Dependence_U,2023.2.3,Win32,60.60606060606061,,,,,,1981.3697999999524,329,7,1981.3700000000001,329,,,,1984.7168999999762,1985.209,1984.2085,1984.7168999999762,1982.3703999999761,1984.208399999976,1985.209,1985.7012999999524,1985.7013999999763,1986.6700999999643,690,1986.6701999999882,2,1986.6705999999642,7,25,235,5,1,0.8,0.7,Time
,,384894,001,男,19,2025-06-04_10h26.20.680,Serial_Dependence_U,2023.2.3,Win32,60.60606060606061,,,,,,1986.6708999999762,329,7,1986.671,329,,,,1990.4117999999523,1990.903699999988,1989.9033999999763,1990.4115999999642,1987.6713999999763,1989.9032999999524,1990.903699999988,1991.3962999999524,1991.3963999999762,1993.0875999999644,1357,1993.0876999999882,4,1993.088,7,26,236,27,1,1.2,0.7,Time
,,384894,001,男,19,2025-06-04_10h26.20.680,Serial_Dependence_U,2023.2.3,Win32,60.60606060606061,,,,,,1993.0882999999524,82,7,1993.0885,82,,,,1997.0592999999524,1997.5505999999643,1996.55,1997.0592999999524,1994.0878999999761,1996.549899999976,1997.5505999999643,1998.0432999999523,1998.0432999999523,1999.1263999999762,794,1999.1265,1,1999.1266999999882,7,27,237,23,1,1.4,0.3,Time
,,384894,001,男,19,2025-06-04_10h26.20.680,Serial_Dependence_U,2023.2.3,Win32,60.60606060606061,,,,,,1999.127,143,7,1999.1270999999642,143,,,,2002.4747999999524,2002.966699999988,2001.9660000000001,2002.4745999999643,2000.1283999999762,2001.9658999999763,2002.966699999988,2003.4593999999763,2003.4595000000002,2004.985599999964,1159,2004.985699999988,5,2004.9859999999999,7,28,238,25,1,0.8,0.7,Time
,,384894,001,男,19,2025-06-04_10h26.20.680,Serial_Dependence_U,2023.2.3,Win32,60.60606060606061,,,,,,2004.986199999988,226,7,2004.9863999999761,226,,,,2008.563399999976,2009.0555,2008.0549999999998,2008.563299999952,2005.986799999952,2008.054899999976,2009.0555,2009.548199999988,2009.5482999999522,2010.7951999999877,881,2010.795299999952,2,2010.7953999999759,7,29,239,11,1,1,0.3,Time
,,384894,001,男,19,2025-06-04_10h26.20.680,Serial_Dependence_U,2023.2.3,Win32,60.60606060606061,,,,,,2010.795599999964,345,8,2060.920899999976,345,s,50.116899999975885,,2064.892599999964,2065.386899999976,2064.3841999999877,2064.892599999964,2061.922,2064.384099999964,2065.386899999976,2065.876399999976,2065.876399999976,2067.6009999999997,1280,2067.6009999999997,2,2067.601099999964,8,0,240,23,1,1.4,0.3,Time
,,384894,001,男,19,2025-06-04_10h26.20.680,Serial_Dependence_U,2023.2.3,Win32,60.60606060606061,,,,,,2067.601299999952,43,8,2067.601899999976,43,,,,2071.145799999952,2071.636899999976,2070.637099999964,2071.145799999952,2068.601699999988,2070.6369999999997,2071.637099999964,2072.1292999999523,2072.129399999976,2073.985299999952,1313,2073.985299999952,5,2073.985299999952,8,1,241,6,1,1,0.7,Time
,,384894,001,男,19,2025-06-04_10h26.20.680,Serial_Dependence_U,2023.2.3,Win32,60.60606060606061,,,,,,2073.985399999976,164,8,2073.985599999964,164,,,,2077.529899999976,2078.0215,2077.0242999999523,2077.529899999976,2074.9862999999523,2077.0242999999523,2078.0215,2078.5136999999877,2078.5136999999877,2080.9275,1165,2080.927599999964,4,2080.927699999988,8,2,242,16,1,1,0.7,Time
,,384894,001,男,19,2025-06-04_10h26.20.680,Serial_Dependence_U,2023.2.3,Win32,60.60606060606061,,,,,,2080.927799999952,166,8,2080.927799999952,166,,,,2084.915,2085.409699999988,2084.407099999964,2084.915,2081.930899999976,2084.407099999964,2085.409699999988,2085.899199999988,2085.899199999988,2087.603599999964,1099,2087.603699999988,2,2087.604,8,3,243,3,1,1.4,0.3,Time
,,384894,001,男,19,2025-06-04_10h26.20.680,Serial_Dependence_U,2023.2.3,Win32,60.60606060606061,,,,,,2087.604199999988,4,8,2087.604299999952,4,,,,2090.985399999976,2091.4764999999998,2090.479399999976,2090.985199999988,2088.6054999999997,2090.479399999976,2091.4764999999998,2091.969599999964,2091.969599999964,2093.433899999976,1035,2093.433899999976,4,2093.434099999964,8,4,244,0,1,0.8,0.3,Time
,,384894,001,男,19,2025-06-04_10h26.20.680,Serial_Dependence_U,2023.2.3,Win32,60.60606060606061,,,,,,2093.434299999952,65,8,2093.434399999976,65,,,,2097.602099999964,2098.090699999988,2097.093199999988,2097.602099999964,2094.447599999964,2097.093099999964,2098.090699999988,2098.5829999999996,2098.583099999964,2100.6717999999523,1640,2100.6717999999523,3,2100.672099999964,8,5,245,9,1,1.6,0.7,Time
,,384894,001,男,19,2025-06-04_10h26.20.680,Serial_Dependence_U,2023.2.3,Win32,60.60606060606061,,,,,,2100.6721999999877,137,8,2100.672399999976,137,,,,2104.462599999964,2104.9507999999523,2103.950199999988,2104.462599999964,2101.685199999988,2103.950099999964,2104.9507999999523,2105.443299999952,2105.443299999952,2106.776599999964,1041,2106.776599999964,2,2106.7767999999523,8,6,246,12,1,1.2,0.3,Time
,,384894,001,男,19,2025-06-04_10h26.20.680,Serial_Dependence_U,2023.2.3,Win32,60.60606060606061,,,,,,2106.7769999999996,68,8,2106.7771999999877,68,,,,2110.173699999988,2110.6625,2109.665,2110.173699999988,2107.7951999999877,2109.664899999976,2110.662599999964,2111.154799999952,2111.154799999952,2112.522599999964,947,2112.5226999999877,4,2112.522799999952,8,7,247,20,1,0.8,0.3,Time
,,384894,001,男,19,2025-06-04_10h26.20.680,Serial_Dependence_U,2023.2.3,Win32,60.60606060606061,,,,,,2112.522899999976,219,8,2112.523099999964,219,,,,2116.686199999988,2117.1782999999523,2116.1775,2116.686199999988,2113.534799999952,2116.1775,2117.1782999999523,2117.670299999952,2117.670299999952,2119.951599999964,1657,2119.951599999964,3,2119.951699999988,8,8,248,29,1,1.6,0.7,Time
,,384894,001,男,19,2025-06-04_10h26.20.680,Serial_Dependence_U,2023.2.3,Win32,60.60606060606061,,,,,,2119.9519999999998,145,8,2119.952099999964,145,,,,2123.7275999999642,2124.218599999964,2123.218099999964,2123.7275,2120.953,2123.218,2124.218699999988,2124.711199999988,2124.711199999988,2126.5175,1225,2126.517599999964,3,2126.517899999976,8,9,249,2,1,1.2,0.3,Time
,,384894,001,男,19,2025-06-04_10h26.20.680,Serial_Dependence_U,2023.2.3,Win32,60.60606060606061,,,,,,2126.5181999999877,173,8,2126.518399999976,173,,,,2130.669199999988,2131.1611999999877,2130.160399999976,2130.669099999964,2127.518099999964,2130.1602999999523,2131.1611999999877,2131.653599999964,2131.653699999988,2133.6074999999996,1544,2133.607599999964,3,2133.607899999976,8,10,250,19,1,1.6,0.7,Time
,,384894,001,男,19,2025-06-04_10h26.20.680,Serial_Dependence_U,2023.2.3,Win32,60.60606060606061,,,,,,2133.608199999988,238,8,2133.608399999976,238,,,,2136.955,2137.446799999952,2136.446099999964,2136.954899999976,2134.608099999964,2136.446099999964,2137.446799999952,2137.9417999999523,2137.941899999976,2139.744599999964,936,2139.744699999988,4,2139.745,8,11,251,5,1,0.8,0.7,Time
,,384894,001,男,19,2025-06-04_10h26.20.680,Serial_Dependence_U,2023.2.3,Win32,60.60606060606061,,,,,,2139.745199999988,180,8,2139.745399999976,180,,,,2143.093099999964,2143.585099999964,2142.584699999988,2143.093,2140.7472999999522,2142.5845,2143.585099999964,2144.078,2144.078,2145.916099999964,969,2145.916099999964,4,2145.916299999952,8,12,252,15,1,0.8,0.7,Time
,,384894,001,男,19,2025-06-04_10h26.20.680,Serial_Dependence_U,2023.2.3,Win32,60.60606060606061,,,,,,2145.916599999964,200,8,2145.916599999964,200,,,,2149.6575,2150.149899999976,2149.149399999976,2149.6575,2146.916599999964,2149.1492999999523,2150.149899999976,2150.642199999988,2150.642199999988,2152.480399999976,1361,2152.480399999976,4,2152.480699999988,8,13,253,17,1,1.2,0.7,Time
