Scale_setup.started,Scale_setup.stopped,participant,session,sex,age,date,expName,psychopyVersion,OS,frameRate,Intro.started,Intro.stopped,key_resp_2.keys,key_resp_2.rt,key_resp_2.duration,block.started,direction,Block_id,block.stopped,trial_direction,Block_resp_2.keys,Block_resp_2.rt,Block_resp_2.duration,ITI.started,ITI.stopped,Mask_2.started,Mask_2.stopped,encoding.started,encoding.stopped,Cue.started,Cue.stopped,Response.started,Response.stopped,keyDuration,Feedback_Time.started,FeedbackID_T,Feedback_Time.stopped,trials.thisRepN,trials.thisTrialN,trials.thisN,trials.thisIndex,trials.ran,TimeDur,Coherence1,TrialType
0.00010000000148835397,0.0003000000007489234,402658,001,male,25,2025-06-04_13h56.22.529,Serial_Dependence_U,2023.2.3,Win32,163.93442622935177,,,,,,,,,,,,,,,,,,,,,,,,,,,,,,,,,,,
,,402658,001,male,25,2025-06-04_13h56.22.529,Serial_Dependence_U,2023.2.3,Win32,163.93442622935177,30.75080000000074,96.9635,space,66.19119999999926,,,,,,,,,,,,,,,,,,,,,,,,,,,,,,,
,,402658,001,male,25,2025-06-04_13h56.22.529,Serial_Dependence_U,2023.2.3,Win32,163.93442622935177,,,,,,96.97500000000001,118,0,100.13260000000149,118,s,3.1463999999984935,,103.67210000000149,104.16840000000222,103.16919999999926,103.67200000000001,101.13350000000001,103.16919999999926,104.16869999999925,104.66540000000224,104.6656000000015,106.938,1469,106.93819999999927,5,107.93830000000075,0,0,0,16,1,1,0.7,Time
,,402658,001,male,25,2025-06-04_13h56.22.529,Serial_Dependence_U,2023.2.3,Win32,163.93442622935177,,,,,,107.93910000000149,0,0,107.94160000000149,0,,,,111.91369999999925,112.41010000000149,111.41099999999999,111.91369999999925,108.9446000000015,111.41099999999999,112.41010000000149,112.90669999999925,112.90680000000076,114.97369999999925,1423,114.97380000000074,3,115.973,0,1,1,3,1,1.4,0.3,Time
,,402658,001,male,25,2025-06-04_13h56.22.529,Serial_Dependence_U,2023.2.3,Win32,163.93442622935177,,,,,,115.9736000000015,9,0,115.97380000000074,9,,,,119.94319999999927,120.4396000000015,119.44040000000224,119.94319999999927,116.97440000000223,119.44040000000224,120.43969999999926,120.93669999999925,120.93680000000076,123.42180000000074,1535,123.42190000000222,4,124.421,0,2,2,13,1,1.4,0.3,Time
,,402658,001,male,25,2025-06-04_13h56.22.529,Serial_Dependence_U,2023.2.3,Win32,163.93442622935177,,,,,,124.42169999999926,112,0,124.42190000000222,112,,,,128.1606000000015,128.65680000000077,127.65769999999925,128.1605,125.42190000000222,127.6576000000015,128.65690000000225,129.15380000000076,129.15390000000224,131.2386000000015,1423,131.23869999999928,4,132.23819999999927,0,3,3,17,1,1.2,0.7,Time
,,402658,001,male,25,2025-06-04_13h56.22.529,Serial_Dependence_U,2023.2.3,Win32,163.93442622935177,,,,,,132.23880000000077,69,0,132.239,69,,,,136.1785,136.67990000000225,135.67519999999928,136.1785,133.23930000000075,135.675,136.68,137.17700000000002,137.17700000000002,139.7711000000015,1804,139.7711000000015,4,140.7706000000015,0,4,4,28,1,1.4,0.7,Time
,,402658,001,male,25,2025-06-04_13h56.22.529,Serial_Dependence_U,2023.2.3,Win32,163.93442622935177,,,,,,140.77130000000076,296,0,140.77190000000226,296,,,,144.71019999999928,145.2065,144.2076000000015,144.71010000000152,141.7715,144.2076000000015,145.2065,145.70350000000002,145.70350000000002,147.83100000000002,1350,147.83100000000002,3,148.83040000000224,0,5,5,18,1,1.4,0.7,Time
,,402658,001,male,25,2025-06-04_13h56.22.529,Serial_Dependence_U,2023.2.3,Win32,163.93442622935177,,,,,,148.83100000000002,54,0,148.83130000000077,54,,,,152.40040000000226,152.8965,151.89690000000226,152.40040000000226,149.83100000000002,151.89680000000075,152.8966000000015,153.39340000000226,153.39350000000002,154.74540000000226,821,154.74540000000226,2,155.745,0,6,6,11,1,1,0.3,Time
,,402658,001,male,25,2025-06-04_13h56.22.529,Serial_Dependence_U,2023.2.3,Win32,163.93442622935177,,,,,,155.74580000000077,178,0,155.746,178,,,,159.11530000000076,159.61100000000002,158.6121000000015,159.11519999999928,156.7456000000015,158.6121000000015,159.6111000000015,160.10790000000225,160.10790000000225,161.50850000000003,860,161.50850000000003,4,162.50780000000077,0,7,7,0,1,0.8,0.3,Time
,,402658,001,male,25,2025-06-04_13h56.22.529,Serial_Dependence_U,2023.2.3,Win32,163.93442622935177,,,,,,162.50830000000076,190,0,162.50850000000003,190,,,,166.67790000000224,167.174,166.175,166.67769999999928,163.50830000000076,166.17490000000225,167.174,167.67100000000002,167.67100000000002,169.63469999999927,1284,169.63480000000075,2,170.63440000000224,0,8,8,14,1,1.6,0.3,Time
,,402658,001,male,25,2025-06-04_13h56.22.529,Serial_Dependence_U,2023.2.3,Win32,163.93442622935177,,,,,,170.6351000000015,42,0,170.63530000000077,42,,,,173.97390000000226,174.4701000000015,173.47090000000225,173.97380000000075,171.63540000000225,173.47090000000225,174.4701000000015,174.9671000000015,174.9671000000015,176.49440000000226,1100,176.49450000000002,5,177.49390000000224,0,9,9,25,1,0.8,0.7,Time
,,402658,001,male,25,2025-06-04_13h56.22.529,Serial_Dependence_U,2023.2.3,Win32,163.93442622935177,,,,,,177.49430000000075,114,0,177.49440000000226,114,,,,181.63380000000075,182.13019999999926,181.13100000000003,181.63369999999927,178.49440000000226,181.13090000000224,182.13019999999926,182.62680000000077,182.62690000000225,185.56619999999927,2153,185.56619999999927,5,186.56580000000076,0,10,10,19,1,1.6,0.7,Time
,,402658,001,male,25,2025-06-04_13h56.22.529,Serial_Dependence_U,2023.2.3,Win32,163.93442622935177,,,,,,186.56630000000075,216,0,186.56640000000226,216,,,,190.13630000000077,190.63219999999927,189.63319999999928,190.13619999999926,187.56680000000077,189.63319999999928,190.63219999999927,191.1291000000015,191.12919999999926,193.026,1429,193.0261000000015,5,194.0256000000015,0,11,11,21,1,1,0.3,Time
,,402658,001,male,25,2025-06-04_13h56.22.529,Serial_Dependence_U,2023.2.3,Win32,163.93442622935177,,,,,,194.02590000000225,100,0,194.0261000000015,100,,,,197.7656000000015,198.2615,197.26250000000002,197.76540000000224,195.02630000000076,197.26240000000226,198.2616000000015,198.7591000000015,198.7591000000015,200.98890000000225,1602,200.989,5,201.98819999999927,0,12,12,27,1,1.2,0.7,Time
,,402658,001,male,25,2025-06-04_13h56.22.529,Serial_Dependence_U,2023.2.3,Win32,163.93442622935177,,,,,,201.98850000000002,311,0,201.9886000000015,311,,,,205.75850000000003,206.2551000000015,205.25580000000076,205.75840000000224,202.98919999999927,205.25569999999928,206.2551000000015,206.75180000000077,206.75180000000077,209.46090000000225,1699,209.461,5,210.46030000000076,0,13,13,22,1,1.2,0.3,Time
,,402658,001,male,25,2025-06-04_13h56.22.529,Serial_Dependence_U,2023.2.3,Win32,163.93442622935177,,,,,,210.46080000000077,214,0,210.461,214,,,,214.5995,215.09630000000075,214.097,214.5995,211.46090000000225,214.09690000000225,215.09640000000226,215.5935,215.5935,220.49,2362,220.49010000000152,5,221.48969999999926,0,14,14,29,1,1.6,0.7,Time
,,402658,001,male,25,2025-06-04_13h56.22.529,Serial_Dependence_U,2023.2.3,Win32,163.93442622935177,,,,,,221.49019999999928,160,0,221.49040000000224,160,,,,225.25950000000003,225.75569999999928,224.75700000000003,225.25950000000003,222.49030000000076,224.75690000000228,225.75569999999928,226.25280000000075,226.25280000000075,228.18630000000076,1443,228.1864000000022,4,229.18599999999998,0,15,15,12,1,1.2,0.3,Time
,,402658,001,male,25,2025-06-04_13h56.22.529,Serial_Dependence_U,2023.2.3,Win32,163.93442622935177,,,,,,229.18630000000076,178,0,229.18649999999997,178,,,,233.15590000000225,233.65180000000072,232.65280000000075,233.15590000000225,230.18630000000076,232.65280000000075,233.65190000000223,234.149,234.14910000000145,237.21560000000147,1895,237.21569999999923,5,238.21549999999996,0,16,16,23,1,1.4,0.3,Time
,,402658,001,male,25,2025-06-04_13h56.22.529,Serial_Dependence_U,2023.2.3,Win32,163.93442622935177,,,,,,238.21630000000073,340,0,238.21660000000145,340,,,,241.98540000000224,242.4816000000015,241.48269999999923,241.98540000000224,239.21630000000073,241.48260000000147,242.48169999999925,242.97860000000145,242.97869999999926,245.10580000000073,1465,245.10590000000224,4,246.10519999999923,0,17,17,2,1,1.2,0.3,Time
,,402658,001,male,25,2025-06-04_13h56.22.529,Serial_Dependence_U,2023.2.3,Win32,163.93442622935177,,,,,,246.10560000000146,154,0,246.10580000000073,154,,,,249.44480000000073,249.94130000000075,248.94210000000146,249.44480000000073,247.10580000000073,248.942,249.94130000000075,250.438,250.438,252.66230000000076,1383,252.66230000000076,5,253.66169999999926,0,18,18,15,1,0.8,0.7,Time
,,402658,001,male,25,2025-06-04_13h56.22.529,Serial_Dependence_U,2023.2.3,Win32,163.93442622935177,,,,,,253.6621000000015,146,0,253.66219999999925,146,,,,257.8326000000015,258.3341999999992,257.32910000000146,257.8326000000015,254.66260000000148,257.329,258.3341999999992,258.8311999999992,258.8311999999992,260.72219999999925,1341,260.72219999999925,2,261.7218000000007,0,19,19,24,1,1.6,0.3,Time
,,402658,001,male,25,2025-06-04_13h56.22.529,Serial_Dependence_U,2023.2.3,Win32,163.93442622935177,,,,,,261.7221000000015,7,0,261.72219999999925,7,,,,265.29230000000075,265.788,264.78919999999925,265.29219999999924,262.7226000000015,264.7891000000015,265.788,266.2851000000015,266.2851000000015,267.8851000000015,1236,267.8851000000015,4,268.8845,0,20,20,1,1,1,0.3,Time
,,402658,001,male,25,2025-06-04_13h56.22.529,Serial_Dependence_U,2023.2.3,Win32,163.93442622935177,,,,,,268.88490000000223,198,0,268.8851000000015,198,,,,272.25419999999923,272.751,271.75169999999923,272.2541000000015,269.8846999999992,271.75169999999923,272.751,273.24790000000223,273.24790000000223,274.3025,705,274.30260000000146,2,275.30219999999923,0,21,21,10,1,0.8,0.3,Time
,,402658,001,male,25,2025-06-04_13h56.22.529,Serial_Dependence_U,2023.2.3,Win32,163.93442622935177,,,,,,275.30260000000146,323,0,275.30280000000073,323,,,,279.0419000000022,279.5381999999992,278.53999999999996,279.0418000000007,276.3024000000022,278.5399000000022,279.53830000000073,280.0349000000022,280.0349000000022,281.878,1270,281.878,4,282.8771999999992,0,22,22,7,1,1.2,0.7,Time
,,402658,001,male,25,2025-06-04_13h56.22.529,Serial_Dependence_U,2023.2.3,Win32,163.93442622935177,,,,,,282.87760000000145,312,0,282.87769999999927,312,,,,286.41669999999925,286.91330000000073,285.914,286.4166000000015,283.87769999999927,285.91390000000223,286.91340000000224,287.4101000000015,287.41019999999924,289.1013000000007,1381,289.1013000000007,5,290.1006999999992,0,23,23,6,1,1,0.7,Time
,,402658,001,male,25,2025-06-04_13h56.22.529,Serial_Dependence_U,2023.2.3,Win32,163.93442622935177,,,,,,290.101,190,0,290.10110000000145,190,,,,294.0404000000022,294.53640000000223,293.53730000000076,294.04030000000074,291.10119999999927,293.53719999999925,294.5365,295.0336999999992,295.0336999999992,297.1914000000022,1703,297.1914000000022,4,298.1909000000022,0,24,24,8,1,1.4,0.7,Time
,,402658,001,male,25,2025-06-04_13h56.22.529,Serial_Dependence_U,2023.2.3,Win32,163.93442622935177,,,,,,298.19130000000075,110,0,298.19149999999996,110,,,,301.5608000000007,302.0571999999992,301.05819999999926,301.56069999999926,299.191,301.0581000000015,302.0571999999992,302.554,302.554,303.736,779,303.7361000000015,3,304.73560000000145,0,25,25,20,1,0.8,0.3,Time
,,402658,001,male,25,2025-06-04_13h56.22.529,Serial_Dependence_U,2023.2.3,Win32,163.93442622935177,,,,,,304.7361000000015,159,0,304.7363000000007,159,,,,308.07580000000075,308.5775,307.57269999999926,308.07569999999924,305.73619999999926,307.5726000000015,308.5775,309.07469999999927,309.0748000000007,310.178,793,310.178,3,311.17719999999923,0,26,26,5,1,0.8,0.7,Time
,,402658,001,male,25,2025-06-04_13h56.22.529,Serial_Dependence_U,2023.2.3,Win32,163.93442622935177,,,,,,311.1776999999992,162,0,311.17790000000224,162,,,,315.31710000000146,315.8131000000015,314.8139000000022,315.317,312.178,314.81380000000075,315.8131000000015,316.31010000000146,316.31010000000146,318.27390000000224,1449,318.274,2,319.27360000000147,0,27,27,9,1,1.6,0.7,Time
,,402658,001,male,25,2025-06-04_13h56.22.529,Serial_Dependence_U,2023.2.3,Win32,163.93442622935177,,,,,,319.27419999999927,338,0,319.2743000000007,338,,,,323.4433000000007,323.9394000000022,322.9409000000022,323.4433000000007,320.27410000000145,322.9408000000007,323.9395,324.43619999999925,324.43630000000076,326.3701999999992,1489,326.3701999999992,2,327.36949999999996,0,28,28,4,1,1.6,0.3,Time
,,402658,001,male,25,2025-06-04_13h56.22.529,Serial_Dependence_U,2023.2.3,Win32,163.93442622935177,,,,,,327.36980000000074,225,0,327.37,225,,,,330.90919999999926,331.40580000000074,330.4066000000015,330.90919999999926,328.3708000000007,330.4066000000015,331.40590000000225,331.9024000000022,331.9024000000022,333.4905,1165,333.4905,4,334.49010000000146,0,29,29,26,1,1,0.7,Time
,,402658,001,male,25,2025-06-04_13h56.22.529,Serial_Dependence_U,2023.2.3,Win32,163.93442622935177,,,,,,334.4905,268,1,338.9754000000022,268,s,4.466600000001506,,342.9439000000022,343.4406000000015,342.44119999999924,342.9439000000022,339.9749000000022,342.4411000000015,343.4406000000015,343.93730000000073,343.9375,345.87119999999925,1246,345.87119999999925,2,345.8784000000022,1,0,30,3,1,1.4,0.3,Time
,,402658,001,male,25,2025-06-04_13h56.22.529,Serial_Dependence_U,2023.2.3,Win32,163.93442622935177,,,,,,345.8785,76,1,345.87940000000225,76,,,,350.0224000000022,350.5186999999992,349.5196000000015,350.0223000000007,346.8836000000015,349.5195,350.5186999999992,351.0155,351.0156000000015,352.84610000000146,1461,352.84610000000146,2,352.8463000000007,1,1,31,9,1,1.6,0.7,Time
,,402658,001,male,25,2025-06-04_13h56.22.529,Serial_Dependence_U,2023.2.3,Win32,163.93442622935177,,,,,,352.8466000000015,174,1,352.84669999999926,174,,,,357.01630000000074,357.518,356.5128000000007,357.01630000000074,353.846,356.51269999999926,357.5181000000015,358.01469999999927,358.0148000000007,359.6211000000015,1296,359.6211000000015,2,359.62819999999925,1,2,32,4,1,1.6,0.3,Time
,,402658,001,male,25,2025-06-04_13h56.22.529,Serial_Dependence_U,2023.2.3,Win32,163.93442622935177,,,,,,359.6284000000022,78,1,359.6284000000022,78,,,,363.603,364.0993000000007,363.10019999999923,363.603,360.6336000000015,363.10019999999923,364.0993000000007,364.5961999999992,364.5961999999992,366.1116000000015,1231,366.1116000000015,2,366.11930000000075,1,3,33,23,1,1.4,0.3,Time
,,402658,001,male,25,2025-06-04_13h56.22.529,Serial_Dependence_U,2023.2.3,Win32,163.93442622935177,,,,,,366.1194000000022,287,1,366.11949999999996,287,,,,369.6934000000022,370.1895,369.1906000000015,369.6933000000007,367.1239000000022,369.1906000000015,370.1895,370.68630000000076,370.68649999999997,370.8384000000022,66,370.8384000000022,1,370.84610000000146,1,4,34,21,1,1,0.3,Time
,,402658,001,male,25,2025-06-04_13h56.22.529,Serial_Dependence_U,2023.2.3,Win32,163.93442622935177,,,,,,370.8463000000007,101,1,370.84640000000223,101,,,,374.61990000000225,375.11619999999925,374.1169000000022,374.61990000000225,371.8505,374.11680000000075,375.11619999999925,375.61319999999927,375.6133000000007,377.074,1079,377.074,2,377.0806000000015,1,5,35,2,1,1.2,0.3,Time
,,402658,001,male,25,2025-06-04_13h56.22.529,Serial_Dependence_U,2023.2.3,Win32,163.93442622935177,,,,,,377.08080000000075,291,1,377.0809000000022,291,,,,380.4255,380.9215,379.9225,380.4255,378.08640000000224,379.9224000000022,380.9216000000015,381.41840000000224,381.4185,382.7098000000007,915,382.7099000000022,4,382.71840000000225,1,6,36,15,1,0.8,0.7,Time
,,402658,001,male,25,2025-06-04_13h56.22.529,Serial_Dependence_U,2023.2.3,Win32,163.93442622935177,,,,,,382.71860000000146,16,1,382.71860000000146,16,,,,386.89130000000074,387.3876000000015,386.38849999999996,386.89119999999923,383.7221000000015,386.38849999999996,387.3876000000015,387.8848000000007,387.8848000000007,389.9336000000015,1730,389.93369999999925,4,389.94069999999925,1,7,37,14,1,1.6,0.3,Time
,,402658,001,male,25,2025-06-04_13h56.22.529,Serial_Dependence_U,2023.2.3,Win32,163.93442622935177,,,,,,389.9408000000007,182,1,389.9408000000007,182,,,,394.1086000000015,394.60519999999923,393.60590000000224,394.1086000000015,390.9395,393.6058000000007,394.60519999999923,395.1021000000015,395.10219999999924,397.587,2000,397.587,4,397.59390000000224,1,8,38,24,1,1.6,0.3,Time
,,402658,001,male,25,2025-06-04_13h56.22.529,Serial_Dependence_U,2023.2.3,Win32,163.93442622935177,,,,,,397.59419999999926,160,1,397.59419999999926,160,,,,401.1688000000007,401.6649000000022,400.66580000000073,401.1688000000007,398.59999999999997,400.6656999999992,401.66499999999996,402.162,402.1621000000015,404.3195,1743,404.3195,5,404.32680000000073,1,9,39,11,1,1,0.3,Time
,,402658,001,male,25,2025-06-04_13h56.22.529,Serial_Dependence_U,2023.2.3,Win32,163.93442622935177,,,,,,404.327,91,1,404.32710000000145,91,,,,408.2715,408.76719999999926,407.7681000000015,408.2715,405.332,407.768,408.76719999999926,409.2641999999992,409.26430000000073,411.5734000000022,1983,411.57349999999997,5,411.5801000000015,1,10,40,8,1,1.4,0.7,Time
,,402658,001,male,25,2025-06-04_13h56.22.529,Serial_Dependence_U,2023.2.3,Win32,163.93442622935177,,,,,,411.58019999999925,188,1,411.5803000000007,188,,,,415.51969999999926,416.02110000000147,415.01599999999996,415.5196000000015,412.57960000000145,415.0159000000022,416.0211999999992,416.5179000000022,416.5179000000022,418.56669999999923,1726,418.56669999999923,4,418.5736000000015,1,11,41,18,1,1.4,0.7,Time
,,402658,001,male,25,2025-06-04_13h56.22.529,Serial_Dependence_U,2023.2.3,Win32,163.93442622935177,,,,,,418.5739000000022,13,1,418.5739000000022,13,,,,422.5181000000015,423.01410000000146,422.0153000000007,422.518,419.5791999999992,422.0153000000007,423.01410000000146,423.5114000000022,423.5114000000022,425.5658000000007,1759,425.5659000000022,4,425.5726000000015,1,12,42,28,1,1.4,0.7,Time
,,402658,001,male,25,2025-06-04_13h56.22.529,Serial_Dependence_U,2023.2.3,Win32,163.93442622935177,,,,,,425.5728000000007,318,1,425.5728000000007,318,,,,429.1116000000015,429.6074000000022,428.6085,429.1115,426.5723000000007,428.60840000000223,429.6074000000022,430.1045,430.1045,431.6803000000007,1229,431.68040000000224,4,431.6869000000022,1,13,43,6,1,1,0.7,Time
,,402658,001,male,25,2025-06-04_13h56.22.529,Serial_Dependence_U,2023.2.3,Win32,163.93442622935177,,,,,,431.68710000000146,234,1,431.68710000000146,234,,,,435.4258000000007,435.9219000000022,434.92319999999927,435.42569999999927,432.68649999999997,434.92319999999927,435.9219000000022,436.419,436.419,438.9101000000015,2150,438.91019999999924,5,438.91810000000146,1,14,44,17,1,1.2,0.7,Time
,,402658,001,male,25,2025-06-04_13h56.22.529,Serial_Dependence_U,2023.2.3,Win32,163.93442622935177,,,,,,438.9181999999992,57,1,438.9183000000007,57,,,,442.2913000000007,442.788,441.78869999999927,442.2913000000007,439.9225,441.78869999999927,442.788,443.28480000000076,443.28480000000076,444.5761000000015,982,444.57619999999923,4,444.58280000000076,1,15,45,0,1,0.8,0.3,Time
,,402658,001,male,25,2025-06-04_13h56.22.529,Serial_Dependence_U,2023.2.3,Win32,163.93442622935177,,,,,,444.58299999999997,273,1,444.58299999999997,273,,,,448.72719999999924,449.22360000000145,448.2249000000022,448.72719999999924,445.58830000000074,448.22480000000076,449.22369999999927,449.72049999999996,449.72049999999996,451.9144000000022,1825,451.9144000000022,4,451.91980000000075,1,16,46,29,1,1.6,0.7,Time
,,402658,001,male,25,2025-06-04_13h56.22.529,Serial_Dependence_U,2023.2.3,Win32,163.93442622935177,,,,,,451.9199000000022,290,1,451.91999999999996,290,,,,455.2905,455.7865,454.7874000000022,455.2905,452.92119999999926,454.78730000000076,455.7865,456.2835,456.2835,457.48369999999926,884,457.4838000000007,4,457.491,1,17,47,10,1,0.8,0.3,Time
,,402658,001,male,25,2025-06-04_13h56.22.529,Serial_Dependence_U,2023.2.3,Win32,163.93442622935177,,,,,,457.49119999999925,236,1,457.4913000000007,236,,,,460.83519999999925,461.33140000000225,460.3324000000022,460.83519999999925,458.4959000000022,460.3323000000007,461.33140000000225,461.82869999999923,461.82869999999923,461.9744000000022,140,461.9745,1,461.98199999999997,1,18,48,25,1,0.8,0.7,Time
,,402658,001,male,25,2025-06-04_13h56.22.529,Serial_Dependence_U,2023.2.3,Win32,163.93442622935177,,,,,,461.9821000000015,117,1,461.98230000000075,117,,,,465.52610000000146,466.022,465.02299999999997,465.526,462.9865,465.02299999999997,466.022,466.51880000000074,466.51880000000074,468.41080000000073,1425,468.41090000000224,5,468.4188000000007,1,19,49,26,1,1,0.7,Time
,,402658,001,male,25,2025-06-04_13h56.22.529,Serial_Dependence_U,2023.2.3,Win32,163.93442622935177,,,,,,468.419,277,1,468.4191000000015,277,,,,471.7615,472.25769999999926,471.2586000000015,471.7614000000022,469.42280000000073,471.25849999999997,472.25769999999926,472.7548000000007,472.7548000000007,473.91840000000224,812,473.91840000000224,3,473.9249000000022,1,20,50,5,1,0.8,0.7,Time
,,402658,001,male,25,2025-06-04_13h56.22.529,Serial_Dependence_U,2023.2.3,Win32,163.93442622935177,,,,,,473.925,273,1,473.92510000000146,273,,,,477.69430000000074,478.1903000000007,477.1914000000022,477.6941999999992,474.925,477.1914000000022,478.1903000000007,478.68769999999927,478.68769999999927,480.36630000000076,1306,480.36630000000076,4,480.37360000000143,1,21,51,22,1,1.2,0.3,Time
,,402658,001,male,25,2025-06-04_13h56.22.529,Serial_Dependence_U,2023.2.3,Win32,163.93442622935177,,,,,,480.3738000000007,0,1,480.3738000000007,0,,,,484.3481000000015,484.84450000000004,483.8451999999993,484.34800000000007,481.3786000000014,483.8451000000015,484.84450000000004,485.3411000000016,485.3411000000016,486.74740000000224,1091,486.74750000000006,2,486.7541000000016,1,22,52,13,1,1.4,0.3,Time
,,402658,001,male,25,2025-06-04_13h56.22.529,Serial_Dependence_U,2023.2.3,Win32,163.93442622935177,,,,,,486.75430000000074,327,1,486.75430000000074,327,,,,490.49290000000224,490.9891000000015,489.9901000000016,490.4928000000008,487.7539000000023,489.99,490.9891000000015,491.48610000000156,491.48610000000156,493.40140000000224,1534,493.40140000000224,4,493.4085,1,23,53,27,1,1.2,0.7,Time
,,402658,001,male,25,2025-06-04_13h56.22.529,Serial_Dependence_U,2023.2.3,Win32,163.93442622935177,,,,,,493.40869999999927,98,1,493.40880000000084,98,,,,497.1829000000023,497.67910000000154,496.68040000000224,497.18280000000084,494.41369999999927,496.6803000000008,497.67919999999935,498.1761999999993,498.1761999999993,499.6068000000008,1049,499.60690000000227,2,499.6136000000015,1,24,54,12,1,1.2,0.3,Time
,,402658,001,male,25,2025-06-04_13h56.22.529,Serial_Dependence_U,2023.2.3,Win32,163.93442622935177,,,,,,499.6136999999993,55,1,499.61380000000077,55,,,,503.3523000000008,503.84840000000224,502.8496999999993,503.35219999999924,500.61300000000006,502.8496999999993,503.84850000000006,504.3455,504.3455,505.92090000000223,1193,505.92090000000223,3,505.9266000000015,1,25,55,7,1,1.2,0.7,Time
,,402658,001,male,25,2025-06-04_13h56.22.529,Serial_Dependence_U,2023.2.3,Win32,163.93442622935177,,,,,,505.92680000000075,49,1,505.92680000000075,49,,,,509.49690000000226,509.9931000000015,508.9939000000023,509.4968000000008,506.9276000000016,508.99380000000076,509.9931000000015,510.49,510.49,512.0540000000001,1182,512.0541000000015,4,512.0611999999993,1,26,56,1,1,1,0.3,Time
,,402658,001,male,25,2025-06-04_13h56.22.529,Serial_Dependence_U,2023.2.3,Win32,163.93442622935177,,,,,,512.0613000000008,299,1,512.0614000000023,299,,,,516.2053000000008,516.7014000000023,515.7024000000023,516.2053000000008,513.0665,515.7023000000008,516.7014000000023,517.1984000000023,517.1984000000023,519.4833000000008,1913,519.4834000000022,4,519.4901999999993,1,27,57,19,1,1.6,0.7,Time
,,402658,001,male,25,2025-06-04_13h56.22.529,Serial_Dependence_U,2023.2.3,Win32,163.93442622935177,,,,,,519.4903000000008,230,1,519.4903000000008,230,,,,523.0285,523.5251000000015,522.5256999999993,523.0284000000023,520.4895,522.5256000000015,523.5251000000015,524.0221999999993,524.0221999999993,525.5736000000015,1207,525.5736999999993,4,525.5803000000008,1,28,58,16,1,1,0.7,Time
,,402658,001,male,25,2025-06-04_13h56.22.529,Serial_Dependence_U,2023.2.3,Win32,163.93442622935177,,,,,,525.5805,249,1,525.5805,249,,,,528.9494000000022,529.4459000000023,528.4464000000023,528.9494000000022,526.5801999999993,528.4463000000007,529.4459000000023,529.9426000000016,529.9426000000016,531.6458000000008,1187,531.6458000000008,5,531.6521000000015,1,29,59,20,1,0.8,0.3,Time
,,402658,001,male,25,2025-06-04_13h56.22.529,Serial_Dependence_U,2023.2.3,Win32,163.93442622935177,,,,,,531.6524000000023,50,2,534.5300000000001,50,s,2.8708000000007132,,538.7001000000015,539.1961999999993,538.197,538.7001000000015,535.5305000000001,538.197,539.1961999999993,539.6931000000016,539.6931000000016,539.7539000000023,47,539.754,1,539.76,2,0,60,24,1,1.6,0.3,Time
,,402658,001,male,25,2025-06-04_13h56.22.529,Serial_Dependence_U,2023.2.3,Win32,163.93442622935177,,,,,,539.7601000000016,240,2,539.7615000000001,240,,,,543.5055000000001,544.0018000000008,543.0029000000022,543.5055000000001,540.7660000000001,543.0029000000022,544.0019000000023,544.499,544.4991000000016,546.7776000000015,1804,546.7776999999993,5,546.7779000000023,2,1,61,27,1,1.2,0.7,Time
,,402658,001,male,25,2025-06-04_13h56.22.529,Serial_Dependence_U,2023.2.3,Win32,163.93442622935177,,,,,,546.7781999999993,279,2,546.7783000000007,279,,,,550.1531000000016,550.6495,549.6509000000023,550.1531000000016,547.7836999999993,549.6508000000008,550.6495,551.1465000000001,551.1466000000015,553.2133000000008,1427,553.2133000000008,5,553.2195,2,2,62,20,1,0.8,0.3,Time
,,402658,001,male,25,2025-06-04_13h56.22.529,Serial_Dependence_U,2023.2.3,Win32,163.93442622935177,,,,,,553.2196999999993,176,2,553.2196999999993,176,,,,556.9583000000008,557.4545,556.456,556.9583000000008,554.2198000000008,556.4559000000023,557.4545,557.9519000000023,557.9519000000023,560.6613000000008,2328,560.6613000000008,5,560.6681999999993,2,3,63,7,1,1.2,0.7,Time
,,402658,001,male,25,2025-06-04_13h56.22.529,Serial_Dependence_U,2023.2.3,Win32,163.93442622935177,,,,,,560.6683000000008,25,2,560.6684000000023,25,,,,564.8125,565.3086000000015,564.3100000000001,564.8125,561.6731999999993,564.3100000000001,565.3086000000015,565.8056000000015,565.8056999999993,568.2421000000015,2050,568.2421000000015,4,568.2495,2,4,64,19,1,1.6,0.7,Time
,,402658,001,male,25,2025-06-04_13h56.22.529,Serial_Dependence_U,2023.2.3,Win32,163.93442622935177,,,,,,568.2496999999993,48,2,568.2496999999993,48,,,,572.3929000000023,572.8899000000023,571.8916000000015,572.3929000000023,569.2549000000023,571.8914000000022,572.8899000000023,573.3865000000001,573.3865000000001,575.9868000000008,2426,575.9868000000008,5,575.9934000000022,2,5,65,9,1,1.6,0.7,Time
,,402658,001,male,25,2025-06-04_13h56.22.529,Serial_Dependence_U,2023.2.3,Win32,163.93442622935177,,,,,,575.9936000000015,8,2,575.9936999999993,8,,,,579.9628000000008,580.4588000000008,579.4595,579.9628000000008,576.9928000000008,579.4594000000022,580.4588000000008,580.956,580.956,583.5316999999993,2048,583.5316999999993,5,583.5398000000008,2,6,66,23,1,1.4,0.3,Time
,,402658,001,male,25,2025-06-04_13h56.22.529,Serial_Dependence_U,2023.2.3,Win32,163.93442622935177,,,,,,583.5399000000023,340,2,583.5399000000023,340,,,,587.5131999999993,588.0094000000023,587.0103000000008,587.5131000000015,584.5438000000008,587.0101999999993,588.0094000000023,588.5061999999994,588.5061999999994,590.8701000000016,1818,590.8701999999993,4,590.8775,2,7,67,3,1,1.4,0.3,Time
,,402658,001,male,25,2025-06-04_13h56.22.529,Serial_Dependence_U,2023.2.3,Win32,163.93442622935177,,,,,,590.8776000000015,222,2,590.8776000000015,222,,,,594.8521000000015,595.3480000000001,594.3489000000022,594.8521000000015,591.8826999999993,594.3489000000022,595.3480000000001,595.8449000000023,595.8449000000023,597.8694000000023,1653,597.8694000000023,4,597.8763000000008,2,8,68,13,1,1.4,0.3,Time
,,402658,001,male,25,2025-06-04_13h56.22.529,Serial_Dependence_U,2023.2.3,Win32,163.93442622935177,,,,,,597.8765000000001,63,2,597.8766000000015,63,,,,601.2511000000015,601.7471999999993,600.7486000000015,601.2511000000015,598.8816999999993,600.7486000000015,601.7471999999993,602.2441000000015,602.2441999999993,603.8021000000016,1224,603.8021000000016,5,603.8090000000001,2,9,69,0,1,0.8,0.3,Time
,,402658,001,male,25,2025-06-04_13h56.22.529,Serial_Dependence_U,2023.2.3,Win32,163.93442622935177,,,,,,603.8091000000015,196,2,603.8091999999994,196,,,,607.5836000000015,608.08,607.0814000000023,607.5835000000001,604.8146999999993,607.0814000000023,608.0801000000015,608.5769000000023,608.5769000000023,611.1165000000001,1939,611.1166000000015,5,611.1243000000007,2,10,70,22,1,1.2,0.3,Time
,,402658,001,male,25,2025-06-04_13h56.22.529,Serial_Dependence_U,2023.2.3,Win32,163.93442622935177,,,,,,611.1245,252,2,611.1245,252,,,,614.6681000000016,615.1641999999993,614.1653000000008,614.668,612.1283000000008,614.1651999999993,615.1643000000008,615.6609000000022,615.6609000000022,618.231,2213,618.231,5,618.2386000000015,2,11,71,6,1,1,0.7,Time
,,402658,001,male,25,2025-06-04_13h56.22.529,Serial_Dependence_U,2023.2.3,Win32,163.93442622935177,,,,,,618.2386999999993,221,2,618.2388000000008,221,,,,622.1824000000023,622.6786000000016,621.6795000000001,622.1823000000007,619.2433000000008,621.6794000000023,622.6786000000016,623.1754000000022,623.1755,625.7151000000015,2102,625.7151000000015,5,625.7231999999993,2,12,72,28,1,1.4,0.7,Time
,,402658,001,male,25,2025-06-04_13h56.22.529,Serial_Dependence_U,2023.2.3,Win32,163.93442622935177,,,,,,625.7234000000022,104,2,625.7234000000022,104,,,,629.8969000000022,630.3926999999993,629.3936000000016,629.8969000000022,626.7273000000008,629.3936000000016,630.3928000000008,630.8896999999993,630.8896999999993,633.6901000000015,2363,633.6901000000015,5,633.6981999999992,2,13,73,14,1,1.6,0.3,Time
,,402658,001,male,25,2025-06-04_13h56.22.529,Serial_Dependence_U,2023.2.3,Win32,163.93442622935177,,,,,,633.6984000000023,164,2,633.6984000000023,164,,,,637.2714000000022,637.768,636.7684000000023,637.2713000000008,634.7021000000016,636.7683000000007,637.768,638.2646000000016,638.2646999999993,640.1438000000007,1522,640.1438000000007,5,640.1503000000008,2,14,74,11,1,1,0.3,Time
,,402658,001,male,25,2025-06-04_13h56.22.529,Serial_Dependence_U,2023.2.3,Win32,163.93442622935177,,,,,,640.1506000000015,355,2,640.1506000000015,355,,,,644.0891000000015,644.5856000000015,643.5861000000016,644.089,641.1501999999992,643.5861000000016,644.5856000000015,645.0823000000008,645.0824000000023,647.1369000000022,1594,647.1369000000022,4,647.1435,2,15,75,18,1,1.4,0.7,Time
,,402658,001,male,25,2025-06-04_13h56.22.529,Serial_Dependence_U,2023.2.3,Win32,163.93442622935177,,,,,,647.1436999999993,111,2,647.1438000000007,111,,,,651.3126999999993,651.8089000000023,650.8098000000008,651.3126000000016,648.1431000000015,650.8096999999993,651.8089000000023,652.3058000000008,652.3058000000008,654.6939000000023,1741,654.6940000000001,4,654.7008000000008,2,16,76,4,1,1.6,0.3,Time
,,402658,001,male,25,2025-06-04_13h56.22.529,Serial_Dependence_U,2023.2.3,Win32,163.93442622935177,,,,,,654.7009000000023,93,2,654.701,93,,,,658.0455000000001,658.5415,657.5428000000007,658.0454000000022,655.7063000000007,657.5426999999993,658.5415,659.0386999999993,659.0386999999993,661.2264000000023,1755,661.2265,5,661.2336999999993,2,17,77,5,1,0.8,0.7,Time
,,402658,001,male,25,2025-06-04_13h56.22.529,Serial_Dependence_U,2023.2.3,Win32,163.93442622935177,,,,,,661.2338000000008,179,2,661.2339000000022,179,,,,665.0081000000015,665.5045,664.5054000000023,665.008,662.2388000000008,664.5053000000008,665.5046000000016,666.0011999999992,666.0011999999992,668.3954000000023,1956,668.3955000000001,5,668.4029000000023,2,18,78,12,1,1.2,0.3,Time
,,402658,001,male,25,2025-06-04_13h56.22.529,Serial_Dependence_U,2023.2.3,Win32,163.93442622935177,,,,,,668.4031000000016,61,2,668.4031999999993,61,,,,672.1773000000007,672.6733000000008,671.6741000000015,672.1771000000016,669.4078000000007,671.6740000000001,672.6734000000023,673.1704000000022,673.1704000000022,675.5581999999993,2006,675.5583000000008,5,675.5654000000022,2,19,79,2,1,1.2,0.3,Time
,,402658,001,male,25,2025-06-04_13h56.22.529,Serial_Dependence_U,2023.2.3,Win32,163.93442622935177,,,,,,675.5655,276,2,675.5656000000015,276,,,,679.1399000000023,679.6365000000001,678.6375,679.1396999999993,676.5709000000023,678.6374000000022,679.6366000000015,680.1331000000015,680.1331000000015,681.4060000000001,952,681.4061000000015,3,681.4126999999993,2,20,80,21,1,1,0.3,Time
,,402658,001,male,25,2025-06-04_13h56.22.529,Serial_Dependence_U,2023.2.3,Win32,163.93442622935177,,,,,,681.4129000000023,340,2,681.413,340,,,,685.5573000000007,686.0536999999993,685.0546999999993,685.5571999999993,682.4184000000023,685.0546000000015,686.0538000000008,686.5506999999993,686.5508000000008,689.0358000000008,2065,689.0359000000022,4,689.0428000000007,2,21,81,29,1,1.6,0.7,Time
,,402658,001,male,25,2025-06-04_13h56.22.529,Serial_Dependence_U,2023.2.3,Win32,163.93442622935177,,,,,,689.043,192,2,689.043,192,,,,692.587,693.0831999999994,692.0844000000022,692.587,690.0476999999993,692.0843000000008,693.0833000000008,693.58,693.5801000000015,695.8046000000015,1723,695.8046999999993,5,695.811,2,22,82,26,1,1,0.7,Time
,,402658,001,male,25,2025-06-04_13h56.22.529,Serial_Dependence_U,2023.2.3,Win32,163.93442622935177,,,,,,695.8111999999993,205,2,695.8113000000008,205,,,,699.3799000000023,699.8763000000008,698.8775,699.3799000000023,696.8106000000015,698.8775,699.8764000000023,700.3731999999993,700.3731999999993,702.1494000000023,1261,702.1494000000023,4,702.1563000000008,2,23,83,1,1,1,0.3,Time
,,402658,001,male,25,2025-06-04_13h56.22.529,Serial_Dependence_U,2023.2.3,Win32,163.93442622935177,,,,,,702.1565,298,2,702.1566000000015,298,,,,706.0951000000015,706.5909000000023,705.5921000000016,706.0949000000023,703.1556999999993,705.5920000000001,706.5909000000023,707.0879000000023,707.0879000000023,709.0096999999993,1907,709.0098000000008,5,709.0171000000015,2,24,84,8,1,1.4,0.7,Time
,,402658,001,male,25,2025-06-04_13h56.22.529,Serial_Dependence_U,2023.2.3,Win32,163.93442622935177,,,,,,709.0174000000022,258,2,709.0174000000022,258,,,,712.361,712.8576000000015,711.8581999999993,712.361,710.022,711.8581999999993,712.8576000000015,713.354,713.3541000000015,715.542,1654,715.5421000000015,5,715.5491999999992,2,25,85,15,1,0.8,0.7,Time
,,402658,001,male,25,2025-06-04_13h56.22.529,Serial_Dependence_U,2023.2.3,Win32,163.93442622935177,,,,,,715.5494000000023,224,2,715.5494000000023,224,,,,719.0935000000001,719.5899000000023,718.591,719.0935000000001,716.5546000000015,718.5909000000023,719.5899000000023,720.087,720.087,722.2746000000016,1773,722.2746999999993,5,722.2816999999993,2,26,86,16,1,1,0.7,Time
,,402658,001,male,25,2025-06-04_13h56.22.529,Serial_Dependence_U,2023.2.3,Win32,163.93442622935177,,,,,,722.2818000000008,141,2,722.2818000000008,141,,,,725.6266000000015,726.1225000000001,725.1235,725.6265000000001,723.287,725.1235,726.1226000000015,726.6194000000023,726.6195,728.8251000000015,1809,728.8253000000008,5,728.8305,2,27,87,25,1,0.8,0.7,Time
,,402658,001,male,25,2025-06-04_13h56.22.529,Serial_Dependence_U,2023.2.3,Win32,163.93442622935177,,,,,,728.8306999999993,223,2,728.8306999999993,223,,,,732.2013000000007,732.6974000000023,731.6981999999992,732.2013000000007,729.8318000000008,731.6981000000015,732.6974000000023,733.1944000000022,733.1944000000022,735.6374000000022,1931,735.6374000000022,5,735.6446999999993,2,28,88,10,1,0.8,0.3,Time
,,402658,001,male,25,2025-06-04_13h56.22.529,Serial_Dependence_U,2023.2.3,Win32,163.93442622935177,,,,,,735.6449000000023,114,2,735.6450000000001,114,,,,739.3881999999993,739.8846999999993,738.8861000000015,739.3881000000015,736.6494000000023,738.8861000000015,739.8846999999993,740.3816999999993,740.3816999999993,743.9331000000016,2490,743.9331000000016,5,743.9401999999993,2,29,89,17,1,1.2,0.7,Time
,,402658,001,male,25,2025-06-04_13h56.22.529,Serial_Dependence_U,2023.2.3,Win32,163.93442622935177,,,,,,743.9404000000022,351,3,766.3846999999993,351,s,22.436199999999303,,770.1546999999993,770.6511000000015,769.6518000000008,770.1546000000016,767.3860000000001,769.6516999999993,770.6511000000015,771.1479000000023,771.148,773.2206999999993,1593,773.2206999999993,5,773.2269000000023,3,0,90,12,1,1.2,0.3,Time
,,402658,001,male,25,2025-06-04_13h56.22.529,Serial_Dependence_U,2023.2.3,Win32,163.93442622935177,,,,,,773.2270000000001,286,3,773.2278000000008,286,,,,777.3665000000001,777.8625000000001,776.8636000000015,777.3665000000001,774.2271999999992,776.8635,777.8625000000001,778.3593000000008,778.3594000000023,780.4929000000022,1981,780.493,4,780.5001999999993,3,1,91,19,1,1.6,0.7,Time
,,402658,001,male,25,2025-06-04_13h56.22.529,Serial_Dependence_U,2023.2.3,Win32,163.93442622935177,,,,,,780.5004000000023,160,3,780.5004000000023,160,,,,783.8448000000008,784.3413000000008,783.3416000000016,783.8446000000015,781.5055000000001,783.3415,784.3414000000023,784.8376000000015,784.8376999999992,786.7286000000015,1508,786.7286999999993,5,786.7356000000016,3,2,92,15,1,0.8,0.7,Time
,,402658,001,male,25,2025-06-04_13h56.22.529,Serial_Dependence_U,2023.2.3,Win32,163.93442622935177,,,,,,786.7358000000008,218,3,786.7359000000023,218,,,,790.2801999999994,790.7763000000008,789.777,790.2801999999994,787.7411999999993,789.777,790.7763000000008,791.2733000000007,791.2734000000023,793.4371999999993,1842,793.4371999999993,5,793.4444000000022,3,3,93,26,1,1,0.7,Time
,,402658,001,male,25,2025-06-04_13h56.22.529,Serial_Dependence_U,2023.2.3,Win32,163.93442622935177,,,,,,793.4445000000001,23,3,793.4445000000001,23,,,,797.6191999999993,798.1149000000023,797.1163000000008,797.6189000000023,794.4498000000008,797.1163000000008,798.1149000000023,798.6118000000008,798.6119000000023,800.8183000000008,1588,800.8183000000008,3,800.825,3,4,94,4,1,1.6,0.3,Time
,,402658,001,male,25,2025-06-04_13h56.22.529,Serial_Dependence_U,2023.2.3,Win32,163.93442622935177,,,,,,800.8251999999993,307,3,800.8253000000008,307,,,,804.4000000000001,804.8964000000022,803.8969000000022,804.3999000000023,801.8303000000008,803.8969000000022,804.8964000000022,805.3929000000023,805.393,807.8295,1768,807.8295,5,807.8368000000008,3,5,95,11,1,1,0.3,Time
,,402658,001,male,25,2025-06-04_13h56.22.529,Serial_Dependence_U,2023.2.3,Win32,163.93442622935177,,,,,,807.837,149,3,807.837,149,,,,811.8109000000023,812.3071999999993,811.3079000000023,811.8108000000008,808.8419000000023,811.3079000000023,812.3073000000007,812.8041000000015,812.8041000000015,816.1798000000008,2519,816.1800000000001,5,816.1865,3,6,96,23,1,1.4,0.3,Time
,,402658,001,male,25,2025-06-04_13h56.22.529,Serial_Dependence_U,2023.2.3,Win32,163.93442622935177,,,,,,816.1866999999993,230,3,816.1868000000007,230,,,,819.5561000000015,820.0521000000016,819.0523000000007,819.556,817.1859000000023,819.0523000000007,820.0521000000016,820.5493000000008,820.5494000000023,822.3431000000015,1292,822.3431000000015,5,822.3501000000016,3,7,97,10,1,0.8,0.3,Time
,,402658,001,male,25,2025-06-04_13h56.22.529,Serial_Dependence_U,2023.2.3,Win32,163.93442622935177,,,,,,822.3503000000007,50,3,822.3504000000023,50,,,,825.8886000000016,826.3846999999993,825.3861000000015,825.8886000000016,823.3495,825.3860000000001,826.3848000000008,826.8816999999993,826.8816999999993,829.2275000000001,1906,829.2275000000001,5,829.2345,3,8,98,16,1,1,0.7,Time
,,402658,001,male,25,2025-06-04_13h56.22.529,Serial_Dependence_U,2023.2.3,Win32,163.93442622935177,,,,,,829.2346000000015,137,3,829.2346000000015,137,,,,832.9785,833.4749000000023,832.4756000000016,832.9785,830.2396999999993,832.4756000000016,833.475,833.9719000000023,833.9719000000023,836.2570000000001,1832,836.2571000000015,5,836.264,3,9,99,27,1,1.2,0.7,Time
,,402658,001,male,25,2025-06-04_13h56.22.529,Serial_Dependence_U,2023.2.3,Win32,163.93442622935177,,,,,,836.2641999999993,207,3,836.2643000000008,207,,,,840.2083000000008,840.7045,839.7053000000008,840.2081999999994,837.2695,839.7053000000008,840.7045,841.2016000000016,841.2016000000016,843.7956000000015,2065,843.7956000000015,5,843.8025,3,10,100,18,1,1.4,0.7,Time
,,402658,001,male,25,2025-06-04_13h56.22.529,Serial_Dependence_U,2023.2.3,Win32,163.93442622935177,,,,,,843.8026999999993,204,3,843.8026999999993,204,,,,847.5773000000008,848.0734000000023,847.0744000000022,847.5771999999993,844.8081999999993,847.0744000000022,848.0734000000023,848.5705,848.5706000000015,850.7460000000001,1671,850.7461999999992,5,850.7521000000015,3,11,101,22,1,1.2,0.3,Time
,,402658,001,male,25,2025-06-04_13h56.22.529,Serial_Dependence_U,2023.2.3,Win32,163.93442622935177,,,,,,850.7521999999993,137,3,850.7523000000008,137,,,,854.522,855.018,854.0191000000016,854.5219000000022,851.7529000000022,854.019,855.018,855.5150000000001,855.5151000000016,857.994,2055,857.994,5,858.0005,3,12,102,2,1,1.2,0.3,Time
,,402658,001,male,25,2025-06-04_13h56.22.529,Serial_Dependence_U,2023.2.3,Win32,163.93442622935177,,,,,,858.0006999999993,6,3,858.0006999999993,6,,,,861.9698000000008,862.4661999999993,861.4669000000023,861.9698000000008,859.0004000000023,861.4666999999993,862.4661999999993,862.9625000000001,862.9625000000001,865.5326999999993,2120,865.5328000000007,5,865.5401000000015,3,13,103,13,1,1.4,0.3,Time
,,402658,001,male,25,2025-06-04_13h56.22.529,Serial_Dependence_U,2023.2.3,Win32,163.93442622935177,,,,,,865.5401999999993,192,3,865.5403000000008,192,,,,868.8843000000007,869.3801999999993,868.3811999999994,868.8841999999993,866.5451000000015,868.3811000000015,869.3801999999993,869.8773000000008,869.8774000000022,872.1378000000008,1570,872.1379000000023,5,872.1448000000008,3,14,104,5,1,0.8,0.7,Time
,,402658,001,male,25,2025-06-04_13h56.22.529,Serial_Dependence_U,2023.2.3,Win32,163.93442622935177,,,,,,872.1450000000001,109,3,872.1450000000001,109,,,,875.7201000000015,876.2159000000023,875.2166999999993,875.7201000000015,873.1505000000001,875.2166999999993,876.216,876.7129000000023,876.7130000000001,879.4523000000008,2266,879.4524000000023,5,879.4595,3,15,105,21,1,1,0.3,Time
,,402658,001,male,25,2025-06-04_13h56.22.529,Serial_Dependence_U,2023.2.3,Win32,163.93442622935177,,,,,,879.4596000000015,57,3,879.4596000000015,57,,,,882.8344000000022,883.3303000000008,882.3315,882.8343000000008,880.4641999999993,882.3314000000023,883.3303000000008,883.8276000000016,883.8276000000016,885.4214000000022,1145,885.4215,5,885.428,3,16,106,20,1,0.8,0.3,Time
,,402658,001,male,25,2025-06-04_13h56.22.529,Serial_Dependence_U,2023.2.3,Win32,163.93442622935177,,,,,,885.4281000000016,114,3,885.4281999999993,114,,,,889.567,890.0631999999993,889.0639000000023,889.5669000000023,886.4279000000023,889.0638000000008,890.0631999999993,890.5600000000001,890.5601000000015,893.3055,2422,893.3055,5,893.3126000000016,3,17,107,9,1,1.6,0.7,Time
,,402658,001,male,25,2025-06-04_13h56.22.529,Serial_Dependence_U,2023.2.3,Win32,163.93442622935177,,,,,,893.3126999999993,203,3,893.3129000000023,203,,,,896.8874000000022,897.3836000000015,896.384,896.8874000000022,894.3180000000001,896.384,897.3836999999993,897.8809000000023,897.8809000000023,900.6441000000016,1710,900.6441999999993,5,900.6519000000022,3,18,108,1,1,1,0.3,Time
,,402658,001,male,25,2025-06-04_13h56.22.529,Serial_Dependence_U,2023.2.3,Win32,163.93442622935177,,,,,,900.6521999999993,9,3,900.6521999999993,9,,,,904.6263000000008,905.1221000000015,904.1234000000023,904.6261999999992,901.6564000000022,904.1231999999993,905.1221000000015,905.619,905.6191000000015,907.5645000000001,1525,907.5646000000015,4,907.5718000000007,3,19,109,3,1,1.4,0.3,Time
,,402658,001,male,25,2025-06-04_13h56.22.529,Serial_Dependence_U,2023.2.3,Win32,163.93442622935177,,,,,,907.5719000000023,203,3,907.572,203,,,,911.3163000000008,911.8124000000023,910.8136999999992,911.3161999999993,908.5771000000016,910.8135000000001,911.8124000000023,912.3094000000023,912.3095000000001,914.5701000000015,1982,914.5701999999993,5,914.5779000000023,3,20,110,7,1,1.2,0.7,Time
,,402658,001,male,25,2025-06-04_13h56.22.529,Serial_Dependence_U,2023.2.3,Win32,163.93442622935177,,,,,,914.5781000000015,174,3,914.5781000000015,174,,,,918.3216000000016,918.8175,917.8186000000015,918.3215,915.5826000000015,917.8186000000015,918.8176000000016,919.3146000000015,919.3146000000015,921.9933000000008,2351,921.9933000000008,5,922.0001000000016,3,21,111,17,1,1.2,0.7,Time
,,402658,001,male,25,2025-06-04_13h56.22.529,Serial_Dependence_U,2023.2.3,Win32,163.93442622935177,,,,,,922.0001999999993,199,3,922.0003000000008,199,,,,926.1691000000015,926.6655000000001,925.6666999999993,926.1691000000015,922.9996999999993,925.6666999999993,926.6656000000015,927.1628000000007,927.1628000000007,929.4896000000016,1872,929.4896999999993,4,929.4968000000008,3,22,112,14,1,1.6,0.3,Time
,,402658,001,male,25,2025-06-04_13h56.22.529,Serial_Dependence_U,2023.2.3,Win32,163.93442622935177,,,,,,929.4970000000001,13,3,929.4970000000001,13,,,,933.4413000000008,933.9373000000007,932.9383000000008,933.4411999999993,930.5020000000001,932.9383000000008,933.9373000000007,934.4341999999994,934.4343000000008,936.7614000000023,1965,936.7615000000001,5,936.7681000000015,3,23,113,28,1,1.4,0.7,Time
,,402658,001,male,25,2025-06-04_13h56.22.529,Serial_Dependence_U,2023.2.3,Win32,163.93442622935177,,,,,,936.7681999999993,331,3,936.7683000000007,331,,,,940.7071999999993,941.2031999999992,940.2041000000015,940.7071000000016,937.7681999999993,940.2041000000015,941.2033000000008,941.7003000000008,941.7003000000008,944.5671000000016,2392,944.5671000000016,5,944.5746999999993,3,24,114,8,1,1.4,0.7,Time
,,402658,001,male,25,2025-06-04_13h56.22.529,Serial_Dependence_U,2023.2.3,Win32,163.93442622935177,,,,,,944.5749000000022,300,3,944.5749000000022,300,,,,947.9183000000008,948.4149000000023,947.4159000000022,947.9181999999993,945.5790000000001,947.4156000000015,948.4149000000023,948.9116999999993,948.9116999999993,952.0086999999993,2687,952.0086999999993,5,952.0160000000001,3,25,115,25,1,0.8,0.7,Time
,,402658,001,male,25,2025-06-04_13h56.22.529,Serial_Dependence_U,2023.2.3,Win32,163.93442622935177,,,,,,952.0161000000015,217,3,952.0161999999993,217,,,,956.1903000000008,956.6864000000023,955.6876000000016,956.1903000000008,953.0211999999993,955.6875,956.6864000000023,957.1839000000023,957.1840000000001,959.9956999999993,2346,959.9958000000008,5,960.0045,3,26,116,24,1,1.6,0.3,Time
,,402658,001,male,25,2025-06-04_13h56.22.529,Serial_Dependence_U,2023.2.3,Win32,163.93442622935177,,,,,,960.0046999999993,149,3,960.0048000000008,149,,,,964.147,964.6431999999993,963.6443000000008,964.147,961.0083000000008,963.6443000000008,964.6433000000007,965.1405000000001,965.1406000000015,967.7946999999994,2157,967.7946999999994,5,967.802,3,27,117,29,1,1.6,0.7,Time
,,402658,001,male,25,2025-06-04_13h56.22.529,Serial_Dependence_U,2023.2.3,Win32,163.93442622935177,,,,,,967.8021000000016,338,3,967.8023000000007,338,,,,971.1765,971.6726999999993,970.6740000000001,971.1764000000023,968.8073000000007,970.6739000000023,971.6726999999993,972.1700000000001,972.1700000000001,973.6971000000016,939,973.6971999999993,4,973.7036999999993,3,28,118,0,1,0.8,0.3,Time
,,402658,001,male,25,2025-06-04_13h56.22.529,Serial_Dependence_U,2023.2.3,Win32,163.93442622935177,,,,,,973.7039000000022,114,3,973.7040000000001,114,,,,977.2426999999993,977.7391999999993,976.7396999999993,977.2426000000015,974.7035000000001,976.7396999999993,977.7391999999993,978.2358000000008,978.2358000000008,980.3391999999993,1743,980.3391999999993,5,980.3463000000008,3,29,119,6,1,1,0.7,Time
,,402658,001,male,25,2025-06-04_13h56.22.529,Serial_Dependence_U,2023.2.3,Win32,163.93442622935177,,,,,,980.3465,231,4,995.7981999999992,231,s,15.437899999998308,,999.7676999999991,1000.2636999999992,999.2644000000022,999.7676999999991,996.7983000000007,999.2644000000022,1000.2638000000007,1000.7611999999991,1000.7611999999991,1003.3849000000022,1595,1003.3849000000022,4,1003.3925,4,0,120,23,1,1.4,0.3,Time
,,402658,001,male,25,2025-06-04_13h56.22.529,Serial_Dependence_U,2023.2.3,Win32,163.93442622935177,,,,,,1003.3926000000014,342,4,1003.3935,342,,,,1006.9366000000015,1007.4325,1006.4336000000013,1006.9364999999999,1004.3973000000007,1006.4335,1007.4325,1007.9294999999998,1007.9296000000014,1010.2993000000007,2045,1010.2994000000023,5,1010.2996999999992,4,1,121,6,1,1,0.7,Time
,,402658,001,male,25,2025-06-04_13h56.22.529,Serial_Dependence_U,2023.2.3,Win32,163.93442622935177,,,,,,1010.2998000000006,304,4,1010.2999999999998,304,,,,1014.4689000000022,1014.9651999999991,1013.9664999999999,1014.4688000000007,1011.2996999999992,1013.9664000000022,1014.9651999999991,1015.4621000000014,1015.4621000000014,1018.014,2129,1018.0141000000013,5,1018.0208000000006,4,2,122,14,1,1.6,0.3,Time
,,402658,001,male,25,2025-06-04_13h56.22.529,Serial_Dependence_U,2023.2.3,Win32,163.93442622935177,,,,,,1018.0209999999998,346,4,1018.0209999999998,346,,,,1021.9956999999991,1022.4921000000014,1021.4926999999992,1021.9956999999991,1019.0263000000008,1021.4926999999992,1022.4921000000014,1022.9889999999999,1022.9889999999999,1026.7461999999991,3260,1026.7461999999991,5,1026.752900000002,4,3,123,3,1,1.4,0.3,Time
,,402658,001,male,25,2025-06-04_13h56.22.529,Serial_Dependence_U,2023.2.3,Win32,163.93442622935177,,,,,,1026.7531000000013,343,4,1026.7531000000013,343,,,,1030.892199999999,1031.388,1030.389,1030.8918000000006,1027.7528000000007,1030.389,1031.388,1031.8846999999992,1031.8848000000005,1034.5096000000012,1781,1034.5096999999992,4,1034.5175,4,4,124,9,1,1.6,0.7,Time
,,402658,001,male,25,2025-06-04_13h56.22.529,Serial_Dependence_U,2023.2.3,Win32,163.93442622935177,,,,,,1034.517699999999,312,4,1034.5178000000005,312,,,,1038.6911000000014,1039.1868000000006,1038.1884999999997,1038.6909999999998,1035.521699999999,1038.188400000002,1039.1868000000006,1039.6841000000013,1039.6841000000013,1041.8173000000006,2093,1041.8173000000006,5,1041.8229000000022,4,5,125,4,1,1.6,0.3,Time
,,402658,001,male,25,2025-06-04_13h56.22.529,Serial_Dependence_U,2023.2.3,Win32,163.93442622935177,,,,,,1041.8231000000012,8,4,1041.8231000000012,8,,,,1045.1631000000014,1045.6591000000012,1044.6601999999991,1045.1629999999998,1042.8239999999998,1044.6601999999991,1045.6591000000012,1046.1561000000013,1046.1561000000013,1048.0591000000013,1567,1048.059199999999,5,1048.0658000000005,4,6,126,25,1,0.8,0.7,Time
,,402658,001,male,25,2025-06-04_13h56.22.529,Serial_Dependence_U,2023.2.3,Win32,163.93442622935177,,,,,,1048.0659999999998,235,4,1048.0661000000014,235,,,,1051.6354000000022,1052.1311000000012,1051.132199999999,1051.6354000000022,1049.0656000000013,1051.1321000000014,1052.1311000000012,1052.628199999999,1052.6283000000005,1054.9009999999998,1988,1054.9011000000014,5,1054.9076000000014,4,7,127,1,1,1,0.3,Time
,,402658,001,male,25,2025-06-04_13h56.22.529,Serial_Dependence_U,2023.2.3,Win32,163.93442622935177,,,,,,1054.907699999999,234,4,1054.9078000000006,234,,,,1058.8466000000012,1059.342400000002,1058.3433000000005,1058.8464999999999,1055.907400000002,1058.3431999999991,1059.3424999999997,1059.8394999999998,1059.8396000000014,1062.1609999999998,1821,1062.1609999999998,5,1062.1678000000006,4,8,128,28,1,1.4,0.7,Time
,,402658,001,male,25,2025-06-04_13h56.22.529,Serial_Dependence_U,2023.2.3,Win32,163.93442622935177,,,,,,1062.168,201,4,1062.1681000000012,201,,,,1065.5428000000006,1066.038900000002,1065.039900000002,1065.5428000000006,1063.1734999999999,1065.039900000002,1066.038900000002,1066.5359999999998,1066.5359999999998,1068.6508000000006,1636,1068.6509000000021,5,1068.657900000002,4,9,129,20,1,0.8,0.3,Time
,,402658,001,male,25,2025-06-04_13h56.22.529,Serial_Dependence_U,2023.2.3,Win32,163.93442622935177,,,,,,1068.6581000000012,248,4,1068.6581000000012,248,,,,1072.7968000000005,1073.293,1072.2939999999999,1072.796699999999,1069.6576000000014,1072.293900000002,1073.293,1073.7896000000012,1073.7896000000012,1076.0686000000012,1912,1076.0686000000012,4,1076.075699999999,4,10,130,19,1,1.6,0.7,Time
,,402658,001,male,25,2025-06-04_13h56.22.529,Serial_Dependence_U,2023.2.3,Win32,163.93442622935177,,,,,,1076.0758000000005,24,4,1076.075900000002,24,,,,1079.4501000000014,1079.946400000002,1078.9474999999998,1079.4501000000014,1077.081400000002,1078.9474999999998,1079.9464999999998,1080.4436000000012,1080.4436000000012,1082.0496000000014,1118,1082.0496000000014,5,1082.0559999999998,4,11,131,0,1,0.8,0.3,Time
,,402658,001,male,25,2025-06-04_13h56.22.529,Serial_Dependence_U,2023.2.3,Win32,163.93442622935177,,,,,,1082.056199999999,56,4,1082.0563000000006,56,,,,1085.7951000000014,1086.291199999999,1085.2921999999992,1085.7949999999998,1083.0568000000005,1085.2921000000013,1086.2913000000005,1086.788400000002,1086.788400000002,1089.2184999999997,2071,1089.2184999999997,5,1089.2256000000014,4,12,132,7,1,1.2,0.7,Time
,,402658,001,male,25,2025-06-04_13h56.22.529,Serial_Dependence_U,2023.2.3,Win32,163.93442622935177,,,,,,1089.225699999999,37,4,1089.2258000000006,37,,,,1092.7643000000005,1093.2604000000022,1092.2606999999991,1092.7643000000005,1090.225,1092.2606999999991,1093.2604000000022,1093.7571000000014,1093.7571000000014,1095.7574999999997,1609,1095.7574999999997,5,1095.7646000000013,4,13,133,16,1,1,0.7,Time
,,402658,001,male,25,2025-06-04_13h56.22.529,Serial_Dependence_U,2023.2.3,Win32,163.93442622935177,,,,,,1095.7648000000006,30,4,1095.7648000000006,30,,,,1099.7034000000021,1100.1989999999998,1099.1998000000006,1099.7033000000006,1096.7641000000012,1099.1998000000006,1100.1991000000014,1100.6961999999992,1100.6961999999992,1102.9931000000013,1943,1102.9931000000013,5,1103.000199999999,4,14,134,8,1,1.4,0.7,Time
,,402658,001,male,25,2025-06-04_13h56.22.529,Serial_Dependence_U,2023.2.3,Win32,163.93442622935177,,,,,,1103.0003000000006,50,4,1103.0004999999999,50,,,,1106.7446000000014,1107.2408000000005,1106.2416999999991,1106.7446000000014,1104.005699999999,1106.2416999999991,1107.240900000002,1107.7378000000006,1107.7378000000006,1109.9801000000014,1798,1109.980199999999,5,1109.9871999999991,4,15,135,17,1,1.2,0.7,Time
,,402658,001,male,25,2025-06-04_13h56.22.529,Serial_Dependence_U,2023.2.3,Win32,163.93442622935177,,,,,,1109.987400000002,26,4,1109.987400000002,26,,,,1113.331699999999,1113.827900000002,1112.8289999999997,1113.331699999999,1110.992900000002,1112.828900000002,1113.8279999999997,1114.3248000000006,1114.3248000000006,1116.5913000000005,1898,1116.5913000000005,5,1116.597199999999,4,16,136,5,1,0.8,0.7,Time
,,402658,001,male,25,2025-06-04_13h56.22.529,Serial_Dependence_U,2023.2.3,Win32,163.93442622935177,,,,,,1116.5974000000022,148,4,1116.5974000000022,148,,,,1120.3374999999999,1120.8331000000012,1119.834199999999,1120.3374999999999,1117.5979999999997,1119.8341000000014,1120.8331999999991,1121.330199999999,1121.330199999999,1123.5908000000006,1918,1123.5908000000006,5,1123.5974999999999,4,17,137,27,1,1.2,0.7,Time
,,402658,001,male,25,2025-06-04_13h56.22.529,Serial_Dependence_U,2023.2.3,Win32,163.93442622935177,,,,,,1123.5976000000012,56,4,1123.5976999999991,56,,,,1127.3666000000012,1127.862699999999,1126.863699999999,1127.3666000000012,1124.5971000000013,1126.8636000000013,1127.8628000000006,1128.36,1128.36,1130.4143000000006,1507,1130.4144000000022,4,1130.4206000000013,4,18,138,12,1,1.2,0.3,Time
,,402658,001,male,25,2025-06-04_13h56.22.529,Serial_Dependence_U,2023.2.3,Win32,163.93442622935177,,,,,,1130.4208000000006,163,4,1130.4208000000006,163,,,,1134.3903000000005,1134.886199999999,1133.8869999999997,1134.3903000000005,1131.4208000000006,1133.8869999999997,1134.8863000000006,1135.3835,1135.3835,1137.8621000000014,2116,1137.8621000000014,5,1137.869,4,19,139,13,1,1.4,0.3,Time
,,402658,001,male,25,2025-06-04_13h56.22.529,Serial_Dependence_U,2023.2.3,Win32,163.93442622935177,,,,,,1137.8691000000013,313,4,1137.8691999999992,313,,,,1141.4444999999998,1141.9401000000014,1140.9411000000014,1141.4444999999998,1138.874199999999,1140.9411000000014,1141.9401000000014,1142.4371000000012,1142.4371000000012,1144.8434999999997,1878,1144.8434999999997,5,1144.8514999999998,4,20,140,11,1,1,0.3,Time
,,402658,001,male,25,2025-06-04_13h56.22.529,Serial_Dependence_U,2023.2.3,Win32,163.93442622935177,,,,,,1144.851699999999,173,4,1144.8518000000006,173,,,,1148.7951000000014,1149.290900000002,1148.2918000000006,1148.7951000000014,1145.8556999999992,1148.2918000000006,1149.2909999999997,1149.7876999999992,1149.7876999999992,1152.206,1915,1152.2061000000012,5,1152.2128000000005,4,21,141,18,1,1.4,0.7,Time
,,402658,001,male,25,2025-06-04_13h56.22.529,Serial_Dependence_U,2023.2.3,Win32,163.93442622935177,,,,,,1152.212900000002,340,4,1152.212900000002,340,,,,1155.5818000000006,1156.0779999999997,1155.0786999999991,1155.5818000000006,1153.2119999999998,1155.0786999999991,1156.0779999999997,1156.5755,1156.5756000000013,1158.9448000000007,1804,1158.944900000002,5,1158.9516000000012,4,22,142,10,1,0.8,0.3,Time
,,402658,001,male,25,2025-06-04_13h56.22.529,Serial_Dependence_U,2023.2.3,Win32,163.93442622935177,,,,,,1158.9516999999992,44,4,1158.9516999999992,44,,,,1163.0901000000013,1163.586199999999,1162.5874999999999,1163.09,1159.9516000000012,1162.5874999999999,1163.586199999999,1164.0833000000005,1164.083400000002,1167.2833000000005,2672,1167.283400000002,5,1167.2899999999997,4,23,143,29,1,1.6,0.7,Time
,,402658,001,male,25,2025-06-04_13h56.22.529,Serial_Dependence_U,2023.2.3,Win32,163.93442622935177,,,,,,1167.2901000000013,238,4,1167.290199999999,238,,,,1170.635199999999,1171.1311999999991,1170.1319000000021,1170.6349999999998,1168.295699999999,1170.1318000000006,1171.1313000000005,1171.6281000000013,1171.628199999999,1173.3129999999999,1219,1173.3129999999999,5,1173.3198000000007,4,24,144,15,1,0.8,0.7,Time
,,402658,001,male,25,2025-06-04_13h56.22.529,Serial_Dependence_U,2023.2.3,Win32,163.93442622935177,,,,,,1173.319900000002,273,4,1173.3199999999997,273,,,,1177.088699999999,1177.5853000000006,1176.5868000000005,1177.088699999999,1174.319699999999,1176.5866999999992,1177.5853000000006,1178.0818000000006,1178.0818000000006,1180.3666999999991,1825,1180.3666999999991,5,1180.373199999999,4,25,145,22,1,1.2,0.3,Time
,,402658,001,male,25,2025-06-04_13h56.22.529,Serial_Dependence_U,2023.2.3,Win32,163.93442622935177,,,,,,1180.3733000000007,207,4,1180.373400000002,207,,,,1184.1428000000005,1184.639,1183.6398000000006,1184.142699999999,1181.3729999999998,1183.6398000000006,1184.639,1185.1356999999991,1185.1356999999991,1187.257400000002,1672,1187.257400000002,5,1187.2641999999992,4,26,146,2,1,1.2,0.3,Time
,,402658,001,male,25,2025-06-04_13h56.22.529,Serial_Dependence_U,2023.2.3,Win32,163.93442622935177,,,,,,1187.264400000002,90,4,1187.2644999999998,90,,,,1191.4384999999997,1191.9351000000013,1190.936199999999,1191.4384999999997,1188.269400000002,1190.9361000000013,1191.9351000000013,1192.431900000002,1192.4319999999998,1194.740900000002,1888,1194.7411000000013,4,1194.7473000000005,4,27,147,24,1,1.6,0.3,Time
,,402658,001,male,25,2025-06-04_13h56.22.529,Serial_Dependence_U,2023.2.3,Win32,163.93442622935177,,,,,,1194.747400000002,180,4,1194.7476000000013,180,,,,1198.3171000000013,1198.8133000000005,1197.8139999999999,1198.3169999999998,1195.7476000000013,1197.8139000000021,1198.8133000000005,1199.3099999999997,1199.3099999999997,1201.7411000000013,1662,1201.7413000000006,5,1201.7489999999998,4,28,148,21,1,1,0.3,Time
,,402658,001,male,25,2025-06-04_13h56.22.529,Serial_Dependence_U,2023.2.3,Win32,163.93442622935177,,,,,,1201.749199999999,343,4,1201.7493000000006,343,,,,1205.2924999999998,1205.788400000002,1204.789199999999,1205.292400000002,1202.752699999999,1204.7891000000013,1205.788400000002,1206.2853000000005,1206.2853000000005,1208.521699999999,1678,1208.521699999999,5,1208.5285,4,29,149,26,1,1,0.7,Time
,,402658,001,male,25,2025-06-04_13h56.22.529,Serial_Dependence_U,2023.2.3,Win32,163.93442622935177,,,,,,1208.5286999999992,332,5,1211.0178000000005,332,s,2.481700000003002,,1214.987699999999,1215.484199999999,1214.4858000000006,1214.9876000000013,1212.0185,1214.485699999999,1215.4843000000005,1215.9811000000013,1215.981199999999,1218.1568000000007,1775,1218.1568000000007,4,1218.1629999999998,5,0,150,3,1,1.4,0.3,Time
,,402658,001,male,25,2025-06-04_13h56.22.529,Serial_Dependence_U,2023.2.3,Win32,163.93442622935177,,,,,,1218.1631000000014,85,5,1218.163900000002,85,,,,1221.533,1222.0288000000005,1221.030199999999,1221.532900000002,1219.1631000000014,1221.0301000000013,1222.028900000002,1222.525699999999,1222.5258000000006,1224.2048000000007,1364,1224.2048000000007,5,1224.2051000000013,5,1,151,0,1,0.8,0.3,Time
,,402658,001,male,25,2025-06-04_13h56.22.529,Serial_Dependence_U,2023.2.3,Win32,163.93442622935177,,,,,,1224.2053000000005,207,5,1224.205400000002,207,,,,1228.344400000002,1228.8401000000013,1227.8413000000005,1228.3443000000007,1225.205,1227.8413000000005,1228.8401000000013,1229.337199999999,1229.337199999999,1231.3856999999991,1972,1231.3858000000005,4,1231.3921000000014,5,2,152,29,1,1.6,0.7,Time
,,402658,001,male,25,2025-06-04_13h56.22.529,Serial_Dependence_U,2023.2.3,Win32,163.93442622935177,,,,,,1231.392199999999,175,5,1231.392400000002,175,,,,1235.331400000002,1235.8274999999999,1234.828199999999,1235.3313000000005,1232.392199999999,1234.8281000000013,1235.8274999999999,1236.3246000000013,1236.3246000000013,1238.324400000002,1593,1238.324400000002,4,1238.3304999999998,5,3,153,28,1,1.4,0.7,Time
,,402658,001,male,25,2025-06-04_13h56.22.529,Serial_Dependence_U,2023.2.3,Win32,163.93442622935177,,,,,,1238.330699999999,72,5,1238.3308000000006,72,,,,1241.8696000000014,1242.3663000000006,1241.3669999999997,1241.8696000000014,1239.3311000000012,1241.3669999999997,1242.3663000000006,1242.863199999999,1242.863199999999,1245.1418000000006,1958,1245.1419000000021,5,1245.148,5,4,154,6,1,1,0.7,Time
,,402658,001,male,25,2025-06-04_13h56.22.529,Serial_Dependence_U,2023.2.3,Win32,163.93442622935177,,,,,,1245.1481999999992,0,5,1245.148400000002,0,,,,1248.487699999999,1248.9836000000014,1247.9844999999998,1248.4876000000013,1246.147699999999,1247.9843000000005,1248.9836000000014,1249.4805,1249.4805,1251.7418000000005,1843,1251.741900000002,5,1251.7479999999998,5,5,155,5,1,0.8,0.7,Time
,,402658,001,male,25,2025-06-04_13h56.22.529,Serial_Dependence_U,2023.2.3,Win32,163.93442622935177,,,,,,1251.7481000000014,162,5,1251.748199999999,162,,,,1255.8928000000005,1256.3888000000006,1255.3899999999999,1255.8928000000005,1252.7531000000013,1255.3899999999999,1256.388900000002,1256.8856999999991,1256.8856999999991,1259.6618000000005,2483,1259.661900000002,5,1259.6686000000013,5,6,156,9,1,1.6,0.7,Time
,,402658,001,male,25,2025-06-04_13h56.22.529,Serial_Dependence_U,2023.2.3,Win32,163.93442622935177,,,,,,1259.6688000000006,301,5,1259.668900000002,301,,,,1263.613199999999,1264.1091000000013,1263.1101999999992,1263.613199999999,1260.674199999999,1263.1101000000012,1264.1091000000013,1264.6063000000006,1264.6063000000006,1266.8911999999991,2139,1266.8913000000005,5,1266.8986000000014,5,7,157,8,1,1.4,0.7,Time
,,402658,001,male,25,2025-06-04_13h56.22.529,Serial_Dependence_U,2023.2.3,Win32,163.93442622935177,,,,,,1266.8988000000006,218,5,1266.8988000000006,218,,,,1270.242699999999,1270.738900000002,1269.739900000002,1270.242699999999,1267.9036000000012,1269.739900000002,1270.7389999999998,1271.2358000000006,1271.235900000002,1273.8359999999998,2107,1273.8359999999998,5,1273.8419999999999,5,8,158,25,1,0.8,0.7,Time
,,402658,001,male,25,2025-06-04_13h56.22.529,Serial_Dependence_U,2023.2.3,Win32,163.93442622935177,,,,,,1273.8421000000012,94,5,1273.8421999999991,94,,,,1277.6116000000013,1278.1078000000005,1277.1088000000007,1277.6114999999998,1274.8421999999991,1277.108699999999,1278.107900000002,1278.605199999999,1278.605199999999,1280.677699999999,1631,1280.6778000000006,5,1280.6846000000014,5,9,159,2,1,1.2,0.3,Time
,,402658,001,male,25,2025-06-04_13h56.22.529,Serial_Dependence_U,2023.2.3,Win32,163.93442622935177,,,,,,1280.684900000002,13,5,1280.684900000002,13,,,,1284.252900000002,1284.7493000000006,1283.7506000000012,1284.252900000002,1281.685199999999,1283.7504999999999,1284.7493000000006,1285.246400000002,1285.2464999999997,1287.4101999999991,2129,1287.4101999999991,5,1287.4173000000005,5,10,160,1,1,1,0.3,Time
,,402658,001,male,25,2025-06-04_13h56.22.529,Serial_Dependence_U,2023.2.3,Win32,163.93442622935177,,,,,,1287.417400000002,135,5,1287.4174999999998,135,,,,1291.3856999999991,1291.8824999999997,1290.8831000000014,1291.3856000000012,1288.4164999999998,1290.8831000000014,1291.8824999999997,1292.3791000000012,1292.3791000000012,1294.3851000000013,1621,1294.3851000000013,4,1294.3919999999998,5,11,161,13,1,1.4,0.3,Time
,,402658,001,male,25,2025-06-04_13h56.22.529,Serial_Dependence_U,2023.2.3,Win32,163.93442622935177,,,,,,1294.3921000000014,279,5,1294.392199999999,279,,,,1297.760900000002,1298.2573000000007,1297.2581000000014,1297.7608000000005,1295.3916000000013,1297.2581000000014,1298.257400000002,1298.7541999999992,1298.7541999999992,1301.317900000002,2098,1301.317900000002,5,1301.3249000000021,5,12,162,10,1,0.8,0.3,Time
,,402658,001,male,25,2025-06-04_13h56.22.529,Serial_Dependence_U,2023.2.3,Win32,163.93442622935177,,,,,,1301.3251000000014,247,5,1301.325199999999,247,,,,1305.069699999999,1305.565400000002,1304.5666999999992,1305.069699999999,1302.330400000002,1304.5666000000012,1305.565400000002,1306.0623000000005,1306.0623000000005,1308.1231000000014,1688,1308.1231000000014,5,1308.129,5,13,163,27,1,1.2,0.7,Time
,,402658,001,male,25,2025-06-04_13h56.22.529,Serial_Dependence_U,2023.2.3,Win32,163.93442622935177,,,,,,1308.1291000000012,45,5,1308.1291000000012,45,,,,1311.6991000000014,1312.1951000000013,1311.196400000002,1311.6989999999998,1309.1296000000013,1311.196400000002,1312.1951000000013,1312.6926999999991,1312.6928000000005,1314.8926000000013,2194,1314.892699999999,5,1314.8991999999992,5,14,164,11,1,1,0.3,Time
,,402658,001,male,25,2025-06-04_13h56.22.529,Serial_Dependence_U,2023.2.3,Win32,163.93442622935177,,,,,,1314.899400000002,354,5,1314.8994999999998,354,,,,1318.6739999999998,1319.1706000000013,1318.1718000000005,1318.6739999999998,1315.9046000000012,1318.1718000000005,1319.1706000000013,1319.6673000000005,1319.667400000002,1321.9279999999999,1792,1321.9281000000012,5,1321.934199999999,5,15,165,12,1,1.2,0.3,Time
,,402658,001,male,25,2025-06-04_13h56.22.529,Serial_Dependence_U,2023.2.3,Win32,163.93442622935177,,,,,,1321.9344000000021,12,5,1321.9344000000021,12,,,,1325.7036000000014,1326.1999999999998,1325.201199999999,1325.7034999999998,1322.9343000000006,1325.2011000000014,1326.1999999999998,1326.6973000000005,1326.6973000000005,1329.3459999999998,2079,1329.3459999999998,5,1329.3533000000007,5,16,166,22,1,1.2,0.3,Time
,,402658,001,male,25,2025-06-04_13h56.22.529,Serial_Dependence_U,2023.2.3,Win32,163.93442622935177,,,,,,1329.3534999999997,351,5,1329.3536000000013,351,,,,1333.3271000000013,1333.8236000000013,1332.8243000000004,1333.3269999999998,1330.3579999999997,1332.824199999999,1333.823699999999,1334.320400000002,1334.320400000002,1336.3511999999992,2000,1336.3511999999992,5,1336.359,5,17,167,23,1,1.4,0.3,Time
,,402658,001,male,25,2025-06-04_13h56.22.529,Serial_Dependence_U,2023.2.3,Win32,163.93442622935177,,,,,,1336.3591000000013,19,5,1336.3591000000013,19,,,,1340.301699999999,1340.798400000002,1339.7993000000006,1340.301699999999,1337.3629000000021,1339.7993000000006,1340.798400000002,1341.2953000000005,1341.295400000002,1343.6711000000014,1940,1343.671199999999,5,1343.6779999999999,5,18,168,18,1,1.4,0.7,Time
,,402658,001,male,25,2025-06-04_13h56.22.529,Serial_Dependence_U,2023.2.3,Win32,163.93442622935177,,,,,,1343.6781999999992,293,5,1343.6781999999992,293,,,,1347.4171000000013,1347.9133000000006,1346.914199999999,1347.4171000000013,1344.6776000000013,1346.9141000000013,1347.9133000000006,1348.4096000000013,1348.4096000000013,1350.8344999999997,2033,1350.8344999999997,5,1350.8419999999999,5,19,169,7,1,1.2,0.7,Time
,,402658,001,male,25,2025-06-04_13h56.22.529,Serial_Dependence_U,2023.2.3,Win32,163.93442622935177,,,,,,1350.8421999999991,28,5,1350.8423000000005,28,,,,1354.1858000000007,1354.6816999999992,1353.6831000000013,1354.185699999999,1351.846400000002,1353.6829999999998,1354.6816999999992,1355.178699999999,1355.1789000000022,1357.293900000002,1644,1357.2939999999999,5,1357.2998000000005,5,20,170,15,1,0.8,0.7,Time
,,402658,001,male,25,2025-06-04_13h56.22.529,Serial_Dependence_U,2023.2.3,Win32,163.93442622935177,,,,,,1357.3001000000013,101,5,1357.3001000000013,101,,,,1361.469900000002,1361.965900000002,1360.966699999999,1361.4698000000005,1358.3004000000021,1360.9666000000013,1361.965900000002,1362.462900000002,1362.4631000000013,1364.9543000000006,2297,1364.9544000000021,5,1364.961199999999,5,21,171,4,1,1.6,0.3,Time
,,402658,001,male,25,2025-06-04_13h56.22.529,Serial_Dependence_U,2023.2.3,Win32,163.93442622935177,,,,,,1364.961400000002,198,5,1364.9615,198,,,,1369.1058000000005,1369.6016000000013,1368.6023000000005,1369.1056999999992,1365.9661000000012,1368.6021999999991,1369.6016000000013,1370.0986000000014,1370.0986000000014,1372.4743000000005,2012,1372.474400000002,4,1372.4813000000006,5,22,172,19,1,1.6,0.7,Time
,,402658,001,male,25,2025-06-04_13h56.22.529,Serial_Dependence_U,2023.2.3,Win32,163.93442622935177,,,,,,1372.481400000002,323,5,1372.4814999999999,323,,,,1376.6558000000005,1377.1525,1376.153199999999,1376.6556999999991,1373.486699999999,1376.153199999999,1377.1525,1377.6491000000012,1377.6491999999992,1379.3584999999998,1693,1379.3584999999998,4,1379.365400000002,5,23,173,14,1,1.6,0.3,Time
,,402658,001,male,25,2025-06-04_13h56.22.529,Serial_Dependence_U,2023.2.3,Win32,163.93442622935177,,,,,,1379.3656000000012,91,5,1379.3656000000012,91,,,,1383.1096000000014,1383.606199999999,1382.607199999999,1383.1094999999998,1380.3708000000006,1382.6071000000013,1383.6063000000006,1384.1031000000014,1384.1031000000014,1386.6484999999998,1914,1386.6484999999998,5,1386.656199999999,5,24,174,17,1,1.2,0.7,Time
,,402658,001,male,25,2025-06-04_13h56.22.529,Serial_Dependence_U,2023.2.3,Win32,163.93442622935177,,,,,,1386.6564999999998,349,5,1386.6564999999998,349,,,,1390.2003000000007,1390.6961999999992,1389.6976000000013,1390.2003000000007,1387.6604999999997,1389.697400000002,1390.6961999999992,1391.193199999999,1391.1933000000006,1394.017400000002,2139,1394.0175,5,1394.0234999999998,5,25,175,16,1,1,0.7,Time
,,402658,001,male,25,2025-06-04_13h56.22.529,Serial_Dependence_U,2023.2.3,Win32,163.93442622935177,,,,,,1394.023699999999,310,5,1394.023699999999,310,,,,1397.3936000000012,1397.8896000000013,1396.8906000000013,1397.3935,1395.024,1396.8906000000013,1397.889699999999,1398.3864999999998,1398.3866000000014,1399.7258000000006,823,1399.725900000002,3,1399.7323000000006,5,26,176,20,1,0.8,0.3,Time
,,402658,001,male,25,2025-06-04_13h56.22.529,Serial_Dependence_U,2023.2.3,Win32,163.93442622935177,,,,,,1399.7324999999998,181,5,1399.7324999999998,181,,,,1403.902699999999,1404.403900000002,1403.3991000000012,1403.9025,1400.732199999999,1403.3991000000012,1404.4039999999998,1404.9009000000021,1404.9009000000021,1407.4099999999999,2196,1407.4101000000012,5,1407.4166000000014,5,27,177,24,1,1.6,0.3,Time
,,402658,001,male,25,2025-06-04_13h56.22.529,Serial_Dependence_U,2023.2.3,Win32,163.93442622935177,,,,,,1407.416900000002,271,5,1407.416900000002,271,,,,1410.9858000000006,1411.4819999999997,1410.483699999999,1410.985699999999,1408.4166000000014,1410.4836000000014,1411.4819999999997,1411.9789999999998,1411.9791000000014,1414.1486000000014,1829,1414.148699999999,5,1414.1549999999997,5,28,178,21,1,1,0.3,Time
,,402658,001,male,25,2025-06-04_13h56.22.529,Serial_Dependence_U,2023.2.3,Win32,163.93442622935177,,,,,,1414.1551000000013,246,5,1414.155199999999,246,,,,1417.6944000000021,1418.1905,1417.191400000002,1417.6943000000006,1415.155199999999,1417.191400000002,1418.1905,1418.6871000000012,1418.6871999999992,1420.5666000000012,1465,1420.5666000000012,5,1420.5729999999999,5,29,179,26,1,1,0.7,Time
,,402658,001,male,25,2025-06-04_13h56.22.529,Serial_Dependence_U,2023.2.3,Win32,163.93442622935177,,,,,,1420.5731000000012,300,6,1446.841900000002,300,s,26.25990000000229,,1450.1816999999992,1450.6779999999999,1449.6791000000012,1450.1816999999992,1447.8428000000006,1449.6789999999999,1450.6781000000012,1451.1751000000013,1451.1751000000013,1453.2053000000005,1643,1453.2053000000005,5,1453.211900000002,6,0,180,15,1,0.8,0.7,Time
,,402658,001,male,25,2025-06-04_13h56.22.529,Serial_Dependence_U,2023.2.3,Win32,163.93442622935177,,,,,,1453.2121000000013,237,6,1453.2128000000005,237,,,,1456.7875,1457.283400000002,1456.2843000000005,1456.787400000002,1454.2179999999998,1456.2841999999991,1457.2834999999998,1457.7804000000021,1457.7804999999998,1459.465400000002,1327,1459.4654999999998,5,1459.465699999999,6,1,181,1,1,1,0.3,Time
,,402658,001,male,25,2025-06-04_13h56.22.529,Serial_Dependence_U,2023.2.3,Win32,163.93442622935177,,,,,,1459.465900000002,65,6,1459.466,65,,,,1463.4043000000006,1463.9009000000021,1462.9019000000021,1463.4043000000006,1460.465699999999,1462.9018000000005,1463.9009000000021,1464.398,1464.398,1466.634400000002,1903,1466.6345,5,1466.6411999999991,6,2,182,8,1,1.4,0.7,Time
,,402658,001,male,25,2025-06-04_13h56.22.529,Serial_Dependence_U,2023.2.3,Win32,163.93442622935177,,,,,,1466.6413000000005,357,6,1466.6413000000005,357,,,,1470.215900000002,1470.712199999999,1469.7133000000006,1470.215900000002,1467.6471000000013,1469.713199999999,1470.712199999999,1471.2093000000007,1471.209400000002,1472.7608000000005,1523,1472.7608000000005,5,1472.768199999999,6,3,183,11,1,1,0.3,Time
,,402658,001,male,25,2025-06-04_13h56.22.529,Serial_Dependence_U,2023.2.3,Win32,163.93442622935177,,,,,,1472.768400000002,92,6,1472.7685,92,,,,1476.5124000000021,1477.0086000000013,1476.009900000002,1476.5124000000021,1473.7733000000005,1476.009900000002,1477.0086000000013,1477.5054999999998,1477.5054999999998,1479.959900000002,2019,1479.959900000002,5,1479.9658000000006,6,4,184,17,1,1.2,0.7,Time
,,402658,001,male,25,2025-06-04_13h56.22.529,Serial_Dependence_U,2023.2.3,Win32,163.93442622935177,,,,,,1479.966,327,6,1479.966,327,,,,1484.136199999999,1484.6321000000014,1483.632900000002,1484.1359999999997,1480.9661999999992,1483.632900000002,1484.632199999999,1485.128900000002,1485.128900000002,1487.662400000002,2034,1487.662400000002,4,1487.669699999999,6,5,185,24,1,1.6,0.3,Time
,,402658,001,male,25,2025-06-04_13h56.22.529,Serial_Dependence_U,2023.2.3,Win32,163.93442622935177,,,,,,1487.6699999999998,278,6,1487.6699999999998,278,,,,1491.213699999999,1491.710199999999,1490.7109999999998,1491.2136000000014,1488.6744000000022,1490.710900000002,1491.710199999999,1492.2071000000012,1492.2071999999991,1494.8859999999997,2127,1494.8861000000013,5,1494.892199999999,6,6,186,6,1,1,0.7,Time
,,402658,001,male,25,2025-06-04_13h56.22.529,Serial_Dependence_U,2023.2.3,Win32,163.93442622935177,,,,,,1494.8925,78,6,1494.8925,78,,,,1498.231199999999,1498.7278000000006,1497.7286000000013,1498.2311000000013,1495.892199999999,1497.7286000000013,1498.7278000000006,1499.2244999999998,1499.2246000000014,1501.969900000002,2252,1501.9701000000014,5,1501.9768000000006,6,7,187,25,1,0.8,0.7,Time
,,402658,001,male,25,2025-06-04_13h56.22.529,Serial_Dependence_U,2023.2.3,Win32,163.93442622935177,,,,,,1501.9768000000006,232,6,1501.9769999999999,232,,,,1505.715900000002,1506.2116999999992,1505.2128000000005,1505.7158000000006,1502.9759999999999,1505.2126000000012,1506.2116999999992,1506.708699999999,1506.7088000000006,1509.2661000000014,2151,1509.2661999999991,5,1509.2728000000006,6,8,188,27,1,1.2,0.7,Time
,,402658,001,male,25,2025-06-04_13h56.22.529,Serial_Dependence_U,2023.2.3,Win32,163.93442622935177,,,,,,1509.273,18,6,1509.273,18,,,,1513.412400000002,1513.913900000002,1512.9091999999991,1513.4123000000006,1510.272400000002,1512.9091999999991,1513.913900000002,1514.4109000000021,1514.4109000000021,1517.156199999999,2417,1517.156199999999,5,1517.1626999999992,6,9,189,19,1,1.6,0.7,Time
,,402658,001,male,25,2025-06-04_13h56.22.529,Serial_Dependence_U,2023.2.3,Win32,163.93442622935177,,,,,,1517.162900000002,82,6,1517.162900000002,82,,,,1520.9319999999998,1521.4281999999992,1520.4294999999997,1520.931900000002,1518.1628000000005,1520.4294999999997,1521.4283000000005,1521.9249999999997,1521.9249999999997,1524.0406000000014,1736,1524.040699999999,5,1524.0473000000006,6,10,190,22,1,1.2,0.3,Time
,,402658,001,male,25,2025-06-04_13h56.22.529,Serial_Dependence_U,2023.2.3,Win32,163.93442622935177,,,,,,1524.047400000002,167,6,1524.0475,167,,,,1527.3921000000014,1527.888,1526.8891999999992,1527.3919999999998,1525.0529999999999,1526.8891999999992,1527.8881000000013,1528.384900000002,1528.384900000002,1530.5549000000021,1611,1530.5549000000021,5,1530.5611000000013,6,11,191,5,1,0.8,0.7,Time
,,402658,001,male,25,2025-06-04_13h56.22.529,Serial_Dependence_U,2023.2.3,Win32,163.93442622935177,,,,,,1530.561199999999,70,6,1530.5613000000005,70,,,,1533.924900000002,1534.4211000000014,1533.422400000002,1533.924900000002,1531.561,1533.4223000000006,1534.4211000000014,1534.9176000000014,1534.9176000000014,1536.1481000000013,838,1536.1481999999992,3,1536.153900000002,6,12,192,0,1,0.8,0.3,Time
,,402658,001,male,25,2025-06-04_13h56.22.529,Serial_Dependence_U,2023.2.3,Win32,163.93442622935177,,,,,,1536.1541000000013,101,6,1536.1541000000013,101,,,,1540.0936000000013,1540.5898000000007,1539.591,1540.0934999999997,1537.155199999999,1539.590900000002,1540.589900000002,1541.0866999999992,1541.0866999999992,1543.2566000000013,1757,1543.2566000000013,4,1543.263400000002,6,13,193,28,1,1.4,0.7,Time
,,402658,001,male,25,2025-06-04_13h56.22.529,Serial_Dependence_U,2023.2.3,Win32,163.93442622935177,,,,,,1543.2634999999998,160,6,1543.2636000000014,160,,,,1547.2324000000021,1547.728400000002,1546.7295,1547.2323000000006,1544.2631000000013,1546.7295,1547.728400000002,1548.2269000000022,1548.2269999999999,1550.4743000000005,1771,1550.474400000002,4,1550.4814999999999,6,14,194,3,1,1.4,0.3,Time
,,402658,001,male,25,2025-06-04_13h56.22.529,Serial_Dependence_U,2023.2.3,Win32,163.93442622935177,,,,,,1550.4816999999991,121,6,1550.4816999999991,121,,,,1553.8559999999998,1554.3521000000012,1553.3533000000007,1553.8559999999998,1551.486699999999,1553.3533000000007,1554.3521000000012,1554.8491000000013,1554.8491000000013,1556.2369999999999,989,1556.2371000000014,4,1556.243900000002,6,15,195,10,1,0.8,0.3,Time
,,402658,001,male,25,2025-06-04_13h56.22.529,Serial_Dependence_U,2023.2.3,Win32,163.93442622935177,,,,,,1556.244,132,6,1556.244,132,,,,1559.6133000000007,1560.1091000000013,1559.109900000002,1559.6131000000014,1557.2433000000005,1559.109900000002,1560.1091000000013,1560.6061000000013,1560.6061000000013,1561.872699999999,903,1561.872699999999,4,1561.8791999999992,6,16,196,20,1,0.8,0.3,Time
,,402658,001,male,25,2025-06-04_13h56.22.529,Serial_Dependence_U,2023.2.3,Win32,163.93442622935177,,,,,,1561.8793000000005,188,6,1561.879400000002,188,,,,1565.618900000002,1566.1146000000012,1565.1153000000006,1565.618699999999,1562.8793000000005,1565.1153000000006,1566.1146999999992,1566.6116000000013,1566.6116000000013,1568.8964000000021,1864,1568.8964999999998,5,1568.902900000002,6,17,197,7,1,1.2,0.7,Time
,,402658,001,male,25,2025-06-04_13h56.22.529,Serial_Dependence_U,2023.2.3,Win32,163.93442622935177,,,,,,1568.903199999999,356,6,1568.903199999999,356,,,,1572.841699999999,1573.3379999999997,1572.3389999999997,1572.841699999999,1569.902900000002,1572.3389999999997,1573.3381000000013,1573.835400000002,1573.835400000002,1575.9381000000012,1789,1575.9381999999991,4,1575.945699999999,6,18,198,18,1,1.4,0.7,Time
,,402658,001,male,25,2025-06-04_13h56.22.529,Serial_Dependence_U,2023.2.3,Win32,163.93442622935177,,,,,,1575.9458000000006,336,6,1575.9458000000006,336,,,,1579.5196999999991,1580.0163000000005,1579.0166000000013,1579.5196999999991,1576.950400000002,1579.0164999999997,1580.0163000000005,1580.513400000002,1580.513400000002,1582.749400000002,1810,1582.749400000002,5,1582.755400000002,6,19,199,21,1,1,0.3,Time
,,402658,001,male,25,2025-06-04_13h56.22.529,Serial_Dependence_U,2023.2.3,Win32,163.93442622935177,,,,,,1582.755699999999,41,6,1582.755699999999,41,,,,1586.8953000000006,1587.3913000000005,1586.3921000000014,1586.895199999999,1583.7561000000012,1586.3919999999998,1587.3913000000005,1587.888,1587.888,1590.287900000002,1987,1590.287900000002,4,1590.2934999999998,6,20,200,29,1,1.6,0.7,Time
,,402658,001,male,25,2025-06-04_13h56.22.529,Serial_Dependence_U,2023.2.3,Win32,163.93442622935177,,,,,,1590.2936000000013,356,6,1590.293699999999,356,,,,1594.463699999999,1594.9603000000006,1593.9609999999998,1594.463699999999,1591.2944999999997,1593.960900000002,1594.960400000002,1595.4573000000005,1595.4573000000005,1597.3418000000006,1527,1597.3418000000006,3,1597.3486000000014,6,21,201,4,1,1.6,0.3,Time
,,402658,001,male,25,2025-06-04_13h56.22.529,Serial_Dependence_U,2023.2.3,Win32,163.93442622935177,,,,,,1597.348699999999,16,6,1597.3488000000007,16,,,,1601.118199999999,1601.613900000002,1600.6148000000005,1601.118199999999,1598.3484000000021,1600.6146999999992,1601.613900000002,1602.1111000000012,1602.1111000000012,1604.3351000000014,1852,1604.335199999999,5,1604.3418000000006,6,22,202,2,1,1.2,0.3,Time
,,402658,001,male,25,2025-06-04_13h56.22.529,Serial_Dependence_U,2023.2.3,Win32,163.93442622935177,,,,,,1604.3419999999999,145,6,1604.3421000000012,145,,,,1608.4806999999992,1608.9768000000006,1607.9778000000006,1608.4805,1605.341699999999,1607.9778000000006,1608.9768000000006,1609.4738000000007,1609.473900000002,1611.7176000000013,1834,1611.717699999999,4,1611.725699999999,6,23,203,9,1,1.6,0.7,Time
,,402658,001,male,25,2025-06-04_13h56.22.529,Serial_Dependence_U,2023.2.3,Win32,163.93442622935177,,,,,,1611.725900000002,25,6,1611.7259999999999,25,,,,1615.267699999999,1615.7641000000012,1614.7649999999999,1615.267699999999,1612.7286000000013,1614.7648000000006,1615.7641000000012,1616.2609999999997,1616.2611000000013,1619.0546000000013,2132,1619.054699999999,5,1619.0598000000005,6,24,204,26,1,1,0.7,Time
,,402658,001,male,25,2025-06-04_13h56.22.529,Serial_Dependence_U,2023.2.3,Win32,163.93442622935177,,,,,,1619.059900000002,207,6,1619.0599999999997,207,,,,1623.0244999999998,1623.5209999999997,1622.5219999999997,1623.0244999999998,1620.060699999999,1622.521900000002,1623.5209999999997,1624.0178000000005,1624.017900000002,1626.4904999999999,1988,1626.4906000000012,5,1626.4974999999997,6,25,205,13,1,1.4,0.3,Time
,,402658,001,male,25,2025-06-04_13h56.22.529,Serial_Dependence_U,2023.2.3,Win32,163.93442622935177,,,,,,1626.497699999999,124,6,1626.4978000000006,124,,,,1630.673400000002,1631.1744999999999,1630.1693000000005,1630.673400000002,1627.503,1630.1691999999991,1631.1744999999999,1631.671400000002,1631.671400000002,1642.337199999999,1527,1642.337199999999,3,1642.3438000000006,6,26,206,14,1,1.6,0.3,Time
,,402658,001,male,25,2025-06-04_13h56.22.529,Serial_Dependence_U,2023.2.3,Win32,163.93442622935177,,,,,,1642.3441000000014,141,6,1642.3441000000014,141,,,,1646.3128000000006,1646.808900000002,1645.8108000000007,1646.312699999999,1643.3439000000021,1645.810699999999,1646.808900000002,1647.3061000000014,1647.306199999999,1649.725,1959,1649.725,5,1649.731400000002,6,27,207,23,1,1.4,0.3,Time
,,402658,001,male,25,2025-06-04_13h56.22.529,Serial_Dependence_U,2023.2.3,Win32,163.93442622935177,,,,,,1649.7316000000012,264,6,1649.7316000000012,264,,,,1653.2703000000006,1653.7661999999991,1652.7671000000014,1653.2701000000013,1650.7308000000005,1652.7669999999998,1653.7663000000005,1654.263199999999,1654.2633000000005,1656.373199999999,1663,1656.373199999999,5,1656.3801000000012,6,28,208,16,1,1,0.7,Time
,,402658,001,male,25,2025-06-04_13h56.22.529,Serial_Dependence_U,2023.2.3,Win32,163.93442622935177,,,,,,1656.3801999999991,208,6,1656.3803000000005,208,,,,1660.1536999999992,1660.6499999999999,1659.6511000000014,1660.1536999999992,1657.3849999999998,1659.6509999999998,1660.6501000000012,1661.1468000000007,1661.1468000000007,1663.4444999999998,1960,1663.4444999999998,5,1663.4526000000012,6,29,209,12,1,1.2,0.3,Time
,,402658,001,male,25,2025-06-04_13h56.22.529,Serial_Dependence_U,2023.2.3,Win32,163.93442622935177,,,,,,1663.4526999999991,224,7,1712.8953000000006,224,s,49.42559999999776,0.0006999999993695383,1716.869400000002,1717.3659999999998,1716.366900000002,1716.8693000000005,1713.9001000000012,1716.3668000000005,1717.3661000000013,1717.862699999999,1717.862699999999,1719.9723000000006,1590,1719.9724000000022,4,1719.9793000000006,7,0,210,23,1,1.4,0.3,Time
,,402658,001,male,25,2025-06-04_13h56.22.529,Serial_Dependence_U,2023.2.3,Win32,163.93442622935177,,,,,,1719.9795,229,7,1719.9803000000006,229,,,,1723.9536999999991,1724.4499000000021,1723.4515,1723.9536000000014,1720.984400000002,1723.4515,1724.4499000000021,1724.946699999999,1724.946699999999,1726.916900000002,1593,1726.916900000002,4,1726.9173000000005,7,1,211,13,1,1.4,0.3,Time
,,402658,001,male,25,2025-06-04_13h56.22.529,Serial_Dependence_U,2023.2.3,Win32,163.93442622935177,,,,,,1726.9176000000014,253,7,1726.917699999999,253,,,,1730.8558000000005,1731.3521999999991,1730.3529999999998,1730.8556999999992,1727.916699999999,1730.3529000000021,1731.3521999999991,1731.849199999999,1731.8493000000005,1734.0858000000005,1810,1734.0858000000005,4,1734.0931999999991,7,2,212,28,1,1.4,0.7,Time
,,402658,001,male,25,2025-06-04_13h56.22.529,Serial_Dependence_U,2023.2.3,Win32,163.93442622935177,,,,,,1734.093400000002,15,7,1734.093400000002,15,,,,1737.4674999999997,1737.963699999999,1736.9646000000014,1737.4674999999997,1735.0979999999997,1736.9644999999998,1737.963699999999,1738.4606999999992,1738.4606999999992,1740.521199999999,1563,1740.521199999999,5,1740.5278000000005,7,3,213,20,1,0.8,0.3,Time
,,402658,001,male,25,2025-06-04_13h56.22.529,Serial_Dependence_U,2023.2.3,Win32,163.93442622935177,,,,,,1740.527900000002,10,7,1740.5279999999998,10,,,,1744.6968000000006,1745.1929999999998,1744.193900000002,1744.6968000000006,1741.527699999999,1744.1938000000005,1745.1929999999998,1745.6903000000007,1745.6903000000007,1748.0294999999999,1917,1748.0296000000012,4,1748.0364999999997,7,4,214,4,1,1.6,0.3,Time
,,402658,001,male,25,2025-06-04_13h56.22.529,Serial_Dependence_U,2023.2.3,Win32,163.93442622935177,,,,,,1748.0366000000013,118,7,1748.036699999999,118,,,,1751.7751000000012,1752.2709999999997,1751.2724999999998,1751.7749999999999,1749.0359000000021,1751.2724999999998,1752.2711000000013,1752.7681000000014,1752.7681000000014,1754.925699999999,1740,1754.9258000000007,5,1754.933199999999,7,5,215,7,1,1.2,0.7,Time
,,402658,001,male,25,2025-06-04_13h56.22.529,Serial_Dependence_U,2023.2.3,Win32,163.93442622935177,,,,,,1754.9333000000006,269,7,1754.933400000002,269,,,,1758.4778000000006,1758.973699999999,1757.9746000000014,1758.4778000000006,1755.9389000000021,1757.9744999999998,1758.973699999999,1759.470400000002,1759.4705,1761.507400000002,1587,1761.507400000002,5,1761.5136000000014,7,6,216,16,1,1,0.7,Time
,,402658,001,male,25,2025-06-04_13h56.22.529,Serial_Dependence_U,2023.2.3,Win32,163.93442622935177,,,,,,1761.5138000000006,344,7,1761.513900000002,344,,,,1765.458400000002,1765.954699999999,1764.956,1765.4583000000005,1762.519199999999,1764.956,1765.9548000000007,1766.4518000000005,1766.451900000002,1768.773,1978,1768.773,5,1768.7804000000021,7,7,217,8,1,1.4,0.7,Time
,,402658,001,male,25,2025-06-04_13h56.22.529,Serial_Dependence_U,2023.2.3,Win32,163.93442622935177,,,,,,1768.7804999999998,227,7,1768.7806000000014,227,,,,1772.3546000000013,1772.8509999999999,1771.851699999999,1772.3546000000013,1769.7851000000012,1771.8516000000013,1772.8509999999999,1773.3476999999991,1773.3476999999991,1775.3298000000007,1503,1775.329900000002,5,1775.3363000000006,7,8,218,1,1,1,0.3,Time
,,402658,001,male,25,2025-06-04_13h56.22.529,Serial_Dependence_U,2023.2.3,Win32,163.93442622935177,,,,,,1775.336400000002,245,7,1775.3365,245,,,,1779.4753000000005,1779.971400000002,1778.9724999999999,1779.4751999999992,1776.336199999999,1778.9724000000022,1779.9716000000012,1780.4686000000013,1780.4686000000013,1782.7718000000007,2004,1782.7718000000007,4,1782.7801000000013,7,9,219,19,1,1.6,0.7,Time
,,402658,001,male,25,2025-06-04_13h56.22.529,Serial_Dependence_U,2023.2.3,Win32,163.93442622935177,,,,,,1782.780199999999,222,7,1782.7803000000006,222,,,,1786.353699999999,1786.8496000000014,1785.8504999999998,1786.353699999999,1783.7839999999999,1785.8504999999998,1786.8496000000014,1787.3466999999991,1787.3466999999991,1789.564400000002,1386,1789.5644999999997,5,1789.5704999999998,7,10,220,11,1,1,0.3,Time
,,402658,001,male,25,2025-06-04_13h56.22.529,Serial_Dependence_U,2023.2.3,Win32,163.93442622935177,,,,,,1789.570699999999,151,7,1789.570699999999,151,,,,1793.3404999999998,1793.8366999999992,1792.8378000000005,1793.3404999999998,1790.570900000002,1792.8376999999991,1793.8368000000005,1794.3336000000013,1794.333699999999,1796.460900000002,1727,1796.4609999999998,5,1796.4676000000013,7,11,221,22,1,1.2,0.3,Time
,,402658,001,male,25,2025-06-04_13h56.22.529,Serial_Dependence_U,2023.2.3,Win32,163.93442622935177,,,,,,1796.4679000000021,215,7,1796.4679000000021,215,,,,1800.2066000000013,1800.7026999999991,1799.7036999999991,1800.206400000002,1797.4676000000013,1799.7036000000014,1800.7026999999991,1801.1998000000006,1801.1998000000006,1803.2239999999997,1604,1803.2239999999997,5,1803.232900000002,7,12,222,27,1,1.2,0.7,Time
,,402658,001,male,25,2025-06-04_13h56.22.529,Serial_Dependence_U,2023.2.3,Win32,163.93442622935177,,,,,,1803.2329999999997,326,7,1803.2331000000013,326,,,,1806.7754999999997,1807.271699999999,1806.2733000000005,1806.775400000002,1804.2366000000013,1806.2733000000005,1807.2718000000007,1807.7685,1807.7685,1809.9263000000005,1805,1809.9263000000005,5,1809.9323000000006,7,13,223,26,1,1,0.7,Time
,,402658,001,male,25,2025-06-04_13h56.22.529,Serial_Dependence_U,2023.2.3,Win32,163.93442622935177,,,,,,1809.9325,120,7,1809.9325,120,,,,1813.872199999999,1814.367900000002,1813.368199999999,1813.8721000000014,1810.9329999999998,1813.3681000000013,1814.3679999999997,1814.865199999999,1814.8653000000006,1817.4466000000014,2168,1817.4468000000006,5,1817.454699999999,7,14,224,18,1,1.4,0.7,Time
,,402658,001,male,25,2025-06-04_13h56.22.529,Serial_Dependence_U,2023.2.3,Win32,163.93442622935177,,,,,,1817.4548000000007,184,7,1817.454900000002,184,,,,1821.2286000000013,1821.7253000000005,1820.7258000000006,1821.2286000000013,1818.459199999999,1820.7258000000006,1821.725400000002,1822.221199999999,1822.221199999999,1824.912900000002,2335,1824.9129999999998,5,1824.9199999999998,7,15,225,2,1,1.2,0.3,Time
,,402658,001,male,25,2025-06-04_13h56.22.529,Serial_Dependence_U,2023.2.3,Win32,163.93442622935177,,,,,,1824.9199999999998,291,7,1824.9201000000014,291,,,,1828.8939999999998,1829.390699999999,1828.3914999999997,1828.893900000002,1825.9249999999997,1828.391400000002,1829.390699999999,1829.8876000000014,1829.8876000000014,1833.117699999999,2856,1833.117699999999,5,1833.1261000000013,7,16,226,3,1,1.4,0.3,Time
,,402658,001,male,25,2025-06-04_13h56.22.529,Serial_Dependence_U,2023.2.3,Win32,163.93442622935177,,,,,,1833.1263000000006,192,7,1833.1263000000006,192,,,,1836.4693000000007,1836.965900000002,1835.9668000000006,1836.469199999999,1834.1301999999991,1835.966699999999,1836.966,1837.4626000000012,1837.4626000000012,1839.1776000000013,1333,1839.177699999999,5,1839.184199999999,7,17,227,15,1,0.8,0.7,Time
,,402658,001,male,25,2025-06-04_13h56.22.529,Serial_Dependence_U,2023.2.3,Win32,163.93442622935177,,,,,,1839.1844000000021,336,7,1839.1844000000021,336,,,,1842.5233000000005,1843.019400000002,1842.0203000000006,1842.5231999999992,1840.1841000000013,1842.0203000000006,1843.0194999999999,1843.5168000000006,1843.5169000000021,1845.244,1284,1845.244,5,1845.251900000002,7,18,228,5,1,0.8,0.7,Time
,,402658,001,male,25,2025-06-04_13h56.22.529,Serial_Dependence_U,2023.2.3,Win32,163.93442622935177,,,,,,1845.2519999999997,67,7,1845.2521000000013,67,,,,1849.4256000000014,1849.9218000000005,1848.922900000002,1849.4256000000014,1846.2559000000022,1848.922900000002,1849.9218000000005,1850.418900000002,1850.4189999999999,1852.3521999999991,1529,1852.3521999999991,3,1852.358900000002,7,19,229,14,1,1.6,0.3,Time
,,402658,001,male,25,2025-06-04_13h56.22.529,Serial_Dependence_U,2023.2.3,Win32,163.93442622935177,,,,,,1852.359,288,7,1852.359199999999,288,,,,1855.7286000000013,1856.2303000000006,1855.225400000002,1855.7284999999997,1853.3586000000014,1855.2253000000005,1856.2303000000006,1856.7269999999999,1856.7271000000012,1858.600400000002,1459,1858.6004999999998,5,1858.6071000000013,7,20,230,0,1,0.8,0.3,Time
,,402658,001,male,25,2025-06-04_13h56.22.529,Serial_Dependence_U,2023.2.3,Win32,163.93442622935177,,,,,,1858.607199999999,239,7,1858.6073000000006,239,,,,1862.745900000002,1863.2416000000012,1862.2426000000014,1862.745900000002,1859.606400000002,1862.2426000000014,1863.2416000000012,1863.7384999999997,1863.7384999999997,1866.090400000002,1643,1866.090400000002,3,1866.0969999999998,7,21,231,9,1,1.6,0.7,Time
,,402658,001,male,25,2025-06-04_13h56.22.529,Serial_Dependence_U,2023.2.3,Win32,163.93442622935177,,,,,,1866.097199999999,320,7,1866.097199999999,320,,,,1869.4416999999992,1869.937900000002,1868.939400000002,1869.4416999999992,1867.1028000000006,1868.9393000000005,1869.9379999999999,1870.4351000000013,1870.4351000000013,1872.337900000002,1467,1872.337900000002,5,1872.345900000002,7,22,232,25,1,0.8,0.7,Time
,,402658,001,male,25,2025-06-04_13h56.22.529,Serial_Dependence_U,2023.2.3,Win32,163.93442622935177,,,,,,1872.3461000000013,239,7,1872.346199999999,239,,,,1876.089699999999,1876.5858000000005,1875.586900000002,1876.0896000000014,1873.350400000002,1875.5868000000005,1876.5858000000005,1877.082699999999,1877.082699999999,1879.3676000000014,1727,1879.367699999999,5,1879.374900000002,7,23,233,17,1,1.2,0.7,Time
,,402658,001,male,25,2025-06-04_13h56.22.529,Serial_Dependence_U,2023.2.3,Win32,163.93442622935177,,,,,,1879.3751000000013,110,7,1879.375199999999,110,,,,1882.949699999999,1883.4458000000006,1882.446,1882.949699999999,1880.379900000002,1882.445900000002,1883.4458000000006,1883.9428000000005,1883.9428000000005,1886.2641999999992,1748,1886.2643000000005,5,1886.272199999999,7,24,234,21,1,1,0.3,Time
,,402658,001,male,25,2025-06-04_13h56.22.529,Serial_Dependence_U,2023.2.3,Win32,163.93442622935177,,,,,,1886.272400000002,287,7,1886.272400000002,287,,,,1890.045699999999,1890.5418000000006,1889.542900000002,1890.045699999999,1887.2768000000005,1889.5428000000006,1890.5418000000006,1891.0386999999992,1891.0386999999992,1893.359900000002,1807,1893.359900000002,5,1893.3674000000021,7,25,235,12,1,1.2,0.3,Time
,,402658,001,male,25,2025-06-04_13h56.22.529,Serial_Dependence_U,2023.2.3,Win32,163.93442622935177,,,,,,1893.367699999999,319,7,1893.367699999999,319,,,,1897.5118000000004,1898.0078000000005,1897.0086999999992,1897.511699999999,1894.3723000000005,1897.0086000000013,1898.0078000000005,1898.504900000002,1898.504900000002,1901.5468000000005,2638,1901.5468000000005,5,1901.5526000000013,7,26,236,29,1,1.6,0.7,Time
,,402658,001,male,25,2025-06-04_13h56.22.529,Serial_Dependence_U,2023.2.3,Win32,163.93442622935177,,,,,,1901.552699999999,291,7,1901.5528000000006,291,,,,1905.7226000000012,1906.219199999999,1905.2201000000014,1905.7224000000022,1902.553400000002,1905.2199999999998,1906.219199999999,1906.7163000000005,1906.7163000000005,1908.4008000000006,1669,1908.4008000000006,3,1908.4076000000014,7,27,237,24,1,1.6,0.3,Time
,,402658,001,male,25,2025-06-04_13h56.22.529,Serial_Dependence_U,2023.2.3,Win32,163.93442622935177,,,,,,1908.4078000000006,223,7,1908.4078000000006,223,,,,1911.946400000002,1912.4426999999991,1911.4434999999999,1911.9461999999992,1909.4074999999998,1911.4434999999999,1912.4426999999991,1912.9398000000006,1912.9398000000006,1915.5879999999997,2187,1915.5879999999997,5,1915.595199999999,7,28,238,6,1,1,0.7,Time
,,402658,001,male,25,2025-06-04_13h56.22.529,Serial_Dependence_U,2023.2.3,Win32,163.93442622935177,,,,,,1915.595400000002,106,7,1915.5955,106,,,,1918.964199999999,1919.460199999999,1918.461199999999,1918.9641000000013,1916.5946000000013,1918.4611000000014,1919.460199999999,1919.9569999999999,1919.9569999999999,1921.9146999999991,1550,1921.9148000000005,5,1921.921199999999,7,29,239,10,1,0.8,0.3,Time
,,402658,001,male,25,2025-06-04_13h56.22.529,Serial_Dependence_U,2023.2.3,Win32,163.93442622935177,,,,,,1921.921400000002,126,8,2141.2689000000023,126,s,219.33490000000234,,2144.6438000000007,2145.1396000000013,2144.1408000000006,2144.6438000000007,2142.274300000001,2144.1408000000006,2145.1396999999993,2145.6365,2145.6366000000016,2147.4731999999995,1426,2147.4731999999995,5,2147.4738000000007,8,0,240,0,1,0.8,0.3,Time
,,402658,001,male,25,2025-06-04_13h56.22.529,Serial_Dependence_U,2023.2.3,Win32,163.93442622935177,,,,,,2147.4751999999994,169,8,2147.477900000002,169,,,,2150.849,2151.3450000000003,2150.346400000002,2150.849,2148.4794000000024,2150.346400000002,2151.3450000000003,2151.8426999999992,2151.8426999999992,2153.4966999999992,1219,2153.4969000000024,5,2153.497,8,1,241,10,1,0.8,0.3,Time
,,402658,001,male,25,2025-06-04_13h56.22.529,Serial_Dependence_U,2023.2.3,Win32,163.93442622935177,,,,,,2153.4976000000015,178,8,2153.4976999999994,178,,,,2157.6726000000017,2158.1686000000013,2157.1696999999995,2157.6725,2154.5031000000017,2157.1696000000015,2158.1686000000013,2158.6656000000016,2158.665699999999,2160.9023000000007,1698,2160.9023000000007,4,2160.9094000000023,8,2,242,14,1,1.6,0.3,Time
,,402658,001,male,25,2025-06-04_13h56.22.529,Serial_Dependence_U,2023.2.3,Win32,163.93442622935177,,,,,,2160.9096000000013,104,8,2160.9096000000013,104,,,,2164.684300000001,2165.1801000000014,2164.180900000002,2164.6841999999992,2161.9146999999994,2164.180800000001,2165.1801000000014,2165.677199999999,2165.677199999999,2167.4529000000025,1405,2167.453,4,2167.4606000000017,8,3,243,12,1,1.2,0.3,Time
,,402658,001,male,25,2025-06-04_13h56.22.529,Serial_Dependence_U,2023.2.3,Win32,163.93442622935177,,,,,,2167.4609000000023,290,8,2167.4610000000002,290,,,,2171.6346000000017,2172.1309000000024,2171.1314000000025,2171.6346000000017,2168.465800000001,2171.1314000000025,2172.1309000000024,2172.628,2172.628,2174.6945,1692,2174.6945,4,2174.7015,8,4,244,24,1,1.6,0.3,Time
,,402658,001,male,25,2025-06-04_13h56.22.529,Serial_Dependence_U,2023.2.3,Win32,163.93442622935177,,,,,,2174.7018000000007,40,8,2174.7018000000007,40,,,,2178.646199999999,2179.142300000001,2178.143,2178.646199999999,2175.707,2178.143,2179.142300000001,2179.639199999999,2179.639199999999,2182.0394000000024,2035,2182.0395,5,2182.046800000001,8,5,245,8,1,1.4,0.7,Time
,,402658,001,male,25,2025-06-04_13h56.22.529,Serial_Dependence_U,2023.2.3,Win32,163.93442622935177,,,,,,2182.046900000002,35,8,2182.047,35,,,,2185.791,2186.2869000000023,2185.2881999999995,2185.791,2183.051699999999,2185.2881999999995,2186.2870000000003,2186.7838000000006,2186.783900000002,2189.2686000000017,1993,2189.268699999999,5,2189.2746000000016,8,6,246,7,1,1.2,0.7,Time
,,402658,001,male,25,2025-06-04_13h56.22.529,Serial_Dependence_U,2023.2.3,Win32,163.93442622935177,,,,,,2189.2748000000006,20,8,2189.274900000002,20,,,,2193.2444000000023,2193.7406999999994,2192.7416000000017,2193.2443000000007,2190.275,2192.7415,2193.740800000001,2194.237699999999,2194.237699999999,2196.474,1769,2196.4741000000017,4,2196.4806000000017,8,7,247,13,1,1.4,0.3,Time
,,402658,001,male,25,2025-06-04_13h56.22.529,Serial_Dependence_U,2023.2.3,Win32,163.93442622935177,,,,,,2196.480699999999,145,8,2196.4808000000007,145,,,,2199.849199999999,2200.3461999999995,2199.3471999999992,2199.849199999999,2197.4809000000023,2199.3471999999992,2200.3461999999995,2200.8429000000024,2200.843,2202.8671999999992,1563,2202.8671999999992,5,2202.8736000000017,8,8,248,20,1,0.8,0.3,Time
,,402658,001,male,25,2025-06-04_13h56.22.529,Serial_Dependence_U,2023.2.3,Win32,163.93442622935177,,,,,,2202.8738000000008,170,8,2202.8738000000008,170,,,,2206.6125,2207.109,2206.1098000000006,2206.6125,2203.8736000000017,2206.1096999999995,2207.109,2207.6059000000023,2207.606,2209.787900000002,1715,2209.787900000002,5,2209.795,8,9,249,27,1,1.2,0.7,Time
