Scale_setup.started,Scale_setup.stopped,participant,session,sex,age,date,expName,psychopyVersion,OS,frameRate,Intro.started,Intro.stopped,key_resp_2.keys,key_resp_2.rt,key_resp_2.duration,block.started,direction,Block_id,block.stopped,trial_direction,Block_resp_2.keys,Block_resp_2.rt,Block_resp_2.duration,ITI.started,ITI.stopped,Mask_2.started,Mask_2.stopped,encoding.started,encoding.stopped,Cue.started,Cue.stopped,Response.started,Response.stopped,keyDuration,Feedback_Time.started,FeedbackID_T,Feedback_Time.stopped,trials.thisRepN,trials.thisTrialN,trials.thisN,trials.thisIndex,trials.ran,TimeDur,Coherence1,TrialType
0.0002000000029624971,0.0002999999970256795,409,001,女,22,2025-06-03_23h00.04.697,Serial_Dependence_U,2023.2.3,Win32,90.09009009027906,,,,,,,,,,,,,,,,,,,,,,,,,,,,,,,,,,,
,,409,001,女,22,2025-06-03_23h00.04.697,Serial_Dependence_U,2023.2.3,Win32,90.09009009027906,20.479099999994048,111.37909999999403,space,90.87279999999697,,,,,,,,,,,,,,,,,,,,,,,,,,,,,,,
,,409,001,女,22,2025-06-03_23h00.04.697,Serial_Dependence_U,2023.2.3,Win32,90.09009009027906,,,,,,111.38389999999106,149,0,116.72329999999704,149,s,5.32289999999108,,120.91250000000002,121.412200000003,120.4015,120.91239999999107,117.734799999997,120.40139999999104,121.41239999999107,121.912299999997,121.91250000000002,125.10129999999702,2576,125.10149999999999,5,126.10120000000296,0,0,0,14,1,1.6,0.3,Time
,,409,001,女,22,2025-06-03_23h00.04.697,Serial_Dependence_U,2023.2.3,Win32,90.09009009027906,,,,,,126.10149999999999,47,0,126.10409999999405,47,,,,130.25689999999105,130.75670000000298,129.74589999999108,130.25689999999105,127.11250000000001,129.74579999999702,130.75670000000298,131.25670000000298,131.25679999999704,135.51239999999103,3300,135.51239999999103,5,136.51239999999103,0,1,1,19,1,1.6,0.7,Time
,,409,001,女,22,2025-06-03_23h00.04.697,Serial_Dependence_U,2023.2.3,Win32,90.09009009027906,,,,,,136.512700000003,299,0,136.512700000003,299,,,,140.46809999999402,140.96789999999106,139.95709999999406,140.46809999999402,137.52370000000298,139.957,140.96789999999106,141.46789999999106,141.46789999999106,144.24570000000296,2511,144.24579999999702,5,145.24570000000296,0,2,2,28,1,1.4,0.7,Time
,,409,001,女,22,2025-06-03_23h00.04.697,Serial_Dependence_U,2023.2.3,Win32,90.09009009027906,,,,,,145.24599999999998,90,0,145.24609999999404,90,,,,148.635,149.13459999999407,148.12389999999107,148.63489999999103,146.25689999999105,148.12389999999107,149.13459999999407,149.6345,149.6345,151.0235,1167,151.02359999999402,5,152.0235,0,3,3,20,1,0.8,0.3,Time
,,409,001,女,22,2025-06-03_23h00.04.697,Serial_Dependence_U,2023.2.3,Win32,90.09009009027906,,,,,,152.02379999999704,73,0,152.02389999999104,73,,,,155.6013999999911,156.1015,155.090299999997,155.60129999999702,153.02379999999704,155.090299999997,156.1015,156.60129999999702,156.60129999999702,157.03459999999404,79,157.034700000003,1,158.03459999999404,0,4,4,11,1,1,0.3,Time
,,409,001,女,22,2025-06-03_23h00.04.697,Serial_Dependence_U,2023.2.3,Win32,90.09009009027906,,,,,,158.034799999997,254,0,158.034799999997,254,,,,161.423700000003,161.92359999999405,160.91259999999403,161.42359999999405,159.04589999999104,160.91250000000002,161.92359999999405,162.42359999999405,162.42359999999405,164.83479999999702,2212,164.83479999999702,5,165.8345,0,5,5,10,1,0.8,0.3,Time
,,409,001,女,22,2025-06-03_23h00.04.697,Serial_Dependence_U,2023.2.3,Win32,90.09009009027906,,,,,,165.83479999999702,194,0,165.83499999999998,194,,,,169.79029999999705,170.29020000000298,169.27939999999109,169.79029999999705,166.84579999999704,169.27920000000296,170.29020000000298,170.79029999999705,170.79039999999105,174.55700000000002,3409,174.55709999999402,5,175.556799999997,0,6,6,8,1,1.4,0.7,Time
,,409,001,女,22,2025-06-03_23h00.04.697,Serial_Dependence_U,2023.2.3,Win32,90.09009009027906,,,,,,175.55709999999402,343,0,175.55720000000298,343,,,,178.91270000000299,179.41239999999107,178.4015,178.91259999999403,176.56809999999405,178.4015,179.41250000000002,179.91250000000002,179.91250000000002,182.20139999999105,1980,182.2015,5,183.20139999999105,0,7,7,5,1,0.8,0.7,Time
,,409,001,女,22,2025-06-03_23h00.04.697,Serial_Dependence_U,2023.2.3,Win32,90.09009009027906,,,,,,183.20159999999402,120,0,183.20170000000297,120,,,,187.35700000000003,187.85689999999107,186.846,187.35700000000003,184.212700000003,186.846,187.85689999999107,188.35689999999107,188.35700000000003,188.94589999999107,110,188.94600000000003,1,189.94589999999107,0,8,8,9,1,1.6,0.7,Time
,,409,001,女,22,2025-06-03_23h00.04.697,Serial_Dependence_U,2023.2.3,Win32,90.09009009027906,,,,,,189.94600000000003,67,0,189.94609999999403,67,,,,193.7015,194.20129999999705,193.1903999999911,193.7015,190.95709999999406,193.19029999999702,194.20129999999705,194.70129999999705,194.70139999999105,196.87939999999105,1866,196.87939999999105,5,197.87939999999105,0,9,9,7,1,1.2,0.7,Time
,,409,001,女,22,2025-06-03_23h00.04.697,Serial_Dependence_U,2023.2.3,Win32,90.09009009027906,,,,,,197.87970000000297,144,0,197.87970000000297,144,,,,201.83489999999108,202.33459999999405,201.323700000003,201.83479999999702,198.89049999999997,201.323700000003,202.33470000000295,202.83479999999702,202.83479999999702,205.268200000003,2331,205.268200000003,5,206.26809999999404,0,10,10,18,1,1.4,0.7,Time
,,409,001,女,22,2025-06-03_23h00.04.697,Serial_Dependence_U,2023.2.3,Win32,90.09009009027906,,,,,,206.26839999999106,204,0,206.26839999999106,204,,,,209.62400000000002,210.123700000003,209.11279999999704,209.62389999999107,207.27939999999109,209.11270000000297,210.123700000003,210.623700000003,210.623799999997,211.57920000000297,548,211.57920000000297,1,212.57920000000297,0,11,11,25,1,0.8,0.7,Time
,,409,001,女,22,2025-06-03_23h00.04.697,Serial_Dependence_U,2023.2.3,Win32,90.09009009027906,,,,,,212.57979999999702,194,0,212.57989999999108,194,,,,216.13520000000295,216.63470000000297,215.62900000000002,216.135,213.59339999999105,215.62889999999106,216.63470000000297,217.13720000000296,217.13720000000296,220.27339999999106,2229,220.27339999999106,5,221.268200000003,0,12,12,6,1,1,0.7,Time
,,409,001,女,22,2025-06-03_23h00.04.697,Serial_Dependence_U,2023.2.3,Win32,90.09009009027906,,,,,,221.26879999999704,344,0,221.26889999999105,344,,,,224.62909999999403,225.12389999999107,224.11779999999703,224.62900000000002,222.282299999997,224.11779999999703,225.12400000000002,225.623700000003,225.623799999997,228.50739999999104,2663,228.50739999999104,5,229.50150000000002,0,13,13,15,1,0.8,0.7,Time
,,409,001,女,22,2025-06-03_23h00.04.697,Serial_Dependence_U,2023.2.3,Win32,90.09009009027906,,,,,,229.50209999999402,321,0,229.50220000000297,321,,,,233.49079999999702,233.99039999999104,232.98459999999403,233.49059999999406,230.513200000003,232.98459999999403,233.9905,234.49039999999104,234.4905,237.32920000000297,2678,237.32929999999703,5,238.323700000003,0,14,14,3,1,1.4,0.3,Time
,,409,001,女,22,2025-06-03_23h00.04.697,Serial_Dependence_U,2023.2.3,Win32,90.09009009027906,,,,,,238.32429999999704,262,0,238.3245,262,,,,242.50479999999703,243.00150000000002,241.99579999999702,242.50470000000297,239.32709999999406,241.99579999999702,243.00159999999408,243.506299999997,243.50639999999106,246.01809999999404,2123,246.01809999999404,5,247.01259999999405,0,15,15,24,1,1.6,0.3,Time
,,409,001,女,22,2025-06-03_23h00.04.697,Serial_Dependence_U,2023.2.3,Win32,90.09009009027906,,,,,,247.01329999999706,153,0,247.01349999999996,153,,,,250.99570000000296,251.4903999999911,250.48479999999705,250.995599999994,248.01789999999102,250.48479999999705,251.4903999999911,251.99050000000005,251.990599999994,252.76849999999996,130,252.76859999999402,1,253.768399999991,0,16,16,23,1,1.4,0.3,Time
,,409,001,女,22,2025-06-03_23h00.04.697,Serial_Dependence_U,2023.2.3,Win32,90.09009009027906,,,,,,253.76899999999995,186,0,253.76920000000297,186,,,,257.551399999991,258.04679999999706,257.046399999991,257.55129999999707,254.779799999997,257.046200000003,258.04679999999706,258.54609999999406,258.546200000003,262.45750000000004,2352,262.457599999994,5,263.451099999994,0,17,17,2,1,1.2,0.3,Time
,,409,001,女,22,2025-06-03_23h00.04.697,Serial_Dependence_U,2023.2.3,Win32,90.09009009027906,,,,,,263.45129999999705,351,0,263.4513999999911,351,,,,267.63550000000004,268.134799999997,267.129200000003,267.635299999997,264.46250000000003,267.129099999994,268.134799999997,268.6348999999911,268.63500000000005,271.05749999999995,1710,271.05749999999995,4,272.05749999999995,0,18,18,4,1,1.6,0.3,Time
,,409,001,女,22,2025-06-03_23h00.04.697,Serial_Dependence_U,2023.2.3,Win32,90.09009009027906,,,,,,272.058099999994,6,0,272.05820000000296,6,,,,276.20220000000296,276.701599999994,275.69459999999407,276.202099999994,273.06039999999103,275.6945,276.701700000003,277.201700000003,277.20179999999704,279.407200000003,1398,279.40729999999706,2,280.402,0,19,19,29,1,1.6,0.7,Time
,,409,001,女,22,2025-06-03_23h00.04.697,Serial_Dependence_U,2023.2.3,Win32,90.09009009027906,,,,,,280.40259999999404,250,0,280.402899999991,250,,,,284.14659999999407,284.646,283.6405999999941,284.1465,281.4067999999971,283.6405999999941,284.6460999999941,285.1460999999941,285.14620000000303,285.33549999999997,60,285.33559999999403,1,286.335,0,20,20,17,1,1.2,0.7,Time
,,409,001,女,22,2025-06-03_23h00.04.697,Serial_Dependence_U,2023.2.3,Win32,90.09009009027906,,,,,,286.33549999999997,169,0,286.33559999999403,169,,,,290.30729999999704,290.8045999999941,289.80699999999996,290.30729999999704,287.33579999999705,289.8068999999911,290.8045999999941,291.30159999999404,291.301700000003,293.45149999999995,1487,293.45149999999995,4,294.44599999999997,0,21,21,13,1,1.4,0.3,Time
,,409,001,女,22,2025-06-03_23h00.04.697,Serial_Dependence_U,2023.2.3,Win32,90.09009009027906,,,,,,294.446599999994,33,0,294.446700000003,33,,,,298.202599999994,298.701700000003,297.695899999991,298.2023999999911,295.45149999999995,297.695700000003,298.70179999999704,299.20200000000006,299.20200000000006,301.57389999999106,1700,301.57389999999106,5,302.5683999999911,0,22,22,27,1,1.2,0.7,Time
,,409,001,女,22,2025-06-03_23h00.04.697,Serial_Dependence_U,2023.2.3,Win32,90.09009009027906,,,,,,302.56889999999106,305,0,302.5690999999941,305,,,,306.3513999999911,306.8463999999911,305.840399999991,306.3513999999911,303.574,305.840399999991,306.8463999999911,307.351299999997,307.3513999999911,309.3938999999911,1643,309.3938999999911,5,310.39070000000294,0,23,23,12,1,1.2,0.3,Time
,,409,001,女,22,2025-06-03_23h00.04.697,Serial_Dependence_U,2023.2.3,Win32,90.09009009027906,,,,,,310.391299999997,298,0,310.39139999999105,298,,,,313.971599999994,314.468799999997,313.462799999997,313.971599999994,311.3960999999941,313.46270000000294,314.469,314.9685,314.96859999999407,315.427200000003,133,315.42729999999705,1,316.42439999999107,0,24,24,21,1,1,0.3,Time
,,409,001,女,22,2025-06-03_23h00.04.697,Serial_Dependence_U,2023.2.3,Win32,90.09009009027906,,,,,,316.42489999999106,135,0,316.42520000000303,135,,,,320.00620000000293,320.5017000000029,319.49600000000004,320.00620000000293,317.427599999994,319.49600000000004,320.5017000000029,321.00189999999105,321.002,322.807200000003,1346,322.807200000003,5,323.802099999994,0,25,25,1,1,1,0.3,Time
,,409,001,女,22,2025-06-03_23h00.04.697,Serial_Dependence_U,2023.2.3,Win32,90.09009009027906,,,,,,323.8028999999911,252,0,323.803099999994,252,,,,327.34670000000295,327.84629999999703,326.84049999999996,327.346599999994,324.807099999994,326.84049999999996,327.8463999999911,328.34620000000297,328.34629999999703,329.83549999999997,799,329.835700000003,2,330.83559999999403,0,26,26,16,1,1,0.7,Time
,,409,001,女,22,2025-06-03_23h00.04.697,Serial_Dependence_U,2023.2.3,Win32,90.09009009027906,,,,,,330.8363999999911,260,0,330.836599999994,260,,,,334.22979999999706,334.724200000003,333.71859999999407,334.22979999999706,331.85049999999995,333.71859999999407,334.7242999999971,335.224,335.22409999999405,336.24050000000005,676,336.2408999999911,2,337.235200000003,0,27,27,0,1,0.8,0.3,Time
,,409,001,女,22,2025-06-03_23h00.04.697,Serial_Dependence_U,2023.2.3,Win32,90.09009009027906,,,,,,337.235799999997,194,0,337.2358999999911,194,,,,341.018700000003,341.51309999999404,340.50520000000296,341.018599999994,338.23839999999103,340.50520000000296,341.51309999999404,342.013200000003,342.01329999999706,343.191399999991,834,343.19149999999996,1,344.19079999999707,0,28,28,22,1,1.2,0.3,Time
,,409,001,女,22,2025-06-03_23h00.04.697,Serial_Dependence_U,2023.2.3,Win32,90.09009009027906,,,,,,344.19129999999706,167,0,344.191599999994,167,,,,347.7510999999941,348.246299999997,347.239399999991,347.7508999999911,345.202299999997,347.239399999991,348.246299999997,348.74639999999107,348.7465,350.39620000000303,1045,350.39620000000303,3,351.391,0,29,29,26,1,1,0.7,Time
,,409,001,女,22,2025-06-03_23h00.04.697,Serial_Dependence_U,2023.2.3,Win32,90.09009009027906,,,,,,351.391700000003,185,1,400.29129999999697,185,s,48.87909999999397,,404.26920000000297,404.768700000003,403.762899999991,404.26899999999995,401.29559999999407,403.762899999991,404.768700000003,405.2688999999911,405.2688999999911,406.4133999999911,558,406.41350000000006,1,406.4138999999911,1,0,30,23,1,1.4,0.3,Time
,,409,001,女,22,2025-06-03_23h00.04.697,Serial_Dependence_U,2023.2.3,Win32,90.09009009027906,,,,,,406.414299999997,53,1,406.415700000003,53,,,,410.36289999999104,410.85770000000304,409.85839999999104,410.362799999997,407.42749999999995,409.858200000003,410.85789999999105,411.3575999999941,411.35770000000304,412.6855,920,412.6855,1,412.68559999999405,1,1,31,8,1,1.4,0.7,Time
,,409,001,女,22,2025-06-03_23h00.04.697,Serial_Dependence_U,2023.2.3,Win32,90.09009009027906,,,,,,412.685899999991,222,1,412.686,222,,,,416.23600000000005,416.73549999999994,415.72959999999404,416.23570000000296,413.695200000003,415.72959999999404,416.73549999999994,417.23549999999994,417.235599999994,418.55779999999703,995,418.55800000000005,3,418.55820000000296,1,2,32,16,1,1,0.7,Time
,,409,001,女,22,2025-06-03_23h00.04.697,Serial_Dependence_U,2023.2.3,Win32,90.09009009027906,,,,,,418.558599999994,320,1,418.558799999997,320,,,,422.347099999994,422.846599999994,421.84079999999705,422.34700000000004,419.5723999999911,421.84079999999705,422.846599999994,423.34650000000005,423.346599999994,424.952099999994,1302,424.952099999994,4,424.95220000000296,1,3,33,22,1,1.2,0.3,Time
,,409,001,女,22,2025-06-03_23h00.04.697,Serial_Dependence_U,2023.2.3,Win32,90.09009009027906,,,,,,424.9523999999911,272,1,424.9523999999911,272,,,,429.1075999999941,429.602799999997,428.5963999999911,429.1075,425.950700000003,428.59629999999703,429.602799999997,430.1020999999941,430.102299999997,431.34099999999995,947,431.34099999999995,1,431.34120000000297,1,4,34,19,1,1.6,0.7,Time
,,409,001,女,22,2025-06-03_23h00.04.697,Serial_Dependence_U,2023.2.3,Win32,90.09009009027906,,,,,,431.34129999999703,250,1,431.3413999999911,250,,,,435.080700000003,435.579899999991,434.5695,435.0805,432.3385,434.569299999997,435.58,436.08,436.08,437.37409999999403,987,437.374200000003,2,437.3743999999911,1,5,35,7,1,1.2,0.7,Time
,,409,001,女,22,2025-06-03_23h00.04.697,Serial_Dependence_U,2023.2.3,Win32,90.09009009027906,,,,,,437.374599999994,22,1,437.374599999994,22,,,,441.147200000003,441.646700000003,440.6410999999941,441.14709999999405,438.374200000003,440.641,441.646700000003,442.14689999999104,442.147,443.51879999999704,895,443.51879999999704,2,443.51899999999995,1,6,36,12,1,1.2,0.3,Time
,,409,001,女,22,2025-06-03_23h00.04.697,Serial_Dependence_U,2023.2.3,Win32,90.09009009027906,,,,,,443.51920000000297,105,1,443.51929999999703,105,,,,447.6633999999911,448.1578999999911,447.162,447.66329999999704,444.52520000000294,447.162,448.1578999999911,448.657700000003,448.657700000003,450.31870000000293,1333,450.31870000000293,2,450.31889999999106,1,7,37,9,1,1.6,0.7,Time
,,409,001,女,22,2025-06-03_23h00.04.697,Serial_Dependence_U,2023.2.3,Win32,90.09009009027906,,,,,,450.31920000000304,352,1,450.319299999997,352,,,,454.4742999999971,454.96889999999104,453.9632000000029,454.474200000003,451.325,453.9632000000029,454.96889999999104,455.469,455.469,457.2520999999941,1407,457.2520999999941,2,457.252299999997,1,8,38,29,1,1.6,0.7,Time
,,409,001,女,22,2025-06-03_23h00.04.697,Serial_Dependence_U,2023.2.3,Win32,90.09009009027906,,,,,,457.25239999999104,43,1,457.2525,43,,,,461.218700000003,461.71339999999105,460.714200000003,461.21859999999407,458.25189999999105,460.71409999999406,461.71339999999105,462.2180999999941,462.2180999999941,463.935899999991,1405,463.936,3,463.93629999999706,1,9,39,3,1,1.4,0.3,Time
,,409,001,女,22,2025-06-03_23h00.04.697,Serial_Dependence_U,2023.2.3,Win32,90.09009009027906,,,,,,463.936700000003,5,1,463.93679999999705,5,,,,467.3142000000029,467.8133999999911,466.80770000000297,467.31389999999107,464.940899999991,466.80770000000297,467.8133999999911,468.313299999997,468.313299999997,470.18039999999104,1553,470.1805,5,470.180899999991,1,10,40,10,1,0.8,0.3,Time
,,409,001,女,22,2025-06-03_23h00.04.697,Serial_Dependence_U,2023.2.3,Win32,90.09009009027906,,,,,,470.18129999999707,348,1,470.18159999999403,348,,,,474.12779999999697,474.6243999999911,473.618899999991,474.127700000003,471.1833999999911,473.61879999999707,474.62449999999995,475.12449999999995,475.124700000003,475.78020000000294,344,475.780299999997,1,475.7805999999941,1,11,41,28,1,1.4,0.7,Time
,,409,001,女,22,2025-06-03_23h00.04.697,Serial_Dependence_U,2023.2.3,Win32,90.09009009027906,,,,,,475.781,57,1,475.781200000003,57,,,,479.96099999999996,480.457799999997,479.45200000000006,479.96099999999996,476.780799999997,479.45200000000006,480.457799999997,480.95789999999107,480.958,482.51779999999707,1284,482.517899999991,2,482.518,1,12,42,4,1,1.6,0.3,Time
,,409,001,女,22,2025-06-03_23h00.04.697,Serial_Dependence_U,2023.2.3,Win32,90.09009009027906,,,,,,482.51809999999404,236,1,482.51829999999705,236,,,,486.69649999999996,487.191200000003,486.18059999999406,486.69649999999996,483.518599999994,486.18039999999104,487.191200000003,487.69129999999706,487.691399999991,489.65209999999405,1611,489.652200000003,3,489.65229999999707,1,13,43,24,1,1.6,0.3,Time
,,409,001,女,22,2025-06-03_23h00.04.697,Serial_Dependence_U,2023.2.3,Win32,90.09009009027906,,,,,,489.652399999991,340,1,489.6525,340,,,,493.816599999994,494.31350000000003,493.31389999999107,493.816599999994,490.652200000003,493.31370000000294,494.31350000000003,494.81350000000003,494.8135999999941,496.805700000003,1521,496.805700000003,3,496.8057999999971,1,14,44,14,1,1.6,0.3,Time
,,409,001,女,22,2025-06-03_23h00.04.697,Serial_Dependence_U,2023.2.3,Win32,90.09009009027906,,,,,,496.805899999991,297,1,496.805899999991,297,,,,500.1583999999911,500.6578999999911,499.6525,500.158200000003,497.8140999999941,499.652399999991,500.6578999999911,501.158200000003,501.15829999999704,502.97459999999404,1529,502.97459999999404,5,502.97479999999706,1,15,45,25,1,0.8,0.7,Time
,,409,001,女,22,2025-06-03_23h00.04.697,Serial_Dependence_U,2023.2.3,Win32,90.09009009027906,,,,,,502.97499999999997,14,1,502.97499999999997,14,,,,506.54799999999994,507.046899999991,506.04109999999406,506.54779999999704,503.97239999999107,506.041,507.046899999991,507.54920000000294,507.54920000000294,509.06350000000003,1246,509.0635999999941,4,509.063799999997,1,16,46,1,1,1,0.3,Time
,,409,001,女,22,2025-06-03_23h00.04.697,Serial_Dependence_U,2023.2.3,Win32,90.09009009027906,,,,,,509.0640999999941,219,1,509.0640999999941,219,,,,512.4362999999971,512.9358999999911,511.93,512.436099999994,510.062099999994,511.929799999997,512.9358999999911,513.435700000003,513.435700000003,514.963399999991,1279,514.963399999991,5,514.9635000000001,1,17,47,20,1,0.8,0.3,Time
,,409,001,女,22,2025-06-03_23h00.04.697,Serial_Dependence_U,2023.2.3,Win32,90.09009009027906,,,,,,514.963799999997,208,1,514.963799999997,208,,,,518.5473999999911,519.0467999999971,518.041099999994,518.5472000000029,515.972299999997,518.0409999999999,519.046899999991,519.546899999991,519.547,521.0725,1286,521.0725,4,521.072599999994,1,18,48,11,1,1,0.3,Time
,,409,001,女,22,2025-06-03_23h00.04.697,Serial_Dependence_U,2023.2.3,Win32,90.09009009027906,,,,,,521.072799999997,348,1,521.072799999997,348,,,,524.614299999997,525.114,524.102899999991,524.6140999999941,522.072099999994,524.1027000000029,525.1143999999911,525.613599999994,525.6137000000031,527.3968999999911,1495,527.3968999999911,5,527.3969999999999,1,19,49,26,1,1,0.7,Time
,,409,001,女,22,2025-06-03_23h00.04.697,Serial_Dependence_U,2023.2.3,Win32,90.09009009027906,,,,,,527.397099999994,120,1,527.3972999999971,120,,,,531.163599999994,531.6579999999999,530.6524999999999,531.1635000000001,528.407799999997,530.6523999999911,531.658099999994,532.158200000003,532.158200000003,534.0250000000001,1562,534.0250000000001,5,534.0253999999911,1,20,50,17,1,1.2,0.7,Time
,,409,001,女,22,2025-06-03_23h00.04.697,Serial_Dependence_U,2023.2.3,Win32,90.09009009027906,,,,,,534.025899999991,216,1,534.0260000000001,216,,,,537.5695999999941,538.0692000000031,537.0635,537.569399999991,535.0277999999971,537.0633999999911,538.0692000000031,538.5695000000001,538.5695999999941,540.2502000000029,1387,540.250299999997,5,540.250399999991,1,21,51,6,1,1,0.7,Time
,,409,001,女,22,2025-06-03_23h00.04.697,Serial_Dependence_U,2023.2.3,Win32,90.09009009027906,,,,,,540.2505999999939,103,1,540.250700000003,103,,,,543.607799999997,544.1027999999969,543.0965999999939,543.607799999997,541.258700000003,543.0965999999939,544.102899999991,544.602599999994,544.6027000000029,546.362599999994,1507,546.3627000000031,5,546.3627999999969,1,22,52,5,1,0.8,0.7,Time
,,409,001,女,22,2025-06-03_23h00.04.697,Serial_Dependence_U,2023.2.3,Win32,90.09009009027906,,,,,,546.363,32,1,546.3630999999941,32,,,,549.7145999999941,550.2135999999941,549.2032000000029,549.714399999991,547.3697000000029,549.203,550.213700000003,550.7135999999941,550.713700000003,552.239299999997,1263,552.2393999999911,5,552.2394999999999,1,23,53,15,1,0.8,0.7,Time
,,409,001,女,22,2025-06-03_23h00.04.697,Serial_Dependence_U,2023.2.3,Win32,90.09009009027906,,,,,,552.239599999994,205,1,552.239700000003,205,,,,555.6252000000029,556.1247999999971,555.1144999999999,555.625,553.2525,555.114299999997,556.1247999999971,556.6250999999941,556.6250999999941,558.2970999999941,1367,558.2970999999941,5,558.2972000000029,1,24,54,0,1,0.8,0.3,Time
,,409,001,女,22,2025-06-03_23h00.04.697,Serial_Dependence_U,2023.2.3,Win32,90.09009009027906,,,,,,558.2973999999911,6,1,558.297599999994,6,,,,562.2835,562.784899999991,561.7747000000029,562.2833999999912,559.3057999999971,561.7747000000029,562.7850000000001,563.2802999999969,563.280399999991,564.9472999999971,1370,564.9472999999971,3,564.9477000000029,1,25,55,13,1,1.4,0.3,Time
,,409,001,女,22,2025-06-03_23h00.04.697,Serial_Dependence_U,2023.2.3,Win32,90.09009009027906,,,,,,564.9480000000001,192,1,564.948200000003,192,,,,568.7059999999999,569.202700000003,568.1922000000029,568.7059999999999,565.9587000000031,568.1922000000029,569.2027999999971,569.702700000003,569.7027999999971,571.2637000000029,1222,571.2637000000029,3,571.263899999991,1,26,56,27,1,1.2,0.7,Time
,,409,001,女,22,2025-06-03_23h00.04.697,Serial_Dependence_U,2023.2.3,Win32,90.09009009027906,,,,,,571.264099999994,169,1,571.264200000003,169,,,,574.841200000003,575.336,574.340399999991,574.841099999994,572.272399999991,574.3402999999971,575.336,575.8405999999941,575.8405999999941,577.5968999999911,1433,577.5968999999911,5,577.597099999994,1,27,57,21,1,1,0.3,Time
,,409,001,女,22,2025-06-03_23h00.04.697,Serial_Dependence_U,2023.2.3,Win32,90.09009009027906,,,,,,577.5972000000029,152,1,577.5972000000029,152,,,,581.5502999999969,582.0472000000029,581.041399999991,581.5502000000031,578.6065000000001,581.0412999999969,582.0472000000029,582.5470999999941,582.5472000000029,584.5302000000029,1580,584.5302999999969,4,584.530399999991,1,28,58,18,1,1.4,0.7,Time
,,409,001,女,22,2025-06-03_23h00.04.697,Serial_Dependence_U,2023.2.3,Win32,90.09009009027906,,,,,,584.5305999999941,357,1,584.530799999997,357,,,,588.307299999997,588.8027000000029,587.7967999999971,588.307299999997,585.5280999999941,587.796700000003,588.8027000000029,589.3027000000029,589.302799999997,591.0080999999941,1369,591.0080999999941,4,591.008200000003,1,29,59,2,1,1.2,0.3,Time
,,409,001,女,22,2025-06-03_23h00.04.697,Serial_Dependence_U,2023.2.3,Win32,90.09009009027906,,,,,,591.0083999999911,341,2,602.0360999999941,341,s,11.016599999994014,,605.6282000000031,606.125,605.1189999999999,605.6282000000031,603.050700000003,605.1189999999999,606.1250999999941,606.6248999999912,606.625,608.408099999994,1489,608.408200000003,5,608.4082999999971,2,0,60,11,1,1,0.3,Time
,,409,001,女,22,2025-06-03_23h00.04.697,Serial_Dependence_U,2023.2.3,Win32,90.09009009027906,,,,,,608.4083999999912,183,2,608.409200000003,183,,,,611.9839999999999,612.480700000003,611.4748999999911,611.9839999999999,609.414399999991,611.4747000000029,612.480700000003,612.980599999994,612.980700000003,615.039299999997,1733,615.039299999997,5,615.0395000000001,2,1,61,1,1,1,0.3,Time
,,409,001,女,22,2025-06-03_23h00.04.697,Serial_Dependence_U,2023.2.3,Win32,90.09009009027906,,,,,,615.0395999999942,318,2,615.039700000003,318,,,,619.2145999999941,619.7138999999911,618.7080999999941,619.214399999991,616.039299999997,618.7080000000001,619.7138999999911,620.213799999997,620.2139999999999,622.1918999999912,1648,622.1920999999941,3,622.1925000000001,2,2,62,14,1,1.6,0.3,Time
,,409,001,女,22,2025-06-03_23h00.04.697,Serial_Dependence_U,2023.2.3,Win32,90.09009009027906,,,,,,622.1928999999911,167,2,622.193099999994,167,,,,626.3705,626.8695999999941,625.863599999994,626.3703999999912,623.1969999999999,625.863599999994,626.8695999999941,627.3695,627.3695,629.152700000003,1401,629.152700000003,2,629.152899999991,2,3,63,24,1,1.6,0.3,Time
,,409,001,女,22,2025-06-03_23h00.04.697,Serial_Dependence_U,2023.2.3,Win32,90.09009009027906,,,,,,629.153,37,2,629.1530999999941,37,,,,633.1303999999911,633.625,632.6195,633.1302999999971,630.150599999994,632.6195,633.625,634.1248999999912,634.125,635.8527999999969,1465,635.852899999991,3,635.8530000000001,2,4,64,23,1,1.4,0.3,Time
,,409,001,女,22,2025-06-03_23h00.04.697,Serial_Dependence_U,2023.2.3,Win32,90.09009009027906,,,,,,635.8530999999941,157,2,635.853200000003,157,,,,639.4197000000029,639.9137999999971,638.919200000003,639.419599999994,636.8503999999912,638.919200000003,639.9138999999911,640.4138999999911,640.414,641.9749999999999,1278,641.9749999999999,4,641.975099999994,2,5,65,21,1,1,0.3,Time
,,409,001,女,22,2025-06-03_23h00.04.697,Serial_Dependence_U,2023.2.3,Win32,90.09009009027906,,,,,,641.9752999999971,260,2,641.9753999999912,260,,,,645.7185,646.2138999999911,645.2080999999941,645.7183999999911,642.975099999994,645.2080999999941,646.2138999999911,646.7138999999911,646.7139999999999,648.386099999994,1407,648.386099999994,4,648.3862999999969,2,6,66,17,1,1.2,0.7,Time
,,409,001,女,22,2025-06-03_23h00.04.697,Serial_Dependence_U,2023.2.3,Win32,90.09009009027906,,,,,,648.3865999999941,95,2,648.3868999999911,95,,,,651.759,652.2584999999999,651.2528999999911,651.7587999999971,649.3857999999971,651.2528999999911,652.2584999999999,652.7584999999999,652.758599999994,654.4860999999939,1491,654.4860999999939,5,654.486200000003,2,7,67,10,1,0.8,0.3,Time
,,409,001,女,22,2025-06-03_23h00.04.697,Serial_Dependence_U,2023.2.3,Win32,90.09009009027906,,,,,,654.4862999999971,54,2,654.4863999999911,54,,,,658.4628999999911,658.9585,657.958899999991,658.4627999999971,655.495099999994,657.9587999999969,658.9585,659.4587000000031,659.4587000000031,661.1527999999971,1422,661.152899999991,3,661.153,2,8,68,3,1,1.4,0.3,Time
,,409,001,女,22,2025-06-03_23h00.04.697,Serial_Dependence_U,2023.2.3,Win32,90.09009009027906,,,,,,661.1530999999941,46,2,661.153299999997,46,,,,665.341799999997,665.8362000000029,664.825899999991,665.3417000000029,662.158899999991,664.8257999999971,665.836299999997,666.3362000000029,666.336299999997,667.9617999999971,1333,667.9617999999971,2,667.9618999999911,2,9,69,4,1,1.6,0.3,Time
,,409,001,女,22,2025-06-03_23h00.04.697,Serial_Dependence_U,2023.2.3,Win32,90.09009009027906,,,,,,667.9622000000029,301,2,667.9622000000029,301,,,,672.1037000000031,672.602899999991,671.5972000000029,672.1033999999911,668.959299999997,671.597099999994,672.602899999991,673.102899999991,673.1030000000001,675.197599999994,1734,675.1977000000029,4,675.197799999997,2,10,70,19,1,1.6,0.7,Time
,,409,001,女,22,2025-06-03_23h00.04.697,Serial_Dependence_U,2023.2.3,Win32,90.09009009027906,,,,,,675.1980000000001,318,2,675.1980999999939,318,,,,678.7367000000029,679.2363999999911,678.2310999999941,678.736599999994,676.1972999999971,678.2310999999941,679.2363999999911,679.7362999999971,679.7363999999911,681.54,1476,681.54,5,681.540099999994,2,11,71,6,1,1,0.7,Time
,,409,001,女,22,2025-06-03_23h00.04.697,Serial_Dependence_U,2023.2.3,Win32,90.09009009027906,,,,,,681.540399999991,283,2,681.5405000000001,283,,,,685.6810999999941,686.1807000000031,685.175099999994,685.681,682.5405000000001,685.175,686.1807999999971,686.681,686.681200000003,688.9973999999911,2000,688.9973999999911,4,688.997599999994,2,12,72,29,1,1.6,0.7,Time
,,409,001,女,22,2025-06-03_23h00.04.697,Serial_Dependence_U,2023.2.3,Win32,90.09009009027906,,,,,,688.9977000000031,27,2,688.9977000000031,27,,,,692.936899999991,693.436399999991,692.4307000000031,692.936799999997,689.995099999994,692.4307000000031,693.436399999991,693.9365,693.9365999999941,695.9307999999971,1708,695.930899999991,4,695.931,2,13,73,18,1,1.4,0.7,Time
,,409,001,女,22,2025-06-03_23h00.04.697,Serial_Dependence_U,2023.2.3,Win32,90.09009009027906,,,,,,695.9310999999941,216,2,695.931299999997,216,,,,699.706200000003,700.203,699.197200000003,699.706200000003,696.928599999994,699.197200000003,700.203099999994,700.703,700.703,702.4065,1287,702.4065,4,702.4065999999941,2,14,74,22,1,1.2,0.3,Time
,,409,001,女,22,2025-06-03_23h00.04.697,Serial_Dependence_U,2023.2.3,Win32,90.09009009027906,,,,,,702.406799999997,344,2,702.4068999999911,344,,,,706.1592999999971,706.6587000000029,705.651299999997,706.1590999999939,703.415099999994,705.651299999997,706.658799999997,707.158899999991,707.1590000000001,709.064200000003,1544,709.064200000003,4,709.0643999999911,2,15,75,7,1,1.2,0.7,Time
,,409,001,女,22,2025-06-03_23h00.04.697,Serial_Dependence_U,2023.2.3,Win32,90.09009009027906,,,,,,709.064599999994,132,2,709.0647999999969,132,,,,713.0478999999912,713.5474999999999,712.541799999997,713.0477999999971,710.0750999999941,712.541799999997,713.5474999999999,714.0482000000029,714.0482000000029,716.0509999999999,1442,716.0509999999999,3,716.051099999994,2,16,76,13,1,1.4,0.3,Time
,,409,001,女,22,2025-06-03_23h00.04.697,Serial_Dependence_U,2023.2.3,Win32,90.09009009027906,,,,,,716.0512000000031,354,2,716.051399999991,354,,,,719.837,720.336700000003,719.330799999997,719.8367999999971,717.0630999999939,719.330799999997,720.336700000003,720.836399999991,720.8365000000001,722.508700000003,1340,722.508700000003,4,722.508700000003,2,17,77,12,1,1.2,0.3,Time
,,409,001,女,22,2025-06-03_23h00.04.697,Serial_Dependence_U,2023.2.3,Win32,90.09009009027906,,,,,,722.5088999999912,282,2,722.509,282,,,,725.859200000003,726.358700000003,725.352899999991,725.8589999999999,723.519399999991,725.352899999991,726.358799999997,726.8588999999911,726.8589999999999,728.6420999999941,1489,728.6420999999941,5,728.642299999997,2,18,78,5,1,0.8,0.7,Time
,,409,001,女,22,2025-06-03_23h00.04.697,Serial_Dependence_U,2023.2.3,Win32,90.09009009027906,,,,,,728.6427000000031,302,2,728.6427999999971,302,,,,732.425799999997,732.925700000003,731.917399999991,732.425700000003,729.648099999994,731.9172999999971,732.925700000003,733.425399999991,733.4255999999941,735.042099999994,1312,735.042099999994,4,735.0422999999971,2,19,79,2,1,1.2,0.3,Time
,,409,001,女,22,2025-06-03_23h00.04.697,Serial_Dependence_U,2023.2.3,Win32,90.09009009027906,,,,,,735.042399999991,334,2,735.0425,334,,,,739.1925000000001,739.6922000000029,738.6845000000001,739.1925000000001,736.0530000000001,738.684399999991,739.6922000000029,740.192299999997,740.192299999997,741.8740999999941,1410,741.8740999999941,2,741.8742000000029,2,20,80,9,1,1.6,0.7,Time
,,409,001,女,22,2025-06-03_23h00.04.697,Serial_Dependence_U,2023.2.3,Win32,90.09009009027906,,,,,,741.874299999997,305,2,741.874399999991,305,,,,745.825899999991,746.3254999999999,745.3177999999971,745.825700000003,742.881299999997,745.317700000003,746.3254999999999,746.8257999999971,746.825899999991,748.697599999994,1607,748.697599999994,4,748.697799999997,2,21,81,8,1,1.4,0.7,Time
,,409,001,女,22,2025-06-03_23h00.04.697,Serial_Dependence_U,2023.2.3,Win32,90.09009009027906,,,,,,748.6980000000001,332,2,748.6980999999939,332,,,,752.2370999999941,752.736599999994,751.7307999999971,752.236899999991,749.6972999999971,751.7307999999971,752.7367000000029,753.236799999997,753.236799999997,755.3200000000002,1735,755.3200000000002,5,755.320099999994,2,22,82,16,1,1,0.7,Time
,,409,001,女,22,2025-06-03_23h00.04.697,Serial_Dependence_U,2023.2.3,Win32,90.09009009027906,,,,,,755.3202999999971,54,2,755.3202999999971,54,,,,758.6597000000031,759.158799999997,758.153,758.659599999994,756.3175999999942,758.153,759.158799999997,759.6610999999941,759.661200000003,761.6310999999941,1413,761.6310999999941,5,761.631200000003,2,23,83,25,1,0.8,0.7,Time
,,409,001,女,22,2025-06-03_23h00.04.697,Serial_Dependence_U,2023.2.3,Win32,90.09009009027906,,,,,,761.6313999999911,74,2,761.6315,74,,,,764.9632999999972,765.458899999991,764.459299999997,764.9632000000031,762.626700000003,764.459200000003,765.458899999991,765.958899999991,765.958899999991,767.7753999999909,1522,767.7753999999909,5,767.7754999999997,2,24,84,15,1,0.8,0.7,Time
,,409,001,女,22,2025-06-03_23h00.04.697,Serial_Dependence_U,2023.2.3,Win32,90.09009009027906,,,,,,767.7757000000029,277,2,767.7757000000029,277,,,,771.1619999999998,771.6587999999967,770.6530999999939,771.1619999999998,768.7863999999909,770.6530999999939,771.6588999999908,772.152599999994,772.152599999994,773.9147000000028,1513,773.9147000000028,5,773.9150999999938,2,25,85,20,1,0.8,0.3,Time
,,409,001,女,22,2025-06-03_23h00.04.697,Serial_Dependence_U,2023.2.3,Win32,90.09009009027906,,,,,,773.9155999999939,110,2,773.9157999999968,110,,,,777.2925999999939,777.7922000000028,776.7865999999938,777.292399999991,774.9179999999999,776.7864999999999,777.7922000000028,778.2922000000028,778.2922000000028,780.0967999999968,1489,780.0967999999968,5,780.0969999999998,2,26,86,0,1,0.8,0.3,Time
,,409,001,女,22,2025-06-03_23h00.04.697,Serial_Dependence_U,2023.2.3,Win32,90.09009009027906,,,,,,780.0970999999938,85,2,780.097299999997,85,,,,783.8512999999969,784.3513999999909,783.3418999999908,783.8512999999969,781.1085999999939,783.3418999999908,784.3514999999998,784.8477999999968,784.8478999999909,786.3953999999908,1227,786.3954999999999,3,786.3955999999939,2,27,87,27,1,1.2,0.7,Time
,,409,001,女,22,2025-06-03_23h00.04.697,Serial_Dependence_U,2023.2.3,Win32,90.09009009027906,,,,,,786.3957999999968,340,2,786.3957999999968,340,,,,790.3594999999998,790.8589999999999,789.8530999999939,790.3592999999969,787.4074999999998,789.8529999999998,790.8589999999999,791.3590999999938,791.3592000000028,791.7853999999909,129,791.7853999999909,1,791.7854999999997,2,28,88,28,1,1.4,0.7,Time
,,409,001,女,22,2025-06-03_23h00.04.697,Serial_Dependence_U,2023.2.3,Win32,90.09009009027906,,,,,,791.7857000000029,100,2,791.7857999999969,100,,,,795.3260999999939,795.8254999999999,794.8202000000028,795.325899999991,792.7845999999938,794.8200999999938,795.825599999994,796.3254999999999,796.325599999994,798.0209999999997,1281,798.0209999999997,4,798.0212000000029,2,29,89,26,1,1,0.7,Time
,,409,001,女,22,2025-06-03_23h00.04.697,Serial_Dependence_U,2023.2.3,Win32,90.09009009027906,,,,,,798.0212999999969,182,3,800.270299999997,182,s,2.2335999999941123,,804.0152999999968,804.5145999999938,803.5087999999969,804.0149999999999,801.2754999999997,803.5087000000028,804.5145999999938,805.0147999999967,805.0148999999908,806.6967999999968,1323,806.6967999999968,4,806.6969999999999,3,0,90,7,1,1.2,0.7,Time
,,409,001,女,22,2025-06-03_23h00.04.697,Serial_Dependence_U,2023.2.3,Win32,90.09009009027906,,,,,,806.697099999994,62,3,806.6979999999999,62,,,,810.4732999999969,810.9702999999968,809.9642999999969,810.4732000000029,807.693299999997,809.9642999999969,810.9702999999968,811.4699999999998,811.4700999999939,813.359399999991,1608,813.359399999991,5,813.3598999999908,3,1,91,12,1,1.2,0.3,Time
,,409,001,女,22,2025-06-03_23h00.04.697,Serial_Dependence_U,2023.2.3,Win32,90.09009009027906,,,,,,813.3602000000028,253,3,813.3603999999909,253,,,,817.3150999999939,817.8145999999938,816.8087999999968,817.3149999999998,814.3702999999969,816.8087000000028,817.8147000000029,818.3145999999938,818.3145999999938,820.0647000000029,1369,820.0647999999969,3,820.064899999991,3,2,92,28,1,1.4,0.7,Time
,,409,001,女,22,2025-06-03_23h00.04.697,Serial_Dependence_U,2023.2.3,Win32,90.09009009027906,,,,,,820.0649999999998,322,3,820.0649999999998,322,,,,824.0310999999938,824.5265999999938,823.5264999999999,824.0309999999997,821.0643999999909,823.5262999999968,824.5267000000028,825.0259999999998,825.0259999999998,827.2199999999998,1308,827.2200999999939,2,827.2200999999939,3,3,93,3,1,1.4,0.3,Time
,,409,001,女,22,2025-06-03_23h00.04.697,Serial_Dependence_U,2023.2.3,Win32,90.09009009027906,,,,,,827.2202999999968,311,3,827.2203999999908,311,,,,830.6065999999939,831.1033999999909,830.0978999999909,830.6065999999939,828.2263999999909,830.0978999999909,831.1033999999909,831.6033999999909,831.6034999999999,833.7089999999998,1678,833.7089999999998,5,833.7090999999939,3,4,94,20,1,0.8,0.3,Time
,,409,001,女,22,2025-06-03_23h00.04.697,Serial_Dependence_U,2023.2.3,Win32,90.09009009027906,,,,,,833.7092000000027,49,3,833.7092999999968,49,,,,837.2522000000029,837.7482999999968,836.751299999997,837.2520999999938,834.7199999999998,836.751299999997,837.7482999999968,838.2479999999998,838.2480999999939,839.953299999997,1407,839.9533999999908,5,839.9534999999998,3,5,95,26,1,1,0.7,Time
,,409,001,女,22,2025-06-03_23h00.04.697,Serial_Dependence_U,2023.2.3,Win32,90.09009009027906,,,,,,839.9535999999939,279,3,839.9537000000028,279,,,,843.8927999999969,844.3923999999909,843.3864999999998,843.8925999999938,840.9520999999938,843.386399999991,844.3923999999909,844.8923999999909,844.8923999999909,846.5204999999999,1346,846.5204999999999,3,846.5205999999939,3,6,96,8,1,1.4,0.7,Time
,,409,001,女,22,2025-06-03_23h00.04.697,Serial_Dependence_U,2023.2.3,Win32,90.09009009027906,,,,,,846.5208999999909,193,3,846.5209999999997,193,,,,850.3042000000028,850.8034999999998,849.7977000000028,850.3038999999908,847.5267000000028,849.797599999994,850.8035999999938,851.3034999999998,851.3034999999998,852.9979999999998,1400,852.9979999999998,4,852.9980999999939,3,7,97,2,1,1.2,0.3,Time
,,409,001,女,22,2025-06-03_23h00.04.697,Serial_Dependence_U,2023.2.3,Win32,90.09009009027906,,,,,,852.9982999999968,298,3,852.9983999999909,298,,,,856.753399999991,857.2479999999998,856.2420999999938,856.7532999999969,854.0045999999938,856.2420999999938,857.2480999999939,857.7482000000027,857.7482999999968,860.2313999999908,1789,860.2313999999908,5,860.2314999999999,3,8,98,27,1,1.2,0.7,Time
,,409,001,女,22,2025-06-03_23h00.04.697,Serial_Dependence_U,2023.2.3,Win32,90.09009009027906,,,,,,860.2317999999968,305,3,860.2317999999968,305,,,,863.8152000000027,864.3147999999969,863.3089999999997,863.8150999999939,861.2420999999938,863.3089999999997,864.3147999999969,864.814899999991,864.8149999999998,866.715099999994,1533,866.7152000000028,5,866.7155999999939,3,9,99,21,1,1,0.3,Time
,,409,001,女,22,2025-06-03_23h00.04.697,Serial_Dependence_U,2023.2.3,Win32,90.09009009027906,,,,,,866.716099999994,250,3,866.7162000000028,250,,,,870.2599999999998,870.7592000000029,869.7534999999998,870.2598999999909,867.7177999999969,869.7534999999998,870.7592000000029,871.2592999999968,871.2593999999908,872.8977999999968,1291,872.8978999999908,4,872.8979999999999,3,10,100,6,1,1,0.7,Time
,,409,001,女,22,2025-06-03_23h00.04.697,Serial_Dependence_U,2023.2.3,Win32,90.09009009027906,,,,,,872.8982000000028,255,3,872.8982000000028,255,,,,877.086599999994,877.5812999999969,876.5707000000027,877.086599999994,873.9078999999908,876.5704999999998,877.5812999999969,878.0858999999909,878.0858999999909,880.2647000000029,1434,880.2647999999967,2,880.2648999999908,3,11,101,14,1,1.6,0.3,Time
,,409,001,女,22,2025-06-03_23h00.04.697,Serial_Dependence_U,2023.2.3,Win32,90.09009009027906,,,,,,880.2652000000028,216,3,880.2652999999968,216,,,,883.8312999999969,884.325899999991,883.3262000000027,883.8312000000028,881.2622999999969,883.3260999999939,884.3259999999998,884.825899999991,884.8259999999998,886.6980999999939,1568,886.6980999999939,5,886.6982999999968,3,12,102,1,1,1,0.3,Time
,,409,001,女,22,2025-06-03_23h00.04.697,Serial_Dependence_U,2023.2.3,Win32,90.09009009027906,,,,,,886.6983999999909,241,3,886.6984999999997,241,,,,890.0649999999998,890.5592000000029,889.5643999999909,890.064899999991,887.6954999999998,889.5642999999968,890.5592999999969,891.0592000000029,891.0592999999969,892.887,1485,892.8870999999938,5,892.8872000000028,3,13,103,10,1,0.8,0.3,Time
,,409,001,女,22,2025-06-03_23h00.04.697,Serial_Dependence_U,2023.2.3,Win32,90.09009009027906,,,,,,892.887399999991,91,3,892.887399999991,91,,,,897.0708999999908,897.570399999991,896.564899999991,897.0707000000027,893.8978999999908,896.5647999999969,897.570399999991,898.0749999999998,898.0749999999998,900.0149999999999,1638,900.0150999999939,3,900.0153999999909,3,14,104,24,1,1.6,0.3,Time
,,409,001,女,22,2025-06-03_23h00.04.697,Serial_Dependence_U,2023.2.3,Win32,90.09009009027906,,,,,,900.0157000000029,103,3,900.0158999999908,103,,,,903.7645999999938,904.2594999999999,903.253399999991,903.7645999999938,901.0182999999968,903.253399999991,904.2594999999999,904.7592000000029,904.7592000000029,906.6982000000028,1554,906.6982000000028,4,906.6983999999909,3,15,105,17,1,1.2,0.7,Time
,,409,001,女,22,2025-06-03_23h00.04.697,Serial_Dependence_U,2023.2.3,Win32,90.09009009027906,,,,,,906.6985999999938,60,3,906.6987999999969,60,,,,910.2820999999938,910.781399999991,909.7757999999969,910.2818999999909,907.7044999999998,909.7757999999969,910.7814999999998,911.2815999999939,911.2817000000027,913.2315999999939,1613,913.2317000000028,5,913.2317000000028,3,16,106,11,1,1,0.3,Time
,,409,001,女,22,2025-06-03_23h00.04.697,Serial_Dependence_U,2023.2.3,Win32,90.09009009027906,,,,,,913.2318999999909,116,3,913.2319999999997,116,,,,916.7734999999998,917.2704999999999,916.2647999999967,916.7734999999998,914.2315999999939,916.2647000000029,917.2704999999999,917.7707999999968,917.7707999999968,919.6182000000028,1456,919.6182000000028,5,919.618399999991,3,17,107,16,1,1,0.7,Time
,,409,001,女,22,2025-06-03_23h00.04.697,Serial_Dependence_U,2023.2.3,Win32,90.09009009027906,,,,,,919.6184999999998,97,3,919.6185999999939,97,,,,922.9712000000029,923.4704999999999,922.4647999999968,922.9709999999998,920.6265999999939,922.4647000000027,923.4704999999999,923.9704999999999,923.9704999999999,925.8758999999909,1602,925.8759999999997,5,925.8760999999938,3,18,108,25,1,0.8,0.7,Time
,,409,001,女,22,2025-06-03_23h00.04.697,Serial_Dependence_U,2023.2.3,Win32,90.09009009027906,,,,,,925.876299999997,240,3,925.8764999999999,240,,,,929.2264999999998,929.7259999999999,928.7203999999908,929.2262999999969,926.8757999999968,928.7202999999968,929.726099999994,930.226099999994,930.226099999994,931.9982000000027,1440,931.9982999999968,5,931.9982999999968,3,19,109,15,1,0.8,0.7,Time
,,409,001,女,22,2025-06-03_23h00.04.697,Serial_Dependence_U,2023.2.3,Win32,90.09009009027906,,,,,,931.9984999999999,255,3,931.9987000000028,255,,,,936.1710999999939,936.6704999999997,935.6645999999939,936.1707999999969,932.9959999999999,935.6644999999999,936.6705999999938,937.1704999999997,937.1705999999938,939.1152000000029,1638,939.1152999999968,3,939.1157000000028,3,20,110,4,1,1.6,0.3,Time
,,409,001,女,22,2025-06-03_23h00.04.697,Serial_Dependence_U,2023.2.3,Win32,90.09009009027906,,,,,,939.1162000000029,335,3,939.1163999999908,335,,,,942.4709999999998,942.9707999999969,941.9645999999939,942.4708999999909,940.1294999999998,941.9645999999939,942.9707999999969,943.4704999999999,943.470599999994,945.465099999994,1702,945.465099999994,5,945.465399999991,3,21,111,5,1,0.8,0.7,Time
,,409,001,女,22,2025-06-03_23h00.04.697,Serial_Dependence_U,2023.2.3,Win32,90.09009009027906,,,,,,945.4657000000027,221,3,945.4657999999968,221,,,,949.4514999999999,949.9485999999938,948.9424999999999,949.4514999999999,946.4759999999999,948.9424999999999,949.9485999999938,950.4484999999997,950.4484999999997,952.3315999999938,1578,952.3315999999938,4,952.3317999999967,3,22,112,23,1,1.4,0.3,Time
,,409,001,女,22,2025-06-03_23h00.04.697,Serial_Dependence_U,2023.2.3,Win32,90.09009009027906,,,,,,952.3318999999908,282,3,952.3319999999999,282,,,,956.3047000000029,956.8038999999908,955.7979999999998,956.3043999999909,953.3317000000029,955.7978999999909,956.8039999999999,957.3038999999908,957.3039999999999,959.3823999999909,1637,959.3825999999938,4,959.3827999999969,3,23,113,13,1,1.4,0.3,Time
,,409,001,女,22,2025-06-03_23h00.04.697,Serial_Dependence_U,2023.2.3,Win32,90.09009009027906,,,,,,959.3832999999968,53,3,959.3834999999999,53,,,,963.1758999999909,963.6704999999997,962.6648999999909,963.1757999999968,960.3982999999969,962.6647999999968,963.6705999999938,964.1705999999938,964.1707000000029,966.1315999999938,1701,966.1317000000029,5,966.1317999999969,3,24,114,22,1,1.2,0.3,Time
,,409,001,女,22,2025-06-03_23h00.04.697,Serial_Dependence_U,2023.2.3,Win32,90.09009009027906,,,,,,966.131899999991,228,3,966.1319999999998,228,,,,970.2862000000027,970.7819999999999,969.7745999999938,970.2860999999939,967.141899999991,969.7745999999938,970.7820999999938,971.2817000000027,971.2817999999968,973.042099999994,1455,973.0422000000028,2,973.042399999991,3,25,115,29,1,1.6,0.7,Time
,,409,001,女,22,2025-06-03_23h00.04.697,Serial_Dependence_U,2023.2.3,Win32,90.09009009027906,,,,,,973.0427000000029,80,3,973.0427999999968,80,,,,976.4155999999939,976.9158999999909,975.9092999999968,976.415399999991,974.0424999999998,975.9092999999968,976.9158999999909,977.4150999999938,977.4152000000029,979.4374999999998,1728,979.4374999999998,5,979.4378999999908,3,26,116,0,1,0.8,0.3,Time
,,409,001,女,22,2025-06-03_23h00.04.697,Serial_Dependence_U,2023.2.3,Win32,90.09009009027906,,,,,,979.4382000000028,259,3,979.4383999999909,259,,,,983.584899999991,984.0818999999908,983.0757999999969,983.584899999991,980.4427999999969,983.0757999999969,984.0818999999908,984.5817999999967,984.5818999999908,986.6760999999938,1767,986.6760999999938,4,986.6762000000028,3,27,117,19,1,1.6,0.7,Time
,,409,001,女,22,2025-06-03_23h00.04.697,Serial_Dependence_U,2023.2.3,Win32,90.09009009027906,,,,,,986.676399999991,345,3,986.6764999999998,345,,,,990.6305999999938,991.1262000000029,990.1203999999909,990.6304999999998,987.6849999999997,990.1203999999909,991.126299999997,991.626299999997,991.6263999999908,993.5317999999968,1580,993.5317999999968,4,993.5318999999909,3,28,118,18,1,1.4,0.7,Time
,,409,001,女,22,2025-06-03_23h00.04.697,Serial_Dependence_U,2023.2.3,Win32,90.09009009027906,,,,,,993.5320999999938,147,3,993.5320999999938,147,,,,997.676399999991,998.1707999999969,997.1759999999999,997.676399999991,994.5379999999998,997.1758999999909,998.170899999991,998.6709999999998,998.6710999999939,1000.6322999999968,1700,1000.6323999999909,4,1000.6325999999938,3,29,119,9,1,1.6,0.7,Time
,,409,001,女,22,2025-06-03_23h00.04.697,Serial_Dependence_U,2023.2.3,Win32,90.09009009027906,,,,,,1000.6327999999969,342,4,1005.3267999999969,342,s,4.678400000005922,,1009.2738999999908,1009.7707999999968,1008.7649999999999,1009.2737999999968,1006.3297999999968,1008.7648999999908,1009.7708999999909,1010.2707999999968,1010.2708999999909,1012.3375999999939,1715,1012.3377000000028,4,1012.3380999999938,4,0,120,28,1,1.4,0.7,Time
,,409,001,女,22,2025-06-03_23h00.04.697,Serial_Dependence_U,2023.2.3,Win32,90.09009009027906,,,,,,1012.3385999999939,153,4,1012.3397999999968,153,,,,1015.893599999994,1016.3929999999998,1015.3872999999969,1015.8933999999908,1013.3527000000029,1015.3872999999969,1016.3929999999998,1016.8932999999968,1016.8932999999968,1018.6098999999908,1433,1018.6098999999908,5,1018.610099999994,4,1,121,6,1,1,0.7,Time
,,409,001,女,22,2025-06-03_23h00.04.697,Serial_Dependence_U,2023.2.3,Win32,90.09009009027906,,,,,,1018.6102000000028,152,4,1018.6102999999969,152,,,,1022.3987000000029,1022.8933999999908,1021.8872000000028,1022.3985999999938,1019.615599999994,1021.8870999999938,1022.8933999999908,1023.3932000000027,1023.3932999999968,1025.154200000003,1433,1025.1542999999967,4,1025.1544999999999,4,2,122,22,1,1.2,0.3,Time
,,409,001,女,22,2025-06-03_23h00.04.697,Serial_Dependence_U,2023.2.3,Win32,90.09009009027906,,,,,,1025.1547000000028,325,4,1025.1547000000028,325,,,,1028.7102000000027,1029.2040999999938,1028.198899999991,1028.7102000000027,1026.160099999994,1028.198799999997,1029.2040999999938,1029.704399999991,1029.7044999999998,1031.6762000000028,1469,1031.6762000000028,5,1031.676299999997,4,3,123,16,1,1,0.7,Time
,,409,001,女,22,2025-06-03_23h00.04.697,Serial_Dependence_U,2023.2.3,Win32,90.09009009027906,,,,,,1031.6764999999998,54,4,1031.6764999999998,54,,,,1035.0185,1035.5152000000028,1034.5093999999908,1035.0183999999908,1032.6760999999938,1034.5092999999968,1035.5152999999968,1036.015399999991,1036.0154999999997,1037.8267000000028,1532,1037.8267000000028,5,1037.8270999999938,4,4,124,15,1,0.8,0.7,Time
,,409,001,女,22,2025-06-03_23h00.04.697,Serial_Dependence_U,2023.2.3,Win32,90.09009009027906,,,,,,1037.8273999999908,254,4,1037.827599999994,254,,,,1041.5824999999998,1042.082099999994,1041.0759999999998,1041.5822999999968,1038.837899999991,1041.0759999999998,1042.082099999994,1042.5819999999999,1042.5819999999999,1044.7763999999909,1789,1044.7763999999909,5,1044.7765999999938,4,5,125,7,1,1.2,0.7,Time
,,409,001,女,22,2025-06-03_23h00.04.697,Serial_Dependence_U,2023.2.3,Win32,90.09009009027906,,,,,,1044.776799999997,235,4,1044.776899999991,235,,,,1048.9268999999908,1049.4265999999939,1048.420799999997,1048.9267999999968,1045.7852000000028,1048.4207000000029,1049.4265999999939,1049.928700000003,1049.928799999997,1051.7319999999997,1497,1051.7319999999997,2,1051.7322000000029,4,6,126,9,1,1.6,0.7,Time
,,409,001,女,22,2025-06-03_23h00.04.697,Serial_Dependence_U,2023.2.3,Win32,90.09009009027906,,,,,,1051.732399999991,340,4,1051.7324999999998,340,,,,1055.8767999999968,1056.3709999999999,1055.3762000000029,1055.8767000000028,1052.737899999991,1055.3760999999938,1056.371099999994,1056.8708999999908,1056.8709999999999,1058.7655999999938,1425,1058.7657000000029,2,1058.765799999997,4,7,127,29,1,1.6,0.7,Time
,,409,001,女,22,2025-06-03_23h00.04.697,Serial_Dependence_U,2023.2.3,Win32,90.09009009027906,,,,,,1058.7659999999998,3,4,1058.7659999999998,3,,,,1062.3187000000028,1062.8153999999909,1061.8107000000027,1062.318599999994,1059.771299999997,1061.8105999999939,1062.8155,1063.3153999999909,1063.3153999999909,1065.4657000000027,1507,1065.4657999999968,5,1065.466,4,8,128,26,1,1,0.7,Time
,,409,001,女,22,2025-06-03_23h00.04.697,Serial_Dependence_U,2023.2.3,Win32,90.09009009027906,,,,,,1065.4662999999969,203,4,1065.466399999991,203,,,,1069.041,1069.537599999994,1068.5317999999968,1069.041,1066.4640999999938,1068.5317999999968,1069.537599999994,1070.0377000000028,1070.0377000000028,1072.0542999999968,1618,1072.0542999999968,5,1072.0544999999997,4,9,129,1,1,1,0.3,Time
,,409,001,女,22,2025-06-03_23h00.04.697,Serial_Dependence_U,2023.2.3,Win32,90.09009009027906,,,,,,1072.054799999997,143,4,1072.054799999997,143,,,,1075.8432000000028,1076.3387000000027,1075.3317999999967,1075.8432000000028,1073.0629999999999,1075.331700000003,1076.3387000000027,1076.8377999999968,1076.837899999991,1079.1933999999908,1669,1079.1934999999999,5,1079.1937999999968,4,10,130,12,1,1.2,0.3,Time
,,409,001,女,22,2025-06-03_23h00.04.697,Serial_Dependence_U,2023.2.3,Win32,90.09009009027906,,,,,,1079.1940999999938,5,4,1079.194299999997,5,,,,1083.149700000003,1083.649099999994,1082.6430999999939,1083.1495999999938,1080.2074999999998,1082.6429999999998,1083.649099999994,1084.1488999999908,1084.149,1086.271599999994,1691,1086.2717000000027,4,1086.272,4,11,131,18,1,1.4,0.7,Time
,,409,001,女,22,2025-06-03_23h00.04.697,Serial_Dependence_U,2023.2.3,Win32,90.09009009027906,,,,,,1086.272399999991,359,4,1086.2724999999998,359,,,,1090.260599999994,1090.759899999991,1089.754,1090.260299999997,1087.2879999999998,1089.754,1090.759899999991,1091.259899999991,1091.259899999991,1093.1937999999968,1456,1093.1939999999997,3,1093.194399999991,4,12,132,23,1,1.4,0.3,Time
,,409,001,女,22,2025-06-03_23h00.04.697,Serial_Dependence_U,2023.2.3,Win32,90.09009009027906,,,,,,1093.195,318,4,1093.1952000000028,318,,,,1097.349399999991,1097.8488999999909,1096.8432000000028,1097.3492000000028,1094.1978999999908,1096.843099999994,1097.849,1098.3487999999968,1098.3487999999968,1099.732599999994,1052,1099.7327000000028,1,1099.7327999999968,4,13,133,19,1,1.6,0.7,Time
,,409,001,女,22,2025-06-03_23h00.04.697,Serial_Dependence_U,2023.2.3,Win32,90.09009009027906,,,,,,1099.7328999999909,33,4,1099.7329999999997,33,,,,1103.7213999999908,1104.2154999999998,1103.2052000000028,1103.7212999999967,1100.7382999999968,1103.205,1104.2154999999998,1104.716099999994,1104.716099999994,1106.6047999999969,1568,1106.6049999999998,4,1106.6053999999908,4,14,134,13,1,1.4,0.3,Time
,,409,001,女,22,2025-06-03_23h00.04.697,Serial_Dependence_U,2023.2.3,Win32,90.09009009027906,,,,,,1106.6057000000028,231,4,1106.6057999999969,231,,,,1110.385599999994,1110.8823999999909,1109.8829999999998,1110.3854999999999,1107.6205999999938,1109.882799999997,1110.8823999999909,1111.3870999999938,1111.3872000000028,1113.332099999994,1611,1113.332099999994,5,1113.3322000000028,4,15,135,2,1,1.2,0.3,Time
,,409,001,女,22,2025-06-03_23h00.04.697,Serial_Dependence_U,2023.2.3,Win32,90.09009009027906,,,,,,1113.332399999991,2,4,1113.332399999991,2,,,,1117.5187999999969,1118.0154999999997,1117.0077000000028,1117.5187999999969,1114.338299999997,1117.0075999999938,1118.0155999999938,1118.5155999999938,1118.5155999999938,1120.498899999991,1611,1120.498899999991,3,1120.4990999999939,4,16,136,4,1,1.6,0.3,Time
,,409,001,女,22,2025-06-03_23h00.04.697,Serial_Dependence_U,2023.2.3,Win32,90.09009009027906,,,,,,1120.4992999999968,199,4,1120.4993999999908,199,,,,1124.6829999999998,1125.1822999999968,1124.1764999999998,1124.6827999999969,1121.505099999994,1124.176399999991,1125.1823999999908,1125.6825,1125.682599999994,1127.7322000000029,1708,1127.732299999997,4,1127.732399999991,4,17,137,24,1,1.6,0.3,Time
,,409,001,女,22,2025-06-03_23h00.04.697,Serial_Dependence_U,2023.2.3,Win32,90.09009009027906,,,,,,1127.7327000000028,62,4,1127.7327000000028,62,,,,1131.485700000003,1131.982299999997,1130.976399999991,1131.485700000003,1128.7410999999938,1130.976399999991,1131.982399999991,1132.4829999999997,1132.4829999999997,1134.5099999999998,1713,1134.5100999999938,5,1134.510299999997,4,18,138,17,1,1.2,0.7,Time
,,409,001,女,22,2025-06-03_23h00.04.697,Serial_Dependence_U,2023.2.3,Win32,90.09009009027906,,,,,,1134.5104999999999,25,4,1134.510599999994,25,,,,1138.082799999997,1138.5824999999998,1137.5763999999908,1138.0825999999938,1135.5077000000028,1137.5763999999908,1138.5824999999998,1139.0822999999968,1139.082399999991,1141.2300999999939,1831,1141.2300999999939,5,1141.2302999999968,4,19,139,11,1,1,0.3,Time
,,409,001,女,22,2025-06-03_23h00.04.697,Serial_Dependence_U,2023.2.3,Win32,90.09009009027906,,,,,,1141.2305,170,4,1141.2305,170,,,,1144.582799999997,1145.0822999999968,1144.076599999994,1144.582700000003,1142.2383999999909,1144.076599999994,1145.082399999991,1145.5822999999968,1145.5822999999968,1147.6882999999968,1798,1147.6882999999968,5,1147.688399999991,4,20,140,25,1,0.8,0.7,Time
,,409,001,女,22,2025-06-03_23h00.04.697,Serial_Dependence_U,2023.2.3,Win32,90.09009009027906,,,,,,1147.6885999999938,53,4,1147.6887000000029,53,,,,1151.0745,1151.5712999999969,1150.5652999999968,1151.0742999999968,1148.6965999999939,1150.5652000000027,1151.571399999991,1152.0715999999939,1152.0715999999939,1154.1968999999908,1631,1154.1968999999908,5,1154.197,4,21,141,20,1,0.8,0.3,Time
,,409,001,女,22,2025-06-03_23h00.04.697,Serial_Dependence_U,2023.2.3,Win32,90.09009009027906,,,,,,1154.1972000000028,153,4,1154.1972999999969,153,,,,1157.5742999999968,1158.0714999999998,1157.0653999999909,1157.5742000000027,1155.1989999999998,1157.0653999999909,1158.0715999999939,1158.571399999991,1158.571399999991,1160.4777000000029,1587,1160.4777000000029,5,1160.477799999997,4,22,142,10,1,0.8,0.3,Time
,,409,001,女,22,2025-06-03_23h00.04.697,Serial_Dependence_U,2023.2.3,Win32,90.09009009027906,,,,,,1160.478099999994,12,4,1160.4782000000027,12,,,,1164.4272000000028,1164.927,1163.9210999999939,1164.427099999994,1161.476799999997,1163.9209999999998,1164.927099999994,1165.4267999999968,1165.4268999999908,1167.4990999999939,1778,1167.4990999999939,4,1167.4992000000027,4,23,143,8,1,1.4,0.7,Time
,,409,001,女,22,2025-06-03_23h00.04.697,Serial_Dependence_U,2023.2.3,Win32,90.09009009027906,,,,,,1167.4992999999968,276,4,1167.4995,276,,,,1171.4834999999998,1171.982299999997,1170.9765999999938,1171.483399999991,1168.505099999994,1170.9765999999938,1171.982399999991,1172.4824999999998,1172.482599999994,1174.2057999999968,1358,1174.206,3,1174.2065999999938,4,24,144,3,1,1.4,0.3,Time
,,409,001,女,22,2025-06-03_23h00.04.697,Serial_Dependence_U,2023.2.3,Win32,90.09009009027906,,,,,,1174.2067999999967,339,4,1174.2068999999908,339,,,,1178.382799999997,1178.8832000000027,1177.8767999999968,1178.382799999997,1175.2162000000028,1177.8767000000028,1178.8832999999968,1179.3823999999909,1179.3825999999938,1181.6492999999969,1682,1181.649399999991,4,1181.649700000003,4,25,145,14,1,1.6,0.3,Time
,,409,001,女,22,2025-06-03_23h00.04.697,Serial_Dependence_U,2023.2.3,Win32,90.09009009027906,,,,,,1181.6499999999999,67,4,1181.6502000000028,67,,,,1185.0415999999939,1185.5379999999998,1184.527599999994,1185.0415999999939,1182.660899999991,1184.5273999999908,1185.5380999999938,1186.0380999999938,1186.038200000003,1188.271599999994,1938,1188.271599999994,5,1188.2720999999938,4,26,146,0,1,0.8,0.3,Time
,,409,001,女,22,2025-06-03_23h00.04.697,Serial_Dependence_U,2023.2.3,Win32,90.09009009027906,,,,,,1188.2725999999939,213,4,1188.2727999999968,213,,,,1191.632099999994,1192.1270999999938,1191.120700000003,1191.632099999994,1189.2827999999968,1191.1205999999938,1192.1270999999938,1192.630099999994,1192.630099999994,1194.9772000000028,1934,1194.9772000000028,5,1194.9772999999968,4,27,147,5,1,0.8,0.7,Time
,,409,001,女,22,2025-06-03_23h00.04.697,Serial_Dependence_U,2023.2.3,Win32,90.09009009027906,,,,,,1194.9775999999938,147,4,1194.9777000000029,147,,,,1198.7164999999998,1199.2158999999908,1198.209099999994,1198.7162999999969,1195.976799999997,1198.2089999999998,1199.216,1199.7158999999908,1199.716,1201.9993999999908,1895,1201.9993999999908,5,1201.9995,4,28,148,27,1,1.2,0.7,Time
,,409,001,女,22,2025-06-03_23h00.04.697,Serial_Dependence_U,2023.2.3,Win32,90.09009009027906,,,,,,1201.9997000000028,214,4,1201.9997999999969,214,,,,1205.5718999999908,1206.0714999999998,1205.0635999999938,1205.5717999999968,1202.997799999997,1205.0634999999997,1206.0715999999939,1206.571399999991,1206.5714999999998,1208.6937999999968,1795,1208.693899999991,5,1208.6942000000029,4,29,149,21,1,1,0.3,Time
,,409,001,女,22,2025-06-03_23h00.04.697,Serial_Dependence_U,2023.2.3,Win32,90.09009009027906,,,,,,1208.6944999999998,324,5,1249.6939999999997,324,s,40.978000000000065,,1253.471899999991,1253.971899999991,1252.9657999999968,1253.4717999999968,1250.705299999997,1252.9657999999968,1253.971899999991,1254.4717000000028,1254.471899999991,1256.4548999999909,1667,1256.4548999999909,5,1256.4552000000028,5,0,150,22,1,1.2,0.3,Time
,,409,001,女,22,2025-06-03_23h00.04.697,Serial_Dependence_U,2023.2.3,Win32,90.09009009027906,,,,,,1256.455299999997,323,5,1256.456,323,,,,1260.005399999991,1260.5049999999999,1259.4997999999969,1260.0052000000028,1257.4638999999909,1259.499599999994,1260.505099999994,1261.0047999999967,1261.0048999999908,1262.777899999991,1491,1262.7779999999998,5,1262.7782000000027,5,1,151,6,1,1,0.7,Time
,,409,001,女,22,2025-06-03_23h00.04.697,Serial_Dependence_U,2023.2.3,Win32,90.09009009027906,,,,,,1262.7785,144,5,1262.7787000000028,144,,,,1266.5635999999938,1267.0607000000027,1266.0547000000029,1266.5635999999938,1263.7862000000027,1266.0545999999938,1267.0607000000027,1267.5605999999939,1267.5607000000027,1269.832700000003,1980,1269.832799999997,5,1269.832799999997,5,2,152,12,1,1.2,0.3,Time
,,409,001,女,22,2025-06-03_23h00.04.697,Serial_Dependence_U,2023.2.3,Win32,90.09009009027906,,,,,,1269.833099999994,163,5,1269.833099999994,163,,,,1273.186299999997,1273.683200000003,1272.6767999999968,1273.1862000000028,1270.839,1272.6767999999968,1273.683299999997,1274.1829999999998,1274.1829999999998,1276.6552000000029,1889,1276.6552000000029,5,1276.655299999997,5,3,153,5,1,0.8,0.7,Time
,,409,001,女,22,2025-06-03_23h00.04.697,Serial_Dependence_U,2023.2.3,Win32,90.09009009027906,,,,,,1276.6554999999998,278,5,1276.6554999999998,278,,,,1280.827599999994,1281.329599999994,1280.3214999999998,1280.8274999999999,1277.6609999999998,1280.3214999999998,1281.329599999994,1281.827599999994,1281.8277000000028,1284.3769999999997,2162,1284.3770999999938,5,1284.3772000000029,5,4,154,14,1,1.6,0.3,Time
,,409,001,女,22,2025-06-03_23h00.04.697,Serial_Dependence_U,2023.2.3,Win32,90.09009009027906,,,,,,1284.3774999999998,149,5,1284.3774999999998,149,,,,1288.1612000000027,1288.6607000000029,1287.650099999994,1288.161099999994,1285.3832999999968,1287.6498999999908,1288.660799999997,1289.1607000000029,1289.160799999997,1291.5607999999968,1857,1291.5608999999909,5,1291.5612000000028,5,5,155,2,1,1.2,0.3,Time
,,409,001,女,22,2025-06-03_23h00.04.697,Serial_Dependence_U,2023.2.3,Win32,90.09009009027906,,,,,,1291.5617000000027,0,5,1291.5618999999908,0,,,,1295.1055,1295.6049999999998,1294.5990999999938,1295.1052999999968,1292.565899999991,1294.599,1295.6049999999998,1296.1050999999939,1296.105200000003,1298.5000999999938,2112,1298.5000999999938,5,1298.500200000003,5,6,156,26,1,1,0.7,Time
,,409,001,女,22,2025-06-03_23h00.04.697,Serial_Dependence_U,2023.2.3,Win32,90.09009009027906,,,,,,1298.5004999999999,187,5,1298.5004999999999,187,,,,1302.249899999991,1302.7493999999908,1301.7438999999908,1302.2497999999969,1299.505399999991,1301.7437999999968,1302.7495,1303.249599999994,1303.2497000000028,1305.5498999999909,1975,1305.5499999999997,5,1305.550299999997,5,7,157,17,1,1.2,0.7,Time
,,409,001,女,22,2025-06-03_23h00.04.697,Serial_Dependence_U,2023.2.3,Win32,90.09009009027906,,,,,,1305.5507999999968,342,5,1305.5508999999909,342,,,,1308.899799999997,1309.394200000003,1308.3992999999969,1308.899799999997,1306.5610999999938,1308.3992000000028,1309.394200000003,1309.8940999999938,1309.894200000003,1312.455399999991,2256,1312.455399999991,5,1312.4555999999939,5,8,158,15,1,0.8,0.7,Time
,,409,001,女,22,2025-06-03_23h00.04.697,Serial_Dependence_U,2023.2.3,Win32,90.09009009027906,,,,,,1312.4558999999908,249,5,1312.4558999999908,249,,,,1316.3972000000028,1316.893899999991,1315.8882000000028,1316.3972000000028,1313.4505,1315.8882000000028,1316.8939999999998,1317.3864999999998,1317.3864999999998,1318.2195999999938,509,1318.2195999999938,1,1318.2197000000028,5,9,159,8,1,1.4,0.7,Time
,,409,001,女,22,2025-06-03_23h00.04.697,Serial_Dependence_U,2023.2.3,Win32,90.09009009027906,,,,,,1318.219899999991,29,5,1318.2199999999998,29,,,,1322.405599999994,1322.9050999999938,1321.8994999999998,1322.4053999999908,1319.227799999997,1321.8994999999998,1322.9050999999938,1323.405299999997,1323.405299999997,1325.3052999999968,1478,1325.3055,2,1325.305799999997,5,10,160,24,1,1.6,0.3,Time
,,409,001,女,22,2025-06-03_23h00.04.697,Serial_Dependence_U,2023.2.3,Win32,90.09009009027906,,,,,,1325.3062999999968,109,5,1325.3063999999908,109,,,,1328.8977000000027,1329.393899999991,1328.388399999991,1328.8975999999939,1326.316899999991,1328.388299999997,1329.393899999991,1329.8939999999998,1329.8940999999938,1331.9440999999938,1756,1331.9440999999938,5,1331.944299999997,5,11,161,11,1,1,0.3,Time
,,409,001,女,22,2025-06-03_23h00.04.697,Serial_Dependence_U,2023.2.3,Win32,90.09009009027906,,,,,,1331.944399999991,297,5,1331.944599999994,297,,,,1336.105599999994,1336.6052999999968,1335.5994999999998,1336.1053999999908,1332.9552000000028,1335.5994999999998,1336.6052999999968,1337.1052999999968,1337.1052999999968,1338.8868999999909,1472,1338.8868999999909,2,1338.887,5,12,162,9,1,1.6,0.7,Time
,,409,001,女,22,2025-06-03_23h00.04.697,Serial_Dependence_U,2023.2.3,Win32,90.09009009027906,,,,,,1338.8872000000028,116,5,1338.887299999997,116,,,,1343.027899999991,1343.5275,1342.521599999994,1343.027799999997,1339.8837999999969,1342.521599999994,1343.5275,1344.0273999999908,1344.027599999994,1346.0000999999938,1690,1346.0000999999938,4,1346.000200000003,5,13,163,29,1,1.6,0.7,Time
,,409,001,女,22,2025-06-03_23h00.04.697,Serial_Dependence_U,2023.2.3,Win32,90.09009009027906,,,,,,1346.0003999999908,294,5,1346.0003999999908,294,,,,1349.5834999999997,1350.0832000000028,1349.0772999999967,1349.583399999991,1347.0082999999968,1349.0772999999967,1350.0832000000028,1350.5832000000028,1350.5832000000028,1352.675399999991,1886,1352.675399999991,5,1352.6754999999998,5,14,164,21,1,1,0.3,Time
,,409,001,女,22,2025-06-03_23h00.04.697,Serial_Dependence_U,2023.2.3,Win32,90.09009009027906,,,,,,1352.6757999999968,293,5,1352.6758999999909,293,,,,1356.0502000000029,1356.5497000000028,1355.5438999999908,1356.0499999999997,1353.6752000000029,1355.5438999999908,1356.5497000000028,1357.0500999999938,1357.050299999997,1359.2329999999997,1944,1359.2330999999938,5,1359.2332000000029,5,15,165,20,1,0.8,0.3,Time
,,409,001,女,22,2025-06-03_23h00.04.697,Serial_Dependence_U,2023.2.3,Win32,90.09009009027906,,,,,,1359.233299999997,148,5,1359.2334999999998,148,,,,1362.9723999999908,1363.4717999999968,1362.466,1362.972299999997,1360.2330999999938,1362.4658999999908,1363.471899999991,1363.9722000000029,1363.9722000000029,1365.975399999991,1777,1365.9754999999998,5,1365.9755999999938,5,16,166,7,1,1.2,0.7,Time
,,409,001,女,22,2025-06-03_23h00.04.697,Serial_Dependence_U,2023.2.3,Win32,90.09009009027906,,,,,,1365.9758999999908,311,5,1365.9758999999908,311,,,,1370.1615,1370.660799999997,1369.6553999999908,1370.1612999999968,1366.9837000000027,1369.6553999999908,1370.660899999991,1371.160899999991,1371.160899999991,1373.238899999991,1734,1373.238899999991,4,1373.2392999999968,5,17,167,4,1,1.6,0.3,Time
,,409,001,女,22,2025-06-03_23h00.04.697,Serial_Dependence_U,2023.2.3,Win32,90.09009009027906,,,,,,1373.239599999994,226,5,1373.2397999999969,226,,,,1377.228099999994,1377.7275999999938,1376.7217999999968,1377.227899999991,1374.255700000003,1376.7217999999968,1377.7275999999938,1378.2277000000029,1378.227899999991,1380.5557000000028,1947,1380.5557000000028,5,1380.555799999997,5,18,168,3,1,1.4,0.3,Time
,,409,001,女,22,2025-06-03_23h00.04.697,Serial_Dependence_U,2023.2.3,Win32,90.09009009027906,,,,,,1380.5559999999998,97,5,1380.5560999999939,97,,,,1384.7084999999997,1385.205299999997,1384.199899999991,1384.7084999999997,1381.561299999997,1384.199899999991,1385.205399999991,1385.7052000000028,1385.705399999991,1388.2055999999939,1920,1388.2055999999939,4,1388.206,5,19,169,19,1,1.6,0.7,Time
,,409,001,女,22,2025-06-03_23h00.04.697,Serial_Dependence_U,2023.2.3,Win32,90.09009009027906,,,,,,1388.206399999991,132,5,1388.2064999999998,132,,,,1392.1502000000028,1392.649799999997,1391.6432000000027,1392.1499999999999,1389.208799999997,1391.6430999999939,1392.649799999997,1393.1499999999999,1393.150099999994,1395.5977000000028,2056,1395.5977000000028,5,1395.5977999999968,5,20,170,18,1,1.4,0.7,Time
,,409,001,女,22,2025-06-03_23h00.04.697,Serial_Dependence_U,2023.2.3,Win32,90.09009009027906,,,,,,1395.5979999999997,227,5,1395.5980999999938,227,,,,1399.3504999999998,1399.8497999999968,1398.843099999994,1399.3502999999969,1396.610700000003,1398.843099999994,1399.8498999999908,1400.350099999994,1400.350099999994,1402.6502000000028,1968,1402.650399999991,5,1402.650899999991,5,21,171,27,1,1.2,0.7,Time
,,409,001,女,22,2025-06-03_23h00.04.697,Serial_Dependence_U,2023.2.3,Win32,90.09009009027906,,,,,,1402.6513999999909,332,5,1402.6517000000028,332,,,,1406.2330999999938,1406.727899999991,1405.7224999999999,1406.2329999999997,1403.654599999994,1405.7223999999908,1406.7279999999998,1407.2275999999938,1407.2277000000029,1409.2107000000028,1741,1409.2107000000028,5,1409.210899999991,5,22,172,1,1,1,0.3,Time
,,409,001,女,22,2025-06-03_23h00.04.697,Serial_Dependence_U,2023.2.3,Win32,90.09009009027906,,,,,,1409.211200000003,326,5,1409.2113999999908,326,,,,1412.5977000000028,1413.0942999999968,1412.0887000000027,1412.5977000000028,1410.2219999999998,1412.0887000000027,1413.0943999999909,1413.5945999999938,1413.5947000000028,1415.4333999999908,1511,1415.4333999999908,5,1415.433599999994,5,23,173,0,1,0.8,0.3,Time
,,409,001,女,22,2025-06-03_23h00.04.697,Serial_Dependence_U,2023.2.3,Win32,90.09009009027906,,,,,,1415.4337999999968,259,5,1415.433899999991,259,,,,1419.417099999994,1419.9165999999939,1418.9112000000027,1419.4168999999908,1416.4393999999909,1418.9112000000027,1419.9167000000027,1420.4167000000027,1420.4167000000027,1422.5332000000028,1767,1422.5332000000028,4,1422.533399999991,5,24,174,23,1,1.4,0.3,Time
,,409,001,女,22,2025-06-03_23h00.04.697,Serial_Dependence_U,2023.2.3,Win32,90.09009009027906,,,,,,1422.5334999999998,12,5,1422.5335999999938,12,,,,1426.0863999999908,1426.5832000000028,1425.5779999999997,1426.0863999999908,1423.5394999999999,1425.577899999991,1426.5832000000028,1427.0832999999968,1427.0832999999968,1429.4333999999908,2089,1429.4333999999908,5,1429.433599999994,5,25,175,16,1,1,0.7,Time
,,409,001,女,22,2025-06-03_23h00.04.697,Serial_Dependence_U,2023.2.3,Win32,90.09009009027906,,,,,,1429.4337999999968,301,5,1429.433899999991,301,,,,1432.8065,1433.3057000000028,1432.295099999994,1432.8063999999908,1430.432899999991,1432.294899999991,1433.305799999997,1433.8055,1433.8055,1436.333399999991,2245,1436.333399999991,5,1436.3334999999997,5,26,176,10,1,0.8,0.3,Time
,,409,001,女,22,2025-06-03_23h00.04.697,Serial_Dependence_U,2023.2.3,Win32,90.09009009027906,,,,,,1436.333799999997,70,5,1436.333899999991,70,,,,1440.2838999999908,1440.7838999999908,1439.777599999994,1440.2837999999967,1437.343099999994,1439.7775,1440.7838999999908,1441.283399999991,1441.2834999999998,1443.2392999999968,1711,1443.2393999999908,4,1443.2397000000028,5,27,177,28,1,1.4,0.7,Time
,,409,001,女,22,2025-06-03_23h00.04.697,Serial_Dependence_U,2023.2.3,Win32,90.09009009027906,,,,,,1443.2400999999938,230,5,1443.2400999999938,230,,,,1447.2282000000027,1447.727799999997,1446.7219999999998,1447.228099999994,1444.2552999999969,1446.7219999999998,1447.727899999991,1448.228099999994,1448.2282000000027,1450.2057999999968,1733,1450.2058999999908,4,1450.2062999999969,5,28,178,13,1,1.4,0.3,Time
,,409,001,女,22,2025-06-03_23h00.04.697,Serial_Dependence_U,2023.2.3,Win32,90.09009009027906,,,,,,1450.2067999999967,85,5,1450.2069999999999,85,,,,1453.5617000000027,1454.0610999999938,1453.0553999999909,1453.5614999999998,1451.217399999991,1453.0553999999909,1454.0610999999938,1454.5612000000028,1454.561299999997,1456.900099999994,2083,1456.900099999994,5,1456.9002999999968,5,29,179,25,1,0.8,0.7,Time
,,409,001,女,22,2025-06-03_23h00.04.697,Serial_Dependence_U,2023.2.3,Win32,90.09009009027906,,,,,,1456.900399999991,348,6,1460.3612999999968,348,s,3.4446000000091317,,1464.144200000003,1464.6392000000028,1463.6332000000027,1464.1440999999938,1461.3618999999908,1463.6332000000027,1464.6392999999969,1465.139,1465.139099999994,1467.4222999999968,2001,1467.4223999999908,5,1467.422599999994,6,0,180,22,1,1.2,0.3,Time
,,409,001,女,22,2025-06-03_23h00.04.697,Serial_Dependence_U,2023.2.3,Win32,90.09009009027906,,,,,,1467.4227999999969,297,6,1467.423599999994,297,,,,1471.372899999991,1471.8723999999909,1470.8663999999908,1471.3725999999938,1468.4285999999938,1470.866299999997,1471.8723999999909,1472.3722999999968,1472.3722999999968,1474.765799999997,2143,1474.765799999997,5,1474.7658999999908,6,1,181,28,1,1.4,0.7,Time
,,409,001,女,22,2025-06-03_23h00.04.697,Serial_Dependence_U,2023.2.3,Win32,90.09009009027906,,,,,,1474.766099999994,173,6,1474.7662000000028,173,,,,1478.3432999999968,1478.839,1477.8335999999938,1478.3432999999968,1475.773099999994,1477.8334999999997,1478.839,1479.339,1479.339,1482.1612999999968,2428,1482.1613999999909,5,1482.161799999997,6,2,182,1,1,1,0.3,Time
,,409,001,女,22,2025-06-03_23h00.04.697,Serial_Dependence_U,2023.2.3,Win32,90.09009009027906,,,,,,1482.1620999999939,274,6,1482.1622999999968,274,,,,1485.7507000000028,1486.2500999999938,1485.2442999999969,1485.7504999999999,1483.1727999999969,1485.2442000000028,1486.2500999999938,1486.7504999999999,1486.7504999999999,1489.105899999991,1984,1489.1059999999998,5,1489.1063999999908,6,3,183,11,1,1,0.3,Time
,,409,001,女,22,2025-06-03_23h00.04.697,Serial_Dependence_U,2023.2.3,Win32,90.09009009027906,,,,,,1489.1067000000028,13,6,1489.1069999999997,13,,,,1492.6620999999939,1493.1612999999968,1492.1557000000028,1492.661899999991,1490.1174999999998,1492.1557000000028,1493.1613999999909,1493.6613999999909,1493.6615,1495.8118999999908,1878,1495.812,5,1495.812099999994,6,4,184,26,1,1,0.7,Time
,,409,001,女,22,2025-06-03_23h00.04.697,Serial_Dependence_U,2023.2.3,Win32,90.09009009027906,,,,,,1495.812399999991,119,6,1495.8124999999998,119,,,,1499.1840999999938,1499.6767999999968,1498.677700000003,1499.183899999991,1496.811,1498.6775999999938,1499.6767999999968,1500.1723999999908,1500.1725,1502.400099999994,1889,1502.400099999994,5,1502.400099999994,6,5,185,10,1,0.8,0.3,Time
,,409,001,女,22,2025-06-03_23h00.04.697,Serial_Dependence_U,2023.2.3,Win32,90.09009009027906,,,,,,1502.400399999991,147,6,1502.4004999999997,147,,,,1505.950799999997,1506.450599999994,1505.4444999999998,1505.950599999994,1503.406399999991,1505.444399999991,1506.4507000000028,1506.9502000000027,1506.9502999999968,1509.544799999997,2300,1509.544899999991,5,1509.545099999994,6,6,186,6,1,1,0.7,Time
,,409,001,女,22,2025-06-03_23h00.04.697,Serial_Dependence_U,2023.2.3,Win32,90.09009009027906,,,,,,1509.5453999999909,207,6,1509.5454999999997,207,,,,1513.6954999999998,1514.1947999999968,1513.1892999999968,1513.695399999991,1510.5504999999998,1513.1892000000028,1514.1948999999909,1514.6957000000027,1514.6957000000027,1516.8837999999969,1834,1516.883899999991,4,1516.884200000003,6,7,187,29,1,1.6,0.7,Time
,,409,001,女,22,2025-06-03_23h00.04.697,Serial_Dependence_U,2023.2.3,Win32,90.09009009027906,,,,,,1516.884599999994,264,6,1516.8847999999969,264,,,,1520.4422999999967,1520.9392000000028,1519.9333999999908,1520.4422999999967,1517.8957999999968,1519.9333999999908,1520.9392000000028,1521.4392999999968,1521.4392999999968,1523.233399999991,1554,1523.2334999999998,5,1523.2334999999998,6,8,188,16,1,1,0.7,Time
,,409,001,女,22,2025-06-03_23h00.04.697,Serial_Dependence_U,2023.2.3,Win32,90.09009009027906,,,,,,1523.2337999999968,125,6,1523.2338999999909,125,,,,1526.6102999999969,1527.105899999991,1526.1002000000028,1526.6102999999969,1524.2395,1526.1002000000028,1527.1059999999998,1527.6064999999999,1527.6064999999999,1529.4392999999968,1563,1529.4393999999909,5,1529.4397000000029,6,9,189,0,1,0.8,0.3,Time
,,409,001,女,22,2025-06-03_23h00.04.697,Serial_Dependence_U,2023.2.3,Win32,90.09009009027906,,,,,,1529.440099999994,225,6,1529.4402000000027,225,,,,1533.584099999994,1534.0834999999997,1533.077899999991,1533.583899999991,1530.4422999999967,1533.0777999999968,1534.0835999999938,1534.5837000000029,1534.583899999991,1536.5669999999998,1696,1536.5669999999998,4,1536.5672999999967,6,10,190,9,1,1.6,0.7,Time
,,409,001,女,22,2025-06-03_23h00.04.697,Serial_Dependence_U,2023.2.3,Win32,90.09009009027906,,,,,,1536.567599999994,2,6,1536.5677000000028,2,,,,1540.5220999999938,1541.017099999994,1540.0110999999938,1540.5220999999938,1537.5729999999999,1540.0110999999938,1541.0172000000027,1541.5169999999998,1541.5169999999998,1543.611399999991,1854,1543.611399999991,5,1543.6115999999938,6,11,191,18,1,1.4,0.7,Time
,,409,001,女,22,2025-06-03_23h00.04.697,Serial_Dependence_U,2023.2.3,Win32,90.09009009027906,,,,,,1543.611799999997,173,6,1543.611799999997,173,,,,1547.5890999999938,1548.0835999999938,1547.0757000000028,1547.589,1544.611399999991,1547.075599999994,1548.0837000000029,1548.583799999997,1548.583899999991,1550.7177000000029,1861,1550.7177000000029,5,1550.7178999999908,6,12,192,23,1,1.4,0.3,Time
,,409,001,女,22,2025-06-03_23h00.04.697,Serial_Dependence_U,2023.2.3,Win32,90.09009009027906,,,,,,1550.7182999999968,187,6,1550.7183999999909,187,,,,1554.0732999999968,1554.572799999997,1553.566899999991,1554.0732000000028,1551.7285999999938,1553.5667999999969,1554.5728999999908,1555.073099999994,1555.073099999994,1556.9227999999969,1585,1556.9227999999969,5,1556.9229999999998,6,13,193,15,1,0.8,0.7,Time
,,409,001,女,22,2025-06-03_23h00.04.697,Serial_Dependence_U,2023.2.3,Win32,90.09009009027906,,,,,,1556.9232999999967,25,6,1556.9233999999908,25,,,,1560.495399999991,1560.995700000003,1559.9890999999939,1560.4952999999969,1557.9284999999998,1559.9889999999998,1560.995799999997,1561.4948999999908,1561.495099999994,1563.4337999999968,1613,1563.4337999999968,5,1563.4339999999997,6,14,194,21,1,1,0.3,Time
,,409,001,女,22,2025-06-03_23h00.04.697,Serial_Dependence_U,2023.2.3,Win32,90.09009009027906,,,,,,1563.4340999999938,317,6,1563.434299999997,317,,,,1567.1732999999967,1567.672899999991,1566.6675999999939,1567.1732999999967,1564.4325,1566.6674999999998,1567.672899999991,1568.172599999994,1568.1727000000028,1569.977099999994,1541,1569.9772000000028,4,1569.977399999991,6,15,195,27,1,1.2,0.7,Time
,,409,001,女,22,2025-06-03_23h00.04.697,Serial_Dependence_U,2023.2.3,Win32,90.09009009027906,,,,,,1569.9774999999997,41,6,1569.9777000000029,41,,,,1573.7510999999938,1574.2503999999908,1573.245,1573.750899999991,1570.984299999997,1573.245,1574.2503999999908,1574.7503999999908,1574.7503999999908,1576.7558999999908,1711,1576.7558999999908,5,1576.756099999994,6,16,196,2,1,1.2,0.3,Time
,,409,001,女,22,2025-06-03_23h00.04.697,Serial_Dependence_U,2023.2.3,Win32,90.09009009027906,,,,,,1576.756399999991,285,6,1576.7565999999938,285,,,,1580.722899999991,1581.217099999994,1580.222299999997,1580.7227999999968,1577.7559999999999,1580.222299999997,1581.217099999994,1581.717099999994,1581.7172000000028,1583.7338999999909,1765,1583.7338999999909,4,1583.7340999999938,6,17,197,3,1,1.4,0.3,Time
,,409,001,女,22,2025-06-03_23h00.04.697,Serial_Dependence_U,2023.2.3,Win32,90.09009009027906,,,,,,1583.7342000000028,105,6,1583.734399999991,105,,,,1587.075799999997,1587.5732000000028,1586.5669999999998,1587.0757000000028,1584.7337000000027,1586.5669999999998,1587.5732999999968,1588.072700000003,1588.072799999997,1590.111799999997,1756,1590.111799999997,5,1590.112099999994,6,18,198,5,1,0.8,0.7,Time
,,409,001,女,22,2025-06-03_23h00.04.697,Serial_Dependence_U,2023.2.3,Win32,90.09009009027906,,,,,,1590.1122999999968,339,6,1590.1123999999909,339,,,,1593.4847999999968,1593.9838999999909,1592.9779999999998,1593.4847000000027,1591.1107999999967,1592.977899999991,1593.9838999999909,1594.4862000000028,1594.4862000000028,1596.878299999997,2036,1596.878299999997,5,1596.878399999991,6,19,199,20,1,0.8,0.3,Time
,,409,001,女,22,2025-06-03_23h00.04.697,Serial_Dependence_U,2023.2.3,Win32,90.09009009027906,,,,,,1596.8787000000027,222,6,1596.8787999999968,222,,,,1600.2230999999938,1600.717099999994,1599.7175999999938,1600.2229999999997,1597.884200000003,1599.7174999999997,1600.7172000000028,1601.2174999999997,1601.2174999999997,1603.0339999999999,1520,1603.0339999999999,5,1603.0342000000028,6,20,200,25,1,0.8,0.7,Time
,,409,001,女,22,2025-06-03_23h00.04.697,Serial_Dependence_U,2023.2.3,Win32,90.09009009027906,,,,,,1603.0344999999998,202,6,1603.0345999999938,202,,,,1606.7847000000029,1607.2837999999967,1606.2779999999998,1606.7844999999998,1604.0424999999998,1606.277899999991,1607.2837999999967,1607.7839999999999,1607.7839999999999,1609.6395999999938,1571,1609.6395999999938,5,1609.6399999999999,6,21,201,17,1,1.2,0.7,Time
,,409,001,女,22,2025-06-03_23h00.04.697,Serial_Dependence_U,2023.2.3,Win32,90.09009009027906,,,,,,1609.6402999999968,317,6,1609.6407000000029,317,,,,1613.6177000000027,1614.1172000000029,1613.111399999991,1613.6174999999998,1610.650899999991,1613.111399999991,1614.1172000000029,1614.6170999999938,1614.6170999999938,1616.534099999994,1633,1616.534099999994,4,1616.5342000000028,6,22,202,13,1,1.4,0.3,Time
,,409,001,女,22,2025-06-03_23h00.04.697,Serial_Dependence_U,2023.2.3,Win32,90.09009009027906,,,,,,1616.534399999991,94,6,1616.5345999999938,94,,,,1620.676299999997,1621.1727000000028,1620.1672000000028,1620.676299999997,1617.5314999999998,1620.1672000000028,1621.1727000000028,1621.6729999999998,1621.673200000003,1623.534099999994,1624,1623.534099999994,3,1623.5342999999968,6,23,203,19,1,1.6,0.7,Time
,,409,001,女,22,2025-06-03_23h00.04.697,Serial_Dependence_U,2023.2.3,Win32,90.09009009027906,,,,,,1623.5345999999938,105,6,1623.534799999997,105,,,,1627.706700000003,1628.1999999999998,1627.200599999994,1627.7064999999998,1624.531399999991,1627.2005,1628.2000999999939,1628.695399999991,1628.6954999999998,1630.6984999999997,1687,1630.6984999999997,4,1630.6987000000029,6,24,204,4,1,1.6,0.3,Time
,,409,001,女,22,2025-06-03_23h00.04.697,Serial_Dependence_U,2023.2.3,Win32,90.09009009027906,,,,,,1630.698899999991,309,6,1630.699099999994,309,,,,1634.4737999999968,1634.9729999999997,1633.967399999991,1634.473599999994,1631.706700000003,1633.9672999999968,1634.9730999999938,1635.472899999991,1635.472899999991,1637.5228999999908,1711,1637.523,5,1637.523099999994,6,25,205,12,1,1.2,0.3,Time
,,409,001,女,22,2025-06-03_23h00.04.697,Serial_Dependence_U,2023.2.3,Win32,90.09009009027906,,,,,,1637.523399999991,64,6,1637.5234999999998,64,,,,1641.2732000000028,1641.7728999999908,1640.7673999999909,1641.273099999994,1638.5335999999938,1640.7673999999909,1641.7728999999908,1642.273,1642.273099999994,1644.2119999999998,1668,1644.2120999999938,5,1644.212200000003,6,26,206,7,1,1.2,0.7,Time
,,409,001,女,22,2025-06-03_23h00.04.697,Serial_Dependence_U,2023.2.3,Win32,90.09009009027906,,,,,,1644.2123999999908,242,6,1644.212599999994,242,,,,1648.384599999994,1648.8885999999939,1647.878299999997,1648.3842999999968,1645.211599999994,1647.8780999999938,1648.8885999999939,1649.3840999999939,1649.3840999999939,1651.379,1711,1651.379,4,1651.3792000000028,6,27,207,14,1,1.6,0.3,Time
,,409,001,女,22,2025-06-03_23h00.04.697,Serial_Dependence_U,2023.2.3,Win32,90.09009009027906,,,,,,1651.3795999999938,126,6,1651.3797999999967,126,,,,1655.5512000000028,1656.0507000000027,1655.0452999999968,1655.5510999999938,1652.3759999999997,1655.0452000000028,1656.0507999999968,1656.5507999999968,1656.5507999999968,1658.4897999999969,1713,1658.489899999991,4,1658.4899999999998,6,28,208,24,1,1.6,0.3,Time
,,409,001,女,22,2025-06-03_23h00.04.697,Serial_Dependence_U,2023.2.3,Win32,90.09009009027906,,,,,,1658.490200000003,14,6,1658.4902999999968,14,,,,1662.442899999991,1662.9397000000029,1661.9317999999969,1662.442899999991,1659.495799999997,1661.9317000000028,1662.939799999997,1663.4395999999938,1663.4397000000029,1665.4119999999998,1735,1665.4119999999998,4,1665.4122000000027,6,29,209,8,1,1.4,0.7,Time
,,409,001,女,22,2025-06-03_23h00.04.697,Serial_Dependence_U,2023.2.3,Win32,90.09009009027906,,,,,,1665.4122999999968,110,7,1670.506399999991,110,s,5.077900000006139,,1674.084799999997,1674.5843999999909,1673.577599999994,1674.0845,1671.509599999994,1673.5774999999999,1674.5845999999938,1675.0839999999998,1675.084099999994,1677.0670999999938,1720,1677.0670999999938,5,1677.0672999999967,7,0,210,1,1,1,0.3,Time
,,409,001,女,22,2025-06-03_23h00.04.697,Serial_Dependence_U,2023.2.3,Win32,90.09009009027906,,,,,,1677.0677000000028,61,7,1677.0687999999968,61,,,,1680.6205999999938,1681.117399999991,1680.111799999997,1680.6204999999998,1678.0759999999998,1680.111799999997,1681.1174999999998,1681.6177000000027,1681.6177000000027,1683.5177000000028,1648,1683.517799999997,5,1683.5182999999968,7,1,211,26,1,1,0.7,Time
,,409,001,女,22,2025-06-03_23h00.04.697,Serial_Dependence_U,2023.2.3,Win32,90.09009009027906,,,,,,1683.5187999999969,224,7,1683.5190999999938,224,,,,1687.473299999997,1687.9729999999997,1686.967399999991,1687.4732000000029,1684.5317000000027,1686.967399999991,1687.9729999999997,1688.4729999999997,1688.4732000000029,1690.3897999999967,1706,1690.3898999999908,4,1690.3899999999999,7,2,212,18,1,1.4,0.7,Time
,,409,001,女,22,2025-06-03_23h00.04.697,Serial_Dependence_U,2023.2.3,Win32,90.09009009027906,,,,,,1690.3902000000028,47,7,1690.3902999999968,47,,,,1694.162599999994,1694.6622999999968,1693.6564999999998,1694.1623999999908,1691.3894999999998,1693.656399999991,1694.6623999999908,1695.154599999994,1695.154599999994,1696.9677000000029,1621,1696.9677000000029,5,1696.9678999999908,7,3,213,12,1,1.2,0.3,Time
,,409,001,女,22,2025-06-03_23h00.04.697,Serial_Dependence_U,2023.2.3,Win32,90.09009009027906,,,,,,1696.968099999994,12,7,1696.9682000000028,12,,,,1700.351399999991,1700.8509999999999,1699.8450999999939,1700.3512000000028,1697.973599999994,1699.8450999999939,1700.8509999999999,1701.3509999999999,1701.351099999994,1703.3343999999909,1441,1703.3345,5,1703.334799999997,7,4,214,20,1,0.8,0.3,Time
,,409,001,女,22,2025-06-03_23h00.04.697,Serial_Dependence_U,2023.2.3,Win32,90.09009009027906,,,,,,1703.3349999999998,232,7,1703.3350999999939,232,,,,1706.6849999999997,1707.1844999999998,1706.1782999999969,1706.6848999999909,1704.3402000000028,1706.1782999999969,1707.184599999994,1707.684299999997,1707.684399999991,1709.456399999991,1511,1709.4564999999998,5,1709.4565999999938,7,5,215,15,1,0.8,0.7,Time
,,409,001,女,22,2025-06-03_23h00.04.697,Serial_Dependence_U,2023.2.3,Win32,90.09009009027906,,,,,,1709.4567999999967,304,7,1709.4567999999967,304,,,,1713.0117000000027,1713.506399999991,1712.500599999994,1713.0117000000027,1710.4624999999999,1712.5004999999999,1713.5065999999938,1714.006399999991,1714.0064999999997,1715.7223999999908,1405,1715.7223999999908,5,1715.7224999999999,7,6,216,6,1,1,0.7,Time
,,409,001,女,22,2025-06-03_23h00.04.697,Serial_Dependence_U,2023.2.3,Win32,90.09009009027906,,,,,,1715.7227000000028,242,7,1715.7227999999968,242,,,,1719.8994999999998,1720.395299999997,1719.3959999999997,1719.8994999999998,1716.7317000000028,1719.395899999991,1720.395299999997,1720.8953999999908,1720.8953999999908,1722.8902000000028,1678,1722.8902000000028,3,1722.890399999991,7,7,217,24,1,1.6,0.3,Time
,,409,001,女,22,2025-06-03_23h00.04.697,Serial_Dependence_U,2023.2.3,Win32,90.09009009027906,,,,,,1722.8907000000029,250,7,1722.8908999999908,250,,,,1726.873799999997,1727.3733999999909,1726.367299999997,1726.8735999999938,1723.898399999991,1726.3672000000029,1727.3733999999909,1727.8735,1727.8735999999938,1729.9900999999938,1810,1729.990200000003,4,1729.9903999999908,7,8,218,13,1,1.4,0.3,Time
,,409,001,女,22,2025-06-03_23h00.04.697,Serial_Dependence_U,2023.2.3,Win32,90.09009009027906,,,,,,1729.9907000000028,173,7,1729.9907999999969,173,,,,1733.7319999999997,1734.228899999991,1733.2229999999997,1733.731899999991,1730.9874999999997,1733.2229999999997,1734.2289999999998,1734.7310999999938,1734.7310999999938,1736.6957000000027,1578,1736.6957999999968,5,1736.6962000000028,7,9,219,17,1,1.2,0.7,Time
,,409,001,女,22,2025-06-03_23h00.04.697,Serial_Dependence_U,2023.2.3,Win32,90.09009009027906,,,,,,1736.6964999999998,359,7,1736.6968999999908,359,,,,1740.0514999999998,1740.551,1739.5452999999968,1740.051399999991,1737.7067999999967,1739.5452000000028,1740.5512000000028,1741.053399999991,1741.0534999999998,1743.400899999991,1977,1743.400899999991,5,1743.4009999999998,7,10,220,5,1,0.8,0.7,Time
,,409,001,女,22,2025-06-03_23h00.04.697,Serial_Dependence_U,2023.2.3,Win32,90.09009009027906,,,,,,1743.4012000000027,107,7,1743.4012999999968,107,,,,1747.190099999994,1747.684299999997,1746.6785999999938,1747.1899999999998,1744.4098999999908,1746.6784999999998,1747.684299999997,1748.1872000000028,1748.1872999999969,1750.2567000000029,1775,1750.2567000000029,5,1750.256899999991,7,11,221,2,1,1.2,0.3,Time
,,409,001,女,22,2025-06-03_23h00.04.697,Serial_Dependence_U,2023.2.3,Win32,90.09009009027906,,,,,,1750.2569999999998,6,7,1750.2572000000027,6,,,,1754.1958999999908,1754.6957000000027,1753.6899999999998,1754.1957999999968,1751.2564999999997,1753.689799999997,1754.6957999999968,1755.1954999999998,1755.1955999999939,1757.234299999997,1791,1757.234299999997,4,1757.2344999999998,7,12,222,28,1,1.4,0.7,Time
,,409,001,女,22,2025-06-03_23h00.04.697,Serial_Dependence_U,2023.2.3,Win32,90.09009009027906,,,,,,1757.2347000000027,266,7,1757.2347999999968,266,,,,1760.6182000000028,1761.1177000000027,1760.1122000000028,1760.6180999999938,1758.245399999991,1760.112099999994,1761.1177000000027,1761.6178999999909,1761.618,1763.6674999999998,1767,1763.6675999999939,5,1763.667700000003,7,13,223,0,1,0.8,0.3,Time
,,409,001,女,22,2025-06-03_23h00.04.697,Serial_Dependence_U,2023.2.3,Win32,90.09009009027906,,,,,,1763.668,165,7,1763.668099999994,165,,,,1767.4232999999967,1767.917700000003,1766.9099999999999,1767.4232999999967,1764.6737999999968,1766.9098999999908,1767.9177999999968,1768.417700000003,1768.417700000003,1770.534399999991,1834,1770.534399999991,5,1770.5344999999998,7,14,224,7,1,1.2,0.7,Time
,,409,001,女,22,2025-06-03_23h00.04.697,Serial_Dependence_U,2023.2.3,Win32,90.09009009027906,,,,,,1770.5347000000029,120,7,1770.5348999999908,120,,,,1774.4848999999908,1774.9844999999998,1773.9785,1774.4847999999968,1771.5442999999968,1773.9785,1774.9844999999998,1775.4844999999998,1775.4845999999939,1777.223299999997,1335,1777.223399999991,3,1777.223599999994,7,15,225,8,1,1.4,0.7,Time
,,409,001,女,22,2025-06-03_23h00.04.697,Serial_Dependence_U,2023.2.3,Win32,90.09009009027906,,,,,,1777.2237999999968,221,7,1777.2238999999909,221,,,,1780.9763999999907,1781.4732999999967,1780.4677000000027,1780.9762999999969,1778.229599999994,1780.4675999999938,1781.473399999991,1781.975899999991,1781.975899999991,1783.9122000000027,1556,1783.9122000000027,4,1783.9124999999997,7,16,226,27,1,1.2,0.7,Time
,,409,001,女,22,2025-06-03_23h00.04.697,Serial_Dependence_U,2023.2.3,Win32,90.09009009027906,,,,,,1783.9127000000028,163,7,1783.9127000000028,163,,,,1787.4627999999968,1787.962099999994,1786.9563999999907,1787.4625999999937,1784.918200000003,1786.9563999999907,1787.962099999994,1788.4622999999967,1788.462399999991,1790.455700000003,1697,1790.455700000003,5,1790.4557999999968,7,17,227,16,1,1,0.7,Time
,,409,001,女,22,2025-06-03_23h00.04.697,Serial_Dependence_U,2023.2.3,Win32,90.09009009027906,,,,,,1790.456,40,7,1790.4560999999937,40,,,,1793.8073999999908,1794.3067000000026,1793.3008999999909,1793.807299999997,1791.462700000003,1793.300799999997,1794.3067000000026,1794.8067000000026,1794.8067999999969,1796.756299999997,1644,1796.756399999991,5,1796.7564999999997,7,18,228,25,1,0.8,0.7,Time
,,409,001,女,22,2025-06-03_23h00.04.697,Serial_Dependence_U,2023.2.3,Win32,90.09009009027906,,,,,,1796.756899999991,197,7,1796.756899999991,197,,,,1800.923599999994,1801.417899999991,1800.4230999999938,1800.9234999999996,1797.7522999999967,1800.423,1801.417899999991,1801.9177999999968,1801.918,1803.823299999997,1650,1803.823399999991,3,1803.8234999999997,7,19,229,4,1,1.6,0.3,Time
,,409,001,女,22,2025-06-03_23h00.04.697,Serial_Dependence_U,2023.2.3,Win32,90.09009009027906,,,,,,1803.8237000000029,292,7,1803.8237999999967,292,,,,1807.9742000000026,1808.473399999991,1807.4627999999968,1807.974,1804.832099999994,1807.4625999999937,1808.473399999991,1808.973700000003,1808.973700000003,1811.0294999999999,1779,1811.0295999999937,4,1811.03,7,20,230,9,1,1.6,0.7,Time
,,409,001,女,22,2025-06-03_23h00.04.697,Serial_Dependence_U,2023.2.3,Win32,90.09009009027906,,,,,,1811.0307000000028,198,7,1811.031099999994,198,,,,1815.0232999999969,1815.5202999999967,1814.5120999999938,1815.0232000000026,1812.0404999999998,1814.5120999999938,1815.5202999999967,1816.017899999991,1816.017899999991,1818.0235,1621,1818.0235999999938,4,1818.0235999999938,7,21,231,23,1,1.4,0.3,Time
,,409,001,女,22,2025-06-03_23h00.04.697,Serial_Dependence_U,2023.2.3,Win32,90.09009009027906,,,,,,1818.0239999999997,242,7,1818.024099999994,242,,,,1821.61,1822.106899999991,1821.1010999999937,1821.609899999991,1819.029399999991,1821.1009999999999,1822.1069999999997,1822.606899999991,1822.606899999991,1824.5069999999998,1621,1824.5070999999937,5,1824.5075,7,22,232,11,1,1,0.3,Time
,,409,001,女,22,2025-06-03_23h00.04.697,Serial_Dependence_U,2023.2.3,Win32,90.09009009027906,,,,,,1824.5078999999907,58,7,1824.5080999999939,58,,,,1828.087700000003,1828.5847000000028,1827.578899999991,1828.087700000003,1825.51,1827.5787999999968,1828.5847000000028,1829.084599999994,1829.0847000000028,1830.8678999999909,1433,1830.8678999999909,5,1830.868099999994,7,23,233,21,1,1,0.3,Time
,,409,001,女,22,2025-06-03_23h00.04.697,Serial_Dependence_U,2023.2.3,Win32,90.09009009027906,,,,,,1830.8682999999967,178,7,1830.8682999999967,178,,,,1834.2570999999937,1834.7513999999908,1833.7454999999998,1834.2569999999998,1831.8738999999907,1833.7454999999998,1834.7514999999996,1835.2547999999967,1835.2547999999967,1837.1235,1644,1837.1235999999938,5,1837.1237000000026,7,24,234,10,1,0.8,0.3,Time
,,409,001,女,22,2025-06-03_23h00.04.697,Serial_Dependence_U,2023.2.3,Win32,90.09009009027906,,,,,,1837.124,72,7,1837.124,72,,,,1841.1010999999937,1841.5957000000028,1840.59,1841.1009999999999,1838.1294999999998,1840.59,1841.5957000000028,1842.098099999994,1842.098099999994,1842.629399999991,134,1842.6294999999998,1,1842.629899999991,7,25,235,3,1,1.4,0.3,Time
,,409,001,女,22,2025-06-03_23h00.04.697,Serial_Dependence_U,2023.2.3,Win32,90.09009009027906,,,,,,1842.6302999999969,126,7,1842.6305,126,,,,1846.7742000000028,1847.2735,1846.268399999991,1846.7739999999997,1843.6345,1846.268399999991,1847.2735999999938,1847.7735,1847.7735999999938,1849.724,1655,1849.724,3,1849.7240999999938,7,26,236,29,1,1.6,0.7,Time
,,409,001,女,22,2025-06-03_23h00.04.697,Serial_Dependence_U,2023.2.3,Win32,90.09009009027906,,,,,,1849.724299999997,9,7,1849.7245,9,,,,1853.8654999999997,1854.3625999999938,1853.356899999991,1853.8654999999997,1850.7232999999967,1853.356799999997,1854.3627000000026,1854.863,1854.863099999994,1856.523799999997,1430,1856.523799999997,2,1856.5239999999997,7,27,237,19,1,1.6,0.7,Time
,,409,001,女,22,2025-06-03_23h00.04.697,Serial_Dependence_U,2023.2.3,Win32,90.09009009027906,,,,,,1856.5242000000028,262,7,1856.5242999999966,262,,,,1860.2905999999937,1860.7849999999996,1859.7899999999997,1860.2904999999998,1857.5185,1859.789899999991,1860.785099999994,1861.285399999991,1861.285399999991,1862.840299999997,1347,1862.8403999999907,4,1862.8407000000027,7,28,238,22,1,1.2,0.3,Time
,,409,001,女,22,2025-06-03_23h00.04.697,Serial_Dependence_U,2023.2.3,Win32,90.09009009027906,,,,,,1862.841099999994,251,7,1862.8412999999966,251,,,,1867.0295999999937,1867.529099999994,1866.5185,1867.0294999999999,1863.854899999991,1866.5182999999968,1867.529200000003,1868.029200000003,1868.029200000003,1869.9234999999996,1529,1869.923599999994,3,1869.9237000000028,7,29,239,14,1,1.6,0.3,Time
,,409,001,女,22,2025-06-03_23h00.04.697,Serial_Dependence_U,2023.2.3,Win32,90.09009009027906,,,,,,1869.923899999991,98,8,1873.707299999997,98,s,3.7669999999998254,,1877.5010999999938,1877.995899999991,1876.9857000000027,1877.5010999999938,1874.7234999999998,1876.9855999999938,1877.995899999991,1878.4957999999967,1878.495899999991,1880.4014999999997,1247,1880.4014999999997,3,1880.401599999994,8,0,240,2,1,1.2,0.3,Time
,,409,001,女,22,2025-06-03_23h00.04.697,Serial_Dependence_U,2023.2.3,Win32,90.09009009027906,,,,,,1880.4017999999967,144,8,1880.4025,144,,,,1884.5855999999937,1885.084899999991,1884.0782999999967,1884.5855,1881.4075,1884.0782000000029,1885.0849999999998,1885.585200000003,1885.5852999999968,1885.7072000000028,104,1885.7072000000028,1,1885.7074999999998,8,1,241,24,1,1.6,0.3,Time
,,409,001,女,22,2025-06-03_23h00.04.697,Serial_Dependence_U,2023.2.3,Win32,90.09009009027906,,,,,,1885.707899999991,168,8,1885.708200000003,168,,,,1889.6855999999937,1890.1849999999997,1889.1742000000029,1889.685399999991,1886.7099999999998,1889.1739999999998,1890.185099999994,1890.685099999994,1890.685099999994,1892.7125999999937,1677,1892.712700000003,4,1892.7127999999968,8,2,242,13,1,1.4,0.3,Time
,,409,001,女,22,2025-06-03_23h00.04.697,Serial_Dependence_U,2023.2.3,Win32,90.09009009027906,,,,,,1892.7130999999938,320,8,1892.7132000000026,320,,,,1896.051899999991,1896.551399999991,1895.5455999999938,1896.0517999999968,1893.7105999999937,1895.5455999999938,1896.551399999991,1897.051599999994,1897.051700000003,1898.768200000003,1436,1898.768200000003,5,1898.768399999991,8,3,243,25,1,0.8,0.7,Time
,,409,001,女,22,2025-06-03_23h00.04.697,Serial_Dependence_U,2023.2.3,Win32,90.09009009027906,,,,,,1898.7685999999937,345,8,1898.7687999999969,345,,,,1902.118700000003,1902.6182000000028,1901.611299999997,1902.1184999999998,1899.774399999991,1901.6112000000028,1902.6182999999967,1903.1182000000028,1903.1182000000028,1904.9020999999937,1478,1904.9020999999937,5,1904.902399999991,8,4,244,5,1,0.8,0.7,Time
,,409,001,女,22,2025-06-03_23h00.04.697,Serial_Dependence_U,2023.2.3,Win32,90.09009009027906,,,,,,1904.9025999999938,26,8,1904.9027000000026,26,,,,1908.452,1908.9515,1907.945799999997,1908.4517999999969,1905.9102000000028,1907.945799999997,1908.9515999999937,1909.4515999999937,1909.4515999999937,1911.8350999999936,1794,1911.8350999999936,5,1911.835200000003,8,5,245,26,1,1,0.7,Time
,,409,001,女,22,2025-06-03_23h00.04.697,Serial_Dependence_U,2023.2.3,Win32,90.09009009027906,,,,,,1911.8355,204,8,1911.8355999999937,204,,,,1915.7795999999937,1916.2738999999908,1915.279200000003,1915.7794999999999,1912.8407000000027,1915.279200000003,1916.2739999999997,1916.7738999999908,1916.7739999999997,1918.624299999997,1366,1918.624299999997,3,1918.6244999999997,8,6,246,8,1,1.4,0.7,Time
,,409,001,女,22,2025-06-03_23h00.04.697,Serial_Dependence_U,2023.2.3,Win32,90.09009009027906,,,,,,1918.624899999991,264,8,1918.624899999991,264,,,,1922.1772000000026,1922.6739999999998,1921.6680999999937,1922.1770999999937,1919.6345999999937,1921.668,1922.6739999999998,1923.173799999997,1923.173799999997,1925.329599999994,1946,1925.329599999994,5,1925.3299999999997,8,7,247,6,1,1,0.7,Time
,,409,001,女,22,2025-06-03_23h00.04.697,Serial_Dependence_U,2023.2.3,Win32,90.09009009027906,,,,,,1925.3302999999967,323,8,1925.3304999999998,323,,,,1929.0855999999937,1929.5855999999937,1928.5790999999938,1929.085399999991,1926.340799999997,1928.5790999999938,1929.5855999999937,1930.0849999999998,1930.0850999999936,1931.990599999994,1587,1931.990599999994,5,1931.9907999999966,8,8,248,7,1,1.2,0.7,Time
,,409,001,女,22,2025-06-03_23h00.04.697,Serial_Dependence_U,2023.2.3,Win32,90.09009009027906,,,,,,1931.9909999999998,255,8,1931.991099999994,255,,,,1935.7407999999966,1936.2407999999966,1935.234899999991,1935.7407000000028,1932.9968999999908,1935.2347999999968,1936.2407999999966,1936.7404999999997,1936.7404999999997,1938.4462999999967,1434,1938.446399999991,4,1938.446399999991,8,9,249,27,1,1.2,0.7,Time
,,409,001,女,22,2025-06-03_23h00.04.697,Serial_Dependence_U,2023.2.3,Win32,90.09009009027906,,,,,,1938.446700000003,4,8,1938.4467999999968,4,,,,1942.0192000000027,1942.5185999999937,1941.512799999997,1942.019,1939.452,1941.5127000000027,1942.5185999999937,1943.0187999999969,1943.0188999999907,1945.013399999991,1755,1945.013399999991,5,1945.013599999994,8,10,250,21,1,1,0.3,Time
,,409,001,女,22,2025-06-03_23h00.04.697,Serial_Dependence_U,2023.2.3,Win32,90.09009009027906,,,,,,1945.013899999991,307,8,1945.013899999991,307,,,,1948.7632000000028,1949.2632999999967,1948.256899999991,1948.7629999999997,1946.0190999999938,1948.2567999999967,1949.263399999991,1949.7629999999997,1949.7629999999997,1951.523,1521,1951.5230999999937,4,1951.5232000000026,8,11,251,17,1,1.2,0.7,Time
,,409,001,女,22,2025-06-03_23h00.04.697,Serial_Dependence_U,2023.2.3,Win32,90.09009009027906,,,,,,1951.5232999999969,148,8,1951.5235,148,,,,1954.911399999991,1955.4075,1954.4017999999967,1954.911399999991,1952.534799999997,1954.4017000000028,1955.4075999999939,1955.9072000000026,1955.907299999997,1958.0019999999997,1811,1958.0019999999997,5,1958.0022000000029,8,12,252,20,1,0.8,0.3,Time
