Scale_setup.started,Scale_setup.stopped,participant,session,sex,age,date,expName,psychopyVersion,OS,frameRate,Intro.started,Intro.stopped,key_resp_2.keys,key_resp_2.rt,key_resp_2.duration,block.started,direction,Block_id,block.stopped,trial_direction,Block_resp_2.keys,Block_resp_2.rt,Block_resp_2.duration,ITI.started,ITI.stopped,Mask_2.started,Mask_2.stopped,encoding.started,encoding.stopped,Cue.started,Cue.stopped,Response.started,Response.stopped,keyDuration,Feedback_Time.started,FeedbackID_T,Feedback_Time.stopped,trials.thisRepN,trials.thisTrialN,trials.thisN,trials.thisIndex,trials.ran,TimeDur,Coherence1,TrialType
0.0006000000089443347,0.0010000000000047748,421766,001,男,34,2025-06-04_14h00.24.351,Serial_Dependence_U,2023.2.3,Win32,60.24096385545337,,,,,,,,,,,,,,,,,,,,,,,,,,,,,,,,,,,
,,421766,001,男,34,2025-06-04_14h00.24.351,Serial_Dependence_U,2023.2.3,Win32,60.24096385545337,12.17160000000895,65.33910000000894,space,53.10410000000894,,,,,,,,,,,,,,,,,,,,,,,,,,,,,,,
,,421766,001,男,34,2025-06-04_14h00.24.351,Serial_Dependence_U,2023.2.3,Win32,60.24096385545337,,,,,,65.366,355,0,68.93810000000896,355,s,3.526899999991059,,72.54110000000894,73.03760000000894,72.025700000003,72.54070000000299,69.94690000000595,72.02540000000597,73.03790000000596,73.53750000000001,73.53790000000596,84.29710000000894,167,84.29770000000299,1,85.287700000003,0,0,0,1,1,1,0.3,Time
,,421766,001,男,34,2025-06-04_14h00.24.351,Serial_Dependence_U,2023.2.3,Win32,60.24096385545337,,,,,,85.28890000000597,313,0,85.29379999999703,313,,,,89.04520000000299,89.53750000000001,88.53000000000002,89.045,86.2915,88.52979999999702,89.53760000000894,90.03760000000894,90.03790000000596,92.79640000000596,2267,92.79660000000895,5,93.78760000000894,0,1,1,17,1,1.2,0.7,Time
,,421766,001,男,34,2025-06-04_14h00.24.351,Serial_Dependence_U,2023.2.3,Win32,60.24096385545337,,,,,,93.78820000000299,345,0,93.78850000000001,345,,,,97.56279999999701,98.05400000000002,97.06179999999704,97.56250000000001,94.78940000000595,97.06160000000894,98.05420000000298,98.55679999999704,98.55679999999704,102.67900000000002,3716,102.67920000000298,5,103.67140000000596,0,2,2,2,1,1.2,0.3,Time
,,421766,001,男,34,2025-06-04_14h00.24.351,Serial_Dependence_U,2023.2.3,Win32,60.24096385545337,,,,,,103.67290000000595,186,0,103.6735,186,,,,107.04299999999999,107.537700000003,106.52360000000895,107.04100000000001,104.68040000000597,106.5235,107.537700000003,108.03860000000894,108.03879999999704,110.34060000000893,2214,110.34129999999702,5,111.33890000000598,0,3,3,25,1,0.8,0.7,Time
,,421766,001,男,34,2025-06-04_14h00.24.351,Serial_Dependence_U,2023.2.3,Win32,60.24096385545337,,,,,,111.33970000000299,61,0,111.34000000000002,61,,,,115.29110000000894,115.789,114.77429999999701,115.29079999999702,112.34040000000597,114.77400000000002,115.789,116.289,116.28910000000896,116.75779999999703,229,116.758,1,117.75429999999703,0,4,4,28,1,1.4,0.7,Time
,,421766,001,男,34,2025-06-04_14h00.24.351,Serial_Dependence_U,2023.2.3,Win32,60.24096385545337,,,,,,117.75540000000596,155,0,117.75590000000598,155,,,,121.11310000000894,121.60410000000896,120.61140000000596,121.11290000000598,118.763700000003,120.61110000000896,121.60420000000299,122.1075,122.10770000000299,126.34520000000298,3848,126.3455,5,127.337200000003,0,5,5,5,1,0.8,0.7,Time
,,421766,001,男,34,2025-06-04_14h00.24.351,Serial_Dependence_U,2023.2.3,Win32,60.24096385545337,,,,,,127.33770000000298,112,0,127.338200000003,112,,,,131.29020000000298,131.78760000000892,130.77429999999703,131.289799999997,128.34050000000002,130.77420000000296,131.78770000000299,132.28779999999705,132.288,146.69010000000895,3351,146.69040000000598,5,147.68760000000896,0,6,6,8,1,1.4,0.7,Time
,,421766,001,男,34,2025-06-04_14h00.24.351,Serial_Dependence_U,2023.2.3,Win32,60.24096385545337,,,,,,147.688799999997,40,0,147.68920000000298,40,,,,151.241200000003,151.73729999999705,150.72370000000296,151.24099999999999,148.689900000006,150.72340000000594,151.73740000000595,152.23729999999705,152.23740000000595,156.406700000003,3420,156.40690000000598,5,157.404799999997,0,7,7,6,1,1,0.7,Time
,,421766,001,男,34,2025-06-04_14h00.24.351,Serial_Dependence_U,2023.2.3,Win32,60.24096385545337,,,,,,157.40570000000298,319,0,157.40620000000297,319,,,,161.57510000000894,162.070700000003,161.05660000000893,161.57490000000598,158.40760000000893,161.056299999997,162.070799999997,162.570700000003,162.570799999997,166.10899999999998,3037,166.109299999997,5,167.105900000006,0,8,8,19,1,1.6,0.7,Time
,,421766,001,男,34,2025-06-04_14h00.24.351,Serial_Dependence_U,2023.2.3,Win32,60.24096385545337,,,,,,167.106799999997,149,0,167.10710000000893,149,,,,170.890299999997,171.3875,170.37400000000002,170.89010000000894,168.107200000003,170.373799999997,171.38760000000894,171.88760000000894,171.88779999999701,172.44210000000896,137,172.442400000006,1,173.438200000003,0,9,9,22,1,1.2,0.3,Time
,,421766,001,男,34,2025-06-04_14h00.24.351,Serial_Dependence_U,2023.2.3,Win32,60.24096385545337,,,,,,173.43890000000596,267,0,173.43910000000892,267,,,,176.79510000000897,177.28950000000003,176.27940000000598,176.79500000000002,174.44140000000596,176.27929999999702,177.28950000000003,177.78750000000002,177.78760000000892,180.79640000000597,2615,180.79660000000894,5,181.79279999999704,0,10,10,15,1,0.8,0.7,Time
,,421766,001,男,34,2025-06-04_14h00.24.351,Serial_Dependence_U,2023.2.3,Win32,60.24096385545337,,,,,,181.79329999999703,234,0,181.79360000000895,234,,,,185.96179999999703,186.45620000000298,185.44600000000003,185.96160000000896,182.795900000006,185.445799999997,186.45629999999704,186.95410000000896,186.95429999999703,190.89610000000897,3448,190.89629999999704,5,191.89260000000894,0,11,11,29,1,1.6,0.7,Time
,,421766,001,男,34,2025-06-04_14h00.24.351,Serial_Dependence_U,2023.2.3,Win32,60.24096385545337,,,,,,191.893200000003,128,0,191.89350000000002,128,,,,195.87840000000597,196.37090000000597,195.3625,195.87810000000894,192.89610000000897,195.36229999999705,196.37090000000597,196.87100000000004,196.87110000000894,201.730400000006,4500,201.73060000000896,5,202.725900000006,0,12,12,13,1,1.4,0.3,Time
,,421766,001,男,34,2025-06-04_14h00.24.351,Serial_Dependence_U,2023.2.3,Win32,60.24096385545337,,,,,,202.726700000003,77,0,202.72690000000597,77,,,,206.496200000003,206.98970000000298,205.97900000000004,206.49600000000004,203.729200000003,205.97860000000895,206.98970000000298,207.48779999999704,207.48779999999704,212.42960000000897,4532,212.42979999999704,5,213.420900000006,0,13,13,27,1,1.2,0.7,Time
,,421766,001,男,34,2025-06-04_14h00.24.351,Serial_Dependence_U,2023.2.3,Win32,60.24096385545337,,,,,,213.421700000003,79,0,213.422200000003,79,,,,216.812,217.30860000000894,216.29560000000896,216.811700000003,214.43,216.29529999999704,217.30860000000894,217.80910000000898,217.80910000000898,222.47860000000895,4464,222.47879999999702,5,223.47070000000298,0,14,14,0,1,0.8,0.3,Time
,,421766,001,男,34,2025-06-04_14h00.24.351,Serial_Dependence_U,2023.2.3,Win32,60.24096385545337,,,,,,223.47240000000596,1,0,223.47279999999705,1,,,,227.04560000000896,227.53760000000898,226.5285,227.0455,224.48010000000897,226.52810000000898,227.53770000000299,228.03779999999705,228.03779999999705,238.28979999999706,3106,238.29010000000898,5,239.28710000000893,0,15,15,16,1,1,0.7,Time
,,421766,001,男,34,2025-06-04_14h00.24.351,Serial_Dependence_U,2023.2.3,Win32,60.24096385545337,,,,,,239.288,158,0,239.28829999999704,158,,,,242.878200000003,243.3705,242.36210000000898,242.87790000000598,240.28950000000003,242.36190000000596,243.37060000000895,243.87079999999702,243.87100000000004,246.46429999999702,2217,246.46450000000004,5,247.454,0,16,16,11,1,1,0.3,Time
,,421766,001,男,34,2025-06-04_14h00.24.351,Serial_Dependence_U,2023.2.3,Win32,60.24096385545337,,,,,,247.45510000000894,9,0,247.45560000000899,9,,,,251.640299999997,252.13710000000896,251.12479999999704,251.640200000003,248.456900000006,251.12460000000897,252.13720000000302,252.63750000000005,252.63760000000894,256.939700000003,3917,256.94,5,257.937400000006,0,17,17,24,1,1.6,0.3,Time
,,421766,001,男,34,2025-06-04_14h00.24.351,Serial_Dependence_U,2023.2.3,Win32,60.24096385545337,,,,,,257.93810000000894,228,0,257.938299999997,228,,,,262.12510000000896,262.621900000006,261.62350000000004,262.124900000006,258.944200000003,261.623200000003,262.622,263.12129999999706,263.12140000000596,267.728799999997,4308,267.72900000000004,5,268.720900000006,0,18,18,4,1,1.6,0.3,Time
,,421766,001,男,34,2025-06-04_14h00.24.351,Serial_Dependence_U,2023.2.3,Win32,60.24096385545337,,,,,,268.721700000003,44,0,268.72210000000894,44,,,,272.30679999999705,272.803700000003,271.79610000000895,272.3065,269.728799999997,271.79579999999703,272.803700000003,273.30529999999703,273.305400000006,282.74100000000004,4517,282.74140000000597,5,283.73690000000596,0,19,19,21,1,1,0.3,Time
,,421766,001,男,34,2025-06-04_14h00.24.351,Serial_Dependence_U,2023.2.3,Win32,60.24096385545337,,,,,,283.737400000006,312,0,283.73779999999704,312,,,,287.8915,288.386900000006,287.390200000003,287.89129999999705,284.740700000003,287.39000000000004,288.387,288.887200000003,288.887400000006,293.2585,4036,293.258900000006,5,294.254100000009,0,20,20,9,1,1.6,0.7,Time
,,421766,001,男,34,2025-06-04_14h00.24.351,Serial_Dependence_U,2023.2.3,Win32,60.24096385545337,,,,,,294.254900000006,1,0,294.255200000003,1,,,,298.04060000000896,298.53700000000003,297.525600000009,298.040400000006,295.2585,297.52529999999706,298.53710000000893,299.036799999997,299.03690000000597,305.640299999997,2919,305.640600000009,5,306.63710000000896,0,21,21,12,1,1.2,0.3,Time
,,421766,001,男,34,2025-06-04_14h00.24.351,Serial_Dependence_U,2023.2.3,Win32,60.24096385545337,,,,,,306.63790000000597,156,0,306.63810000000893,156,,,,310.023700000003,310.5205,309.50629999999705,310.0235,307.639700000003,309.506100000009,310.5205,311.02029999999706,311.02040000000596,315.75840000000596,4150,315.7585,5,316.75379999999706,0,22,22,20,1,0.8,0.3,Time
,,421766,001,男,34,2025-06-04_14h00.24.351,Serial_Dependence_U,2023.2.3,Win32,60.24096385545337,,,,,,316.7545,156,0,316.75479999999703,156,,,,320.706100000009,321.203700000003,320.191200000003,320.70590000000595,317.75600000000003,320.19090000000597,321.203700000003,321.7045,321.7045,326.22329999999704,3982,326.22360000000896,5,327.22040000000595,0,23,23,18,1,1.4,0.7,Time
,,421766,001,男,34,2025-06-04_14h00.24.351,Serial_Dependence_U,2023.2.3,Win32,60.24096385545337,,,,,,327.220900000006,62,0,327.221200000003,62,,,,330.77510000000893,331.27040000000596,330.259900000006,330.77490000000597,328.2235,330.259700000003,331.27040000000596,331.77029999999706,331.77040000000596,336.123299999997,4033,336.12390000000596,5,337.120400000006,0,24,24,26,1,1,0.7,Time
,,421766,001,男,34,2025-06-04_14h00.24.351,Serial_Dependence_U,2023.2.3,Win32,60.24096385545337,,,,,,337.12110000000894,152,0,337.12140000000596,152,,,,341.30810000000895,341.80400000000003,340.791400000006,341.307900000006,338.12390000000596,340.790900000006,341.804200000003,342.30379999999707,342.30390000000597,353.424600000009,3273,353.424900000006,5,354.420700000003,0,25,25,14,1,1.6,0.3,Time
,,421766,001,男,34,2025-06-04_14h00.24.351,Serial_Dependence_U,2023.2.3,Win32,60.24096385545337,,,,,,354.42160000000894,271,0,354.42179999999706,271,,,,358.19050000000004,358.68679999999705,357.674200000003,358.190299999997,355.423400000006,357.67400000000004,358.68679999999705,359.187,359.18710000000897,363.2395,3633,363.23979999999705,5,364.237,0,26,26,7,1,1.2,0.7,Time
,,421766,001,男,34,2025-06-04_14h00.24.351,Serial_Dependence_U,2023.2.3,Win32,60.24096385545337,,,,,,364.237900000006,21,0,364.238299999997,21,,,,367.611400000006,368.10360000000895,367.10660000000894,367.611299999997,365.24179999999706,367.10610000000895,368.103700000003,368.60400000000004,368.604200000003,372.507400000006,3549,372.507700000003,5,373.50340000000597,0,27,27,10,1,0.8,0.3,Time
,,421766,001,男,34,2025-06-04_14h00.24.351,Serial_Dependence_U,2023.2.3,Win32,60.24096385545337,,,,,,373.504,244,0,373.50429999999704,244,,,,377.4895,377.987,376.972700000003,377.489200000003,374.507900000006,376.97240000000596,377.987200000003,378.486700000003,378.48679999999706,382.322700000003,3520,382.32300000000004,5,383.320400000006,0,28,28,3,1,1.4,0.3,Time
,,421766,001,男,34,2025-06-04_14h00.24.351,Serial_Dependence_U,2023.2.3,Win32,60.24096385545337,,,,,,383.321100000009,340,0,383.32129999999705,340,,,,387.30679999999705,387.8045,386.79150000000004,387.306700000003,384.322900000006,386.790900000006,387.8045,388.30390000000597,388.30400000000003,393.125400000006,4468,393.12560000000894,5,394.12,0,29,29,23,1,1.4,0.3,Time
,,421766,001,男,34,2025-06-04_14h00.24.351,Serial_Dependence_U,2023.2.3,Win32,60.24096385545337,,,,,,394.120799999997,294,1,397.61679999999706,294,s,3.451400000005947,,401.606299999997,402.10410000000894,401.0955,401.606,398.62890000000596,401.095200000003,402.104200000003,402.60360000000895,402.603700000003,407.991200000003,5034,407.99150000000003,5,408.003700000003,1,0,30,3,1,1.4,0.3,Time
,,421766,001,男,34,2025-06-04_14h00.24.351,Serial_Dependence_U,2023.2.3,Win32,60.24096385545337,,,,,,408.004200000003,110,1,408.006600000009,110,,,,411.37550000000005,411.87129999999706,410.873700000003,411.375200000003,409.007400000006,410.873400000006,411.87129999999706,412.37129999999706,412.37140000000596,416.555900000006,3818,416.55610000000894,5,416.571100000009,1,1,31,0,1,0.8,0.3,Time
,,421766,001,男,34,2025-06-04_14h00.24.351,Serial_Dependence_U,2023.2.3,Win32,60.24096385545337,,,,,,416.57210000000896,164,1,416.572799999997,164,,,,420.139799999997,420.63679999999704,419.623299999997,420.13960000000895,417.57460000000896,419.62300000000005,420.636900000006,421.13679999999704,421.136900000006,425.4245,3969,425.424700000003,5,425.44100000000003,1,2,32,16,1,1,0.7,Time
,,421766,001,男,34,2025-06-04_14h00.24.351,Serial_Dependence_U,2023.2.3,Win32,60.24096385545337,,,,,,425.442,304,1,425.44260000000895,304,,,,429.405900000006,429.90360000000896,428.88960000000895,429.405600000009,426.441200000003,428.889400000006,429.90360000000896,430.403700000003,430.40379999999703,434.262700000003,3565,434.26300000000003,5,434.27629999999704,1,3,33,8,1,1.4,0.7,Time
,,421766,001,男,34,2025-06-04_14h00.24.351,Serial_Dependence_U,2023.2.3,Win32,60.24096385545337,,,,,,434.27779999999706,29,1,434.2785,29,,,,438.44550000000004,438.941100000009,437.928299999997,438.445299999997,435.2805,437.92810000000895,438.941100000009,439.441200000003,439.44129999999706,445.01250000000005,5117,445.012799999997,5,445.026400000006,1,4,34,19,1,1.6,0.7,Time
,,421766,001,男,34,2025-06-04_14h00.24.351,Serial_Dependence_U,2023.2.3,Win32,60.24096385545337,,,,,,445.026900000006,298,1,445.02720000000295,298,,,,448.39410000000896,448.88700000000006,447.877600000009,448.39390000000594,446.0285,447.87729999999704,448.887100000009,449.39150000000006,449.3916000000089,455.748299999997,5942,455.74870000000305,5,455.7635,1,5,35,5,1,0.8,0.7,Time
,,421766,001,男,34,2025-06-04_14h00.24.351,Serial_Dependence_U,2023.2.3,Win32,60.24096385545337,,,,,,455.764,301,1,455.76410000000897,301,,,,459.945299999997,460.43710000000897,459.43260000000896,459.94520000000296,456.762799999997,459.43240000000594,460.43720000000303,460.941600000009,460.941799999997,466.51260000000894,5283,466.5132000000031,5,466.527900000006,1,6,36,24,1,1.6,0.3,Time
,,421766,001,男,34,2025-06-04_14h00.24.351,Serial_Dependence_U,2023.2.3,Win32,60.24096385545337,,,,,,466.52900000000005,228,1,466.529600000009,228,,,,470.31270000000296,470.803400000006,469.7962999999971,470.31250000000006,467.53000000000003,469.79610000000895,470.803400000006,471.303799999997,471.3039999999999,476.394900000006,4799,476.3951000000089,5,476.4082999999969,1,7,37,2,1,1.2,0.3,Time
,,421766,001,男,34,2025-06-04_14h00.24.351,Serial_Dependence_U,2023.2.3,Win32,60.24096385545337,,,,,,476.40870000000297,11,1,476.4089000000059,11,,,,479.961900000006,480.453600000009,479.447100000009,479.96179999999714,477.41110000000896,479.4469000000059,480.45370000000304,480.94200000000006,480.9421000000089,484.5287000000031,3299,484.52879999999715,5,484.5436000000089,1,8,38,6,1,1,0.7,Time
,,421766,001,男,34,2025-06-04_14h00.24.351,Serial_Dependence_U,2023.2.3,Win32,60.24096385545337,,,,,,484.5439999999999,187,1,484.5442999999971,187,,,,487.91160000000906,488.4034000000059,487.39570000000305,487.9114000000059,485.5462999999971,487.3954000000061,488.40349999999995,488.90379999999715,488.903900000006,495.413900000006,5500,495.41420000000295,5,495.42629999999696,1,9,39,15,1,0.8,0.7,Time
,,421766,001,男,34,2025-06-04_14h00.24.351,Serial_Dependence_U,2023.2.3,Win32,60.24096385545337,,,,,,495.4269000000059,185,1,495.42699999999996,185,,,,499.01140000000606,499.503400000006,498.495799999997,499.01120000000293,496.43079999999696,498.495400000006,499.503700000003,500.00740000000593,500.00740000000593,506.52990000000597,5316,506.53020000000294,5,506.54299999999995,1,10,40,1,1,1,0.3,Time
,,421766,001,男,34,2025-06-04_14h00.24.351,Serial_Dependence_U,2023.2.3,Win32,60.24096385545337,,,,,,506.5436000000089,174,1,506.54370000000296,174,,,,510.4956000000089,510.9877000000029,509.9946000000089,510.495400000006,507.5462999999971,509.994400000006,510.987799999997,511.486799999997,511.4869000000061,516.673299999997,4437,516.6734999999999,5,516.6914999999999,1,11,41,18,1,1.4,0.7,Time
,,421766,001,男,34,2025-06-04_14h00.24.351,Serial_Dependence_U,2023.2.3,Win32,60.24096385545337,,,,,,516.6922000000029,252,1,516.692600000009,252,,,,520.872900000006,521.3699000000058,520.356400000006,520.8727999999969,517.690900000006,520.356299999997,521.3699999999999,521.8699999999999,521.870200000003,528.1221000000089,5847,528.1224000000059,5,528.1362999999969,1,12,42,4,1,1.6,0.3,Time
,,421766,001,男,34,2025-06-04_14h00.24.351,Serial_Dependence_U,2023.2.3,Win32,60.24096385545337,,,,,,528.1369000000059,268,1,528.1375,268,,,,531.4922999999969,531.9867000000029,530.9894000000058,531.492,529.139799999997,530.989,531.9867000000029,532.4865,532.4865,536.291799999997,3483,536.2919000000059,5,536.307600000009,1,13,43,25,1,0.8,0.7,Time
,,421766,001,男,34,2025-06-04_14h00.24.351,Serial_Dependence_U,2023.2.3,Win32,60.24096385545337,,,,,,536.3081000000088,73,1,536.308400000006,73,,,,540.0919999999999,540.587,539.574200000003,540.091799999997,537.307700000003,539.573900000006,540.587,541.0881000000088,541.0881000000088,545.7735,4382,545.7736000000089,5,545.7861000000089,1,14,44,12,1,1.2,0.3,Time
,,421766,001,男,34,2025-06-04_14h00.24.351,Serial_Dependence_U,2023.2.3,Win32,60.24096385545337,,,,,,545.7871000000089,335,1,545.7874999999999,335,,,,549.545200000003,550.042100000009,549.0392000000029,549.5447000000029,546.7897999999971,549.0389000000059,550.042100000009,550.536600000009,550.5367000000028,557.394700000003,6349,557.3949000000059,5,557.4089000000058,1,15,45,17,1,1.2,0.7,Time
,,421766,001,男,34,2025-06-04_14h00.24.351,Serial_Dependence_U,2023.2.3,Win32,60.24096385545337,,,,,,557.4094000000059,265,1,557.4096000000088,265,,,,561.366299999997,561.874700000003,560.8452000000029,561.3659000000059,558.4107000000029,560.845,561.874700000003,562.3699999999999,562.370100000009,566.5301000000088,3917,566.5302999999969,5,566.5436000000088,1,16,46,28,1,1.4,0.7,Time
,,421766,001,男,34,2025-06-04_14h00.24.351,Serial_Dependence_U,2023.2.3,Win32,60.24096385545337,,,,,,566.5441000000089,68,1,566.5442999999971,68,,,,570.697100000009,571.1865,570.189200000003,570.6969000000058,567.5446000000088,570.188900000006,571.1866000000089,571.6875,571.6875,576.1949999999999,4183,576.1952000000028,5,576.2087000000029,1,17,47,29,1,1.6,0.7,Time
,,421766,001,男,34,2025-06-04_14h00.24.351,Serial_Dependence_U,2023.2.3,Win32,60.24096385545337,,,,,,576.2104999999999,175,1,576.211,175,,,,579.761400000006,580.253100000009,579.2577000000028,579.7612000000029,577.211,579.2574000000059,580.2532000000028,580.754200000003,580.754400000006,585.105600000009,4123,585.1057999999971,5,585.1185,1,18,48,26,1,1,0.7,Time
,,421766,001,男,34,2025-06-04_14h00.24.351,Serial_Dependence_U,2023.2.3,Win32,60.24096385545337,,,,,,585.1195,354,1,585.1199000000058,354,,,,588.5081000000089,589.0042999999969,587.989600000009,588.5077000000028,586.122200000003,587.9894000000058,589.004400000006,589.5032000000028,589.503400000006,593.3782000000028,3509,593.378400000006,5,593.3917999999969,1,19,49,10,1,0.8,0.3,Time
,,421766,001,男,34,2025-06-04_14h00.24.351,Serial_Dependence_U,2023.2.3,Win32,60.24096385545337,,,,,,593.392200000003,143,1,593.3924000000059,143,,,,597.5619999999999,598.053900000006,597.044900000006,597.561799999997,594.394,597.0447000000029,598.053900000006,598.5535,598.553900000006,603.339100000009,4451,603.3392000000028,5,603.3512999999971,1,20,50,9,1,1.6,0.7,Time
,,421766,001,男,34,2025-06-04_14h00.24.351,Serial_Dependence_U,2023.2.3,Win32,60.24096385545337,,,,,,603.351900000006,159,1,603.3519999999999,159,,,,607.338799999997,607.836600000009,606.8241000000089,607.3385000000001,604.357,606.8237999999969,607.836600000009,608.337299999997,608.3374999999999,612.8892999999971,4179,612.8895,5,612.9017999999969,1,21,51,23,1,1.4,0.3,Time
,,421766,001,男,34,2025-06-04_14h00.24.351,Serial_Dependence_U,2023.2.3,Win32,60.24096385545337,,,,,,612.902600000009,329,1,612.9031000000089,329,,,,616.4921000000088,616.9866000000088,615.9732000000029,616.4902000000029,613.9056000000089,615.973,616.9867000000029,617.4866000000088,617.4867000000029,623.539,5548,623.5392000000029,5,623.553799999997,1,22,52,11,1,1,0.3,Time
,,421766,001,男,34,2025-06-04_14h00.24.351,Serial_Dependence_U,2023.2.3,Win32,60.24096385545337,,,,,,623.5547000000029,105,1,623.5554000000059,105,,,,626.9395,627.436799999997,626.423299999997,626.939299999997,624.5557000000028,626.4231000000088,627.436799999997,627.936200000003,627.936400000006,632.6734000000058,4188,632.673700000003,5,632.6895,1,23,53,20,1,0.8,0.3,Time
,,421766,001,男,34,2025-06-04_14h00.24.351,Serial_Dependence_U,2023.2.3,Win32,60.24096385545337,,,,,,632.6901000000089,306,1,632.690299999997,306,,,,636.4732000000029,636.9704999999999,635.9559999999999,636.4731000000088,633.6891000000089,635.955799999997,636.9704999999999,637.470299999997,637.4704000000058,642.7057000000029,4929,642.705799999997,5,642.7186000000088,1,24,54,22,1,1.2,0.3,Time
,,421766,001,男,34,2025-06-04_14h00.24.351,Serial_Dependence_U,2023.2.3,Win32,60.24096385545337,,,,,,642.72,28,1,642.720600000009,28,,,,646.4894000000058,646.986900000006,645.973,646.4892000000029,643.722299999997,645.9729000000059,646.9869999999999,647.488900000006,647.4891000000089,652.8905,4949,652.8907000000029,5,652.9075,1,25,55,7,1,1.2,0.7,Time
,,421766,001,男,34,2025-06-04_14h00.24.351,Serial_Dependence_U,2023.2.3,Win32,60.24096385545337,,,,,,652.9079999999999,193,1,652.9084000000059,193,,,,657.106,657.6031000000089,656.5909000000058,657.1057999999971,653.910200000003,656.5906000000089,657.603200000003,658.103299999997,658.103299999997,662.8889999999999,4434,662.889100000009,5,662.9049000000059,1,26,56,14,1,1.6,0.3,Time
,,421766,001,男,34,2025-06-04_14h00.24.351,Serial_Dependence_U,2023.2.3,Win32,60.24096385545337,,,,,,662.9055000000001,105,1,662.905700000003,105,,,,666.6731000000088,667.169900000006,666.1562999999969,666.673,663.9062999999969,666.1561000000088,667.169900000006,667.6695,667.6695,672.7554000000059,4764,672.7556000000088,5,672.7697999999971,1,27,57,27,1,1.2,0.7,Time
,,421766,001,男,34,2025-06-04_14h00.24.351,Serial_Dependence_U,2023.2.3,Win32,60.24096385545337,,,,,,672.7704999999999,235,1,672.771,235,,,,676.3567999999971,676.852900000006,675.841200000003,676.356700000003,673.772400000006,675.841100000009,676.8530000000001,677.354,677.354299999997,682.2392000000029,4533,682.2394000000058,5,682.2532999999969,1,28,58,21,1,1,0.3,Time
,,421766,001,男,34,2025-06-04_14h00.24.351,Serial_Dependence_U,2023.2.3,Win32,60.24096385545337,,,,,,682.2539999999999,282,1,682.2542999999969,282,,,,686.2404000000058,686.7369999999999,685.7239999999999,686.2401000000089,683.2556000000088,685.723700000003,686.7371000000089,687.2365,687.2367000000029,691.4296000000088,3823,691.4297999999969,5,691.445100000009,1,29,59,13,1,1.4,0.3,Time
,,421766,001,男,34,2025-06-04_14h00.24.351,Serial_Dependence_U,2023.2.3,Win32,60.24096385545337,,,,,,691.4456000000089,89,2,720.182600000009,89,s,28.695900000006077,,723.9436000000089,724.4365,723.439299999997,723.9434999999999,721.1941000000088,723.4389999999999,724.4366000000089,724.9369000000058,724.9369999999999,729.489,3751,729.489299999997,5,729.5029999999999,2,0,60,27,1,1.2,0.7,Time
,,421766,001,男,34,2025-06-04_14h00.24.351,Serial_Dependence_U,2023.2.3,Win32,60.24096385545337,,,,,,729.5035,276,2,729.5045,276,,,,733.4891000000089,733.9859000000058,732.972700000003,733.4887999999969,730.506200000003,732.9724999999999,733.9859999999999,734.486100000009,734.486200000003,742.388100000009,4641,742.388400000006,5,742.4007000000029,2,1,61,3,1,1.4,0.3,Time
,,421766,001,男,34,2025-06-04_14h00.24.351,Serial_Dependence_U,2023.2.3,Win32,60.24096385545337,,,,,,742.4011000000089,108,2,742.4014000000059,108,,,,745.794200000003,746.288700000003,745.278600000009,745.7941000000089,743.4061000000088,745.278299999997,746.288700000003,746.7864000000059,746.786600000009,751.5054000000059,3976,751.5055,5,751.519299999997,2,2,62,0,1,0.8,0.3,Time
,,421766,001,男,34,2025-06-04_14h00.24.351,Serial_Dependence_U,2023.2.3,Win32,60.24096385545337,,,,,,751.5199000000059,145,2,751.5204999999999,145,,,,755.7057000000029,756.203,755.190200000003,755.7055,752.5229000000058,755.189900000006,756.203,756.7031000000088,756.7031000000088,761.8561000000088,4786,761.856400000006,5,761.8695,2,3,63,14,1,1.6,0.3,Time
,,421766,001,男,34,2025-06-04_14h00.24.351,Serial_Dependence_U,2023.2.3,Win32,60.24096385545337,,,,,,761.8702999999971,204,2,761.870799999997,204,,,,765.8409999999999,766.336600000009,765.3235,765.8407000000029,762.8724000000059,765.3234000000059,766.336700000003,766.836,766.8361000000089,771.1885,4069,771.1886000000088,5,771.2014000000058,2,4,64,8,1,1.4,0.7,Time
,,421766,001,男,34,2025-06-04_14h00.24.351,Serial_Dependence_U,2023.2.3,Win32,60.24096385545337,,,,,,771.2024999999999,160,2,771.2031000000088,160,,,,775.390200000003,775.8861000000088,774.8727000000029,775.3899999999999,772.2055,774.8725,775.8861000000088,776.386,776.386400000006,780.4717999999971,3749,780.4721000000088,5,780.4862999999971,2,5,65,4,1,1.6,0.3,Time
,,421766,001,男,34,2025-06-04_14h00.24.351,Serial_Dependence_U,2023.2.3,Win32,60.24096385545337,,,,,,780.4874000000059,15,2,780.4876000000088,15,,,,784.241299999997,784.736200000003,783.7229000000059,784.2409000000059,781.488600000009,783.7226000000089,784.7362999999971,785.2367000000029,785.236799999997,789.8206000000089,4031,789.8212999999969,5,789.8364999999999,2,6,66,7,1,1.2,0.7,Time
,,421766,001,男,34,2025-06-04_14h00.24.351,Serial_Dependence_U,2023.2.3,Win32,60.24096385545337,,,,,,789.8369000000059,109,2,789.8372000000029,109,,,,793.4124000000058,793.9031000000089,792.889100000009,793.4121000000089,790.844600000009,792.888799999997,793.9032000000029,794.4042000000029,794.404299999997,797.971600000009,3168,797.972,5,797.987900000006,2,7,67,26,1,1,0.7,Time
,,421766,001,男,34,2025-06-04_14h00.24.351,Serial_Dependence_U,2023.2.3,Win32,60.24096385545337,,,,,,797.989,305,2,797.989299999997,305,,,,801.372299999997,801.8702999999971,800.862299999997,801.372200000003,798.9884000000059,800.862200000003,801.8704000000059,802.3692999999969,802.3692999999969,805.6171000000088,2833,805.617400000006,5,805.632200000003,2,8,68,10,1,0.8,0.3,Time
,,421766,001,男,34,2025-06-04_14h00.24.351,Serial_Dependence_U,2023.2.3,Win32,60.24096385545337,,,,,,805.6327000000028,249,2,805.633,249,,,,808.9939999999999,809.4864000000059,808.477200000003,808.9936000000089,806.6414000000059,808.4769999999999,809.4865,809.9865,809.9866000000088,813.6787000000029,3314,813.678799999997,5,813.6932000000029,2,9,69,15,1,0.8,0.7,Time
,,421766,001,男,34,2025-06-04_14h00.24.351,Serial_Dependence_U,2023.2.3,Win32,60.24096385545337,,,,,,813.6939000000059,245,2,813.6942000000029,245,,,,817.4787000000028,817.9694999999999,816.961,817.4784999999999,814.695799999997,816.9607999999969,817.969600000009,818.4577000000029,818.4577000000029,822.2639000000058,3452,822.264100000009,5,822.277200000003,2,10,70,12,1,1.2,0.3,Time
,,421766,001,男,34,2025-06-04_14h00.24.351,Serial_Dependence_U,2023.2.3,Win32,60.24096385545337,,,,,,822.277700000003,112,2,822.277900000006,112,,,,825.8604000000059,826.3531000000089,825.3437999999969,825.860200000003,823.279,825.3435,826.353200000003,826.857400000006,826.8576000000089,830.6959000000058,3484,830.696100000009,5,830.711600000009,2,11,71,11,1,1,0.3,Time
,,421766,001,男,34,2025-06-04_14h00.24.351,Serial_Dependence_U,2023.2.3,Win32,60.24096385545337,,,,,,830.7121000000088,291,2,830.712299999997,291,,,,834.2957999999969,834.785900000006,833.7774999999999,834.295600000009,831.711700000003,833.777299999997,834.785900000006,835.2864000000059,835.286600000009,839.3314000000059,3948,839.3315,5,839.3436000000088,2,12,72,21,1,1,0.3,Time
,,421766,001,男,34,2025-06-04_14h00.24.351,Serial_Dependence_U,2023.2.3,Win32,60.24096385545337,,,,,,839.344200000003,312,2,839.344200000003,312,,,,843.127,843.624299999997,842.6127000000029,843.126799999997,840.344600000009,842.612299999997,843.624299999997,844.1241000000089,844.1241000000089,849.461,4983,849.4612000000029,5,849.474100000009,2,13,73,2,1,1.2,0.3,Time
,,421766,001,男,34,2025-06-04_14h00.24.351,Serial_Dependence_U,2023.2.3,Win32,60.24096385545337,,,,,,849.4747000000029,229,2,849.474799999997,229,,,,853.628400000006,854.1227999999969,853.1269000000059,853.6282999999969,850.479299999997,853.1266000000089,854.122900000006,854.619400000006,854.6196000000089,860.2815,4351,860.281799999997,5,860.2994999999999,2,14,74,29,1,1.6,0.7,Time
,,421766,001,男,34,2025-06-04_14h00.24.351,Serial_Dependence_U,2023.2.3,Win32,60.24096385545337,,,,,,860.3,166,2,860.3002000000029,166,,,,864.4939000000059,864.9862999999971,863.9769999999999,864.4936000000089,861.3054000000059,863.976799999997,864.9865,865.486200000003,865.4862999999971,869.9611000000089,4148,869.961299999997,5,869.9759999999999,2,15,75,24,1,1.6,0.3,Time
,,421766,001,男,34,2025-06-04_14h00.24.351,Serial_Dependence_U,2023.2.3,Win32,60.24096385545337,,,,,,869.9765,30,2,869.9767000000029,30,,,,873.5602999999969,874.0529999999999,873.0437000000029,873.560100000009,870.977200000003,873.0434000000059,874.0529999999999,874.557299999997,874.5574000000058,879.7559999999999,4839,879.756200000003,5,879.7704999999999,2,16,76,1,1,1,0.3,Time
,,421766,001,男,34,2025-06-04_14h00.24.351,Serial_Dependence_U,2023.2.3,Win32,60.24096385545337,,,,,,879.771400000006,224,2,879.7716000000089,224,,,,883.155,883.652700000003,882.639200000003,883.1547999999971,880.7729999999999,882.6389999999999,883.6527999999969,884.153,884.153,888.2387999999969,3733,888.239,5,888.2526000000089,2,17,77,20,1,0.8,0.3,Time
,,421766,001,男,34,2025-06-04_14h00.24.351,Serial_Dependence_U,2023.2.3,Win32,60.24096385545337,,,,,,888.2542999999969,206,2,888.254799999997,206,,,,892.239600000009,892.7365,891.7217999999971,892.2394999999999,889.255900000006,891.7214999999999,892.7365,893.2366000000088,893.2366000000088,897.6555000000001,3885,897.6561000000088,5,897.671900000006,2,18,78,23,1,1.4,0.3,Time
,,421766,001,男,34,2025-06-04_14h00.24.351,Serial_Dependence_U,2023.2.3,Win32,60.24096385545337,,,,,,897.672600000009,195,2,897.672700000003,195,,,,901.655700000003,902.152600000009,901.138799999997,901.6556000000089,898.672,901.1386000000089,902.152700000003,902.6527999999969,902.6527999999969,906.7751000000089,3999,906.7754000000059,5,906.789700000003,2,19,79,13,1,1.4,0.3,Time
,,421766,001,男,34,2025-06-04_14h00.24.351,Serial_Dependence_U,2023.2.3,Win32,60.24096385545337,,,,,,906.7902000000029,215,2,906.790400000006,215,,,,910.355700000003,910.8527000000029,909.8389999999999,910.3554999999999,907.7891000000088,909.838700000003,910.8527999999969,911.3527000000029,911.3527000000029,914.6552999999969,2970,914.6555000000001,5,914.668900000006,2,20,80,16,1,1,0.7,Time
,,421766,001,男,34,2025-06-04_14h00.24.351,Serial_Dependence_U,2023.2.3,Win32,60.24096385545337,,,,,,914.6694000000059,324,2,914.6697999999969,324,,,,918.239299999997,918.7365,917.722299999997,918.238900000006,915.6729000000059,917.7221000000088,918.7365,919.2359000000058,919.2359000000058,922.121200000003,2616,922.1215,5,922.133600000009,2,21,81,6,1,1,0.7,Time
,,421766,001,男,34,2025-06-04_14h00.24.351,Serial_Dependence_U,2023.2.3,Win32,60.24096385545337,,,,,,922.134,91,2,922.134299999997,91,,,,925.9051000000088,926.402299999997,925.388400000006,925.9049000000059,923.1396000000088,925.388100000009,926.4024000000059,926.9024000000059,926.902600000009,931.422600000009,4101,931.4227999999971,5,931.440299999997,2,22,82,17,1,1.2,0.7,Time
,,421766,001,男,34,2025-06-04_14h00.24.351,Serial_Dependence_U,2023.2.3,Win32,60.24096385545337,,,,,,931.440900000006,31,2,931.441,31,,,,934.805200000003,935.3047000000029,934.2892000000029,934.8051000000089,932.438900000006,934.2889000000059,935.3047000000029,935.8029000000058,935.8029999999999,940.271700000003,4249,940.272100000009,5,940.288700000003,2,23,83,5,1,0.8,0.7,Time
,,421766,001,男,34,2025-06-04_14h00.24.351,Serial_Dependence_U,2023.2.3,Win32,60.24096385545337,,,,,,940.289299999997,1,2,940.289700000003,1,,,,944.4401000000089,944.9379000000058,943.9389999999999,944.439900000006,941.2902000000029,943.9387000000029,944.938100000009,945.4365,945.4366000000089,949.808299999997,4055,949.8084999999999,5,949.8236000000088,2,24,84,19,1,1.6,0.7,Time
,,421766,001,男,34,2025-06-04_14h00.24.351,Serial_Dependence_U,2023.2.3,Win32,60.24096385545337,,,,,,949.8241000000089,291,2,949.824299999997,291,,,,953.5917000000029,954.0854999999999,953.0902999999969,953.5916000000088,950.8219000000058,953.090100000009,954.085600000009,954.586,954.5861000000089,958.6569999999999,3684,958.6572000000031,5,958.669900000006,2,25,85,22,1,1.2,0.3,Time
,,421766,001,男,34,2025-06-04_14h00.24.351,Serial_Dependence_U,2023.2.3,Win32,60.24096385545337,,,,,,958.6707000000031,251,2,958.671,251,,,,962.622900000006,963.1192999999971,962.1055000000001,962.6227000000031,959.6717999999971,962.1052000000029,963.1192999999971,963.6189000000061,963.6189999999999,968.056,4083,968.0561000000089,5,968.0734000000059,2,26,86,18,1,1.4,0.7,Time
,,421766,001,男,34,2025-06-04_14h00.24.351,Serial_Dependence_U,2023.2.3,Win32,60.24096385545337,,,,,,968.073900000006,251,2,968.0741000000089,251,,,,971.439900000006,971.935799999997,970.922700000003,971.4397999999971,969.074200000003,970.9224000000061,971.935799999997,972.436100000009,972.436200000003,975.9560000000001,3219,975.956200000003,5,975.9674000000059,2,27,87,25,1,0.8,0.7,Time
,,421766,001,男,34,2025-06-04_14h00.24.351,Serial_Dependence_U,2023.2.3,Win32,60.24096385545337,,,,,,975.969200000003,291,2,975.97,291,,,,979.9222000000029,980.4197999999969,979.4059000000059,979.922,976.9722000000031,979.405700000003,980.419900000006,980.918900000006,980.9190000000001,985.3119000000061,4032,985.312100000009,5,985.325700000003,2,28,88,28,1,1.4,0.7,Time
,,421766,001,男,34,2025-06-04_14h00.24.351,Serial_Dependence_U,2023.2.3,Win32,60.24096385545337,,,,,,985.3262000000029,317,2,985.3264000000061,317,,,,989.4932999999971,989.985799999997,988.9777000000031,989.4932000000031,986.3277999999971,988.9775,989.985799999997,990.486200000003,990.486200000003,994.8949000000059,4050,994.8952000000029,5,994.9076000000089,2,29,89,9,1,1.6,0.7,Time
,,421766,001,男,34,2025-06-04_14h00.24.351,Serial_Dependence_U,2023.2.3,Win32,60.24096385545337,,,,,,994.9080000000001,191,3,997.303600000009,191,s,2.3689999999999145,,1000.6942000000031,1001.1859999999999,1000.1780000000001,1000.6939000000059,998.3061000000089,1000.1775,1001.1859999999999,1001.688100000009,1001.688200000003,1006.5219000000059,4473,1006.522100000009,5,1006.5397999999971,3,0,90,10,1,0.8,0.3,Time
,,421766,001,男,34,2025-06-04_14h00.24.351,Serial_Dependence_U,2023.2.3,Win32,60.24096385545337,,,,,,1006.5402000000031,223,3,1006.541799999997,223,,,,1010.5064000000059,1011.0026000000089,1010.0052999999971,1010.5060000000001,1007.539299999997,1010.0050000000001,1011.0026000000089,1011.502400000006,1011.5026000000089,1015.3220000000001,3466,1015.322200000003,5,1015.3372000000029,3,1,91,13,1,1.4,0.3,Time
,,421766,001,男,34,2025-06-04_14h00.24.351,Serial_Dependence_U,2023.2.3,Win32,60.24096385545337,,,,,,1015.338,217,3,1015.3382999999969,217,,,,1019.1214000000059,1019.6189999999999,1018.605600000009,1019.1211000000089,1016.3392999999971,1018.605,1019.6189999999999,1020.118799999997,1020.1189000000061,1024.004700000003,3532,1024.005,5,1024.0175,3,2,92,22,1,1.2,0.3,Time
,,421766,001,男,34,2025-06-04_14h00.24.351,Serial_Dependence_U,2023.2.3,Win32,60.24096385545337,,,,,,1024.018400000006,280,3,1024.018799999997,280,,,,1027.589900000006,1028.085400000006,1027.074200000003,1027.5896000000089,1025.022100000009,1027.074,1028.085400000006,1028.585700000003,1028.585799999997,1033.105,4300,1033.1055000000001,5,1033.121200000003,3,3,93,26,1,1,0.7,Time
,,421766,001,男,34,2025-06-04_14h00.24.351,Serial_Dependence_U,2023.2.3,Win32,60.24096385545337,,,,,,1033.121900000006,258,3,1033.122200000003,258,,,,1036.489200000003,1036.986100000009,1035.972400000006,1036.489,1034.122100000009,1035.972200000003,1036.986100000009,1037.486100000009,1037.486100000009,1040.789299999997,2601,1040.789700000003,5,1040.806799999997,3,4,94,5,1,0.8,0.7,Time
,,421766,001,男,34,2025-06-04_14h00.24.351,Serial_Dependence_U,2023.2.3,Win32,60.24096385545337,,,,,,1040.807299999997,278,3,1040.807600000009,278,,,,1044.755799999997,1045.252900000006,1044.238600000009,1044.755600000009,1041.804600000009,1044.2384000000059,1045.253,1045.752200000003,1045.7522999999971,1051.5065,4984,1051.506700000003,5,1051.525200000003,3,5,95,28,1,1.4,0.7,Time
,,421766,001,男,34,2025-06-04_14h00.24.351,Serial_Dependence_U,2023.2.3,Win32,60.24096385545337,,,,,,1051.525799999997,124,3,1051.525900000006,124,,,,1055.2777999999971,1055.769400000006,1054.772400000006,1055.277600000009,1052.522100000009,1054.772200000003,1055.7695,1056.268799999997,1056.268900000006,1063.6115,6066,1063.611600000009,5,1063.6245000000001,3,6,96,27,1,1.2,0.7,Time
,,421766,001,男,34,2025-06-04_14h00.24.351,Serial_Dependence_U,2023.2.3,Win32,60.24096385545337,,,,,,1063.625100000009,317,3,1063.625299999997,317,,,,1067.2111000000089,1067.702400000006,1066.704600000009,1067.210900000006,1064.627100000009,1066.704400000006,1067.702400000006,1068.203,1068.203,1074.479200000003,5400,1074.479400000006,5,1074.4929000000059,3,7,97,11,1,1,0.3,Time
,,421766,001,男,34,2025-06-04_14h00.24.351,Serial_Dependence_U,2023.2.3,Win32,60.24096385545337,,,,,,1074.493400000006,206,3,1074.4935,206,,,,1077.876900000006,1078.369,1077.362299999997,1077.876600000009,1075.4932999999971,1077.362100000009,1078.369,1078.868700000003,1078.868799999997,1083.547200000003,4353,1083.547400000006,5,1083.559200000003,3,8,98,0,1,0.8,0.3,Time
,,421766,001,男,34,2025-06-04_14h00.24.351,Serial_Dependence_U,2023.2.3,Win32,60.24096385545337,,,,,,1083.559600000009,329,3,1083.559799999997,329,,,,1087.544900000006,1088.040600000009,1087.0275,1087.5445,1084.560900000006,1087.027299999997,1088.040700000003,1088.536100000009,1088.536200000003,1094.4955,5534,1094.496299999997,5,1094.509200000003,3,9,99,23,1,1.4,0.3,Time
,,421766,001,男,34,2025-06-04_14h00.24.351,Serial_Dependence_U,2023.2.3,Win32,60.24096385545337,,,,,,1094.509799999997,137,3,1094.51,137,,,,1098.693200000003,1099.190400000006,1098.177400000006,1098.692900000006,1095.512600000009,1098.177100000009,1099.1905,1099.685400000006,1099.685700000003,1105.380900000006,4969,1105.381100000009,5,1105.394400000006,3,10,100,24,1,1.6,0.3,Time
,,421766,001,男,34,2025-06-04_14h00.24.351,Serial_Dependence_U,2023.2.3,Win32,60.24096385545337,,,,,,1105.394900000006,210,3,1105.395100000009,210,,,,1109.176200000003,1109.668799999997,1108.662600000009,1109.176,1106.393400000006,1108.662400000006,1109.668799999997,1110.1695,1110.169600000009,1121.5226000000089,3986,1121.523200000003,5,1121.536100000009,3,11,101,2,1,1.2,0.3,Time
,,421766,001,男,34,2025-06-04_14h00.24.351,Serial_Dependence_U,2023.2.3,Win32,60.24096385545337,,,,,,1121.536700000003,84,3,1121.537,84,,,,1125.6885,1126.186400000006,1125.173600000009,1125.688200000003,1122.539299999997,1125.173400000006,1126.1866000000089,1126.686200000003,1126.6862999999971,1132.638,5399,1132.638200000003,5,1132.650700000003,3,12,102,19,1,1.6,0.7,Time
,,421766,001,男,34,2025-06-04_14h00.24.351,Serial_Dependence_U,2023.2.3,Win32,60.24096385545337,,,,,,1132.651600000009,151,3,1132.652200000003,151,,,,1136.6215,1137.1186000000089,1136.105,1136.621400000006,1133.654900000006,1136.104700000003,1137.1186000000089,1137.6186000000089,1137.618700000003,1147.322700000003,4718,1147.322900000006,5,1147.333799999997,3,13,103,8,1,1.4,0.7,Time
,,421766,001,男,34,2025-06-04_14h00.24.351,Serial_Dependence_U,2023.2.3,Win32,60.24096385545337,,,,,,1147.334299999997,230,3,1147.335200000003,230,,,,1151.4915,1151.985600000009,1150.975200000003,1151.491299999997,1148.338700000003,1150.974900000006,1151.985700000003,1152.485299999997,1152.485299999997,1157.608100000009,4335,1157.608400000006,5,1157.623400000006,3,14,104,9,1,1.6,0.7,Time
,,421766,001,男,34,2025-06-04_14h00.24.351,Serial_Dependence_U,2023.2.3,Win32,60.24096385545337,,,,,,1157.623900000006,26,3,1157.6241000000089,26,,,,1161.405400000006,1161.9031000000089,1160.890100000009,1161.404900000006,1158.6224000000059,1160.889799999997,1161.903200000003,1162.402200000003,1162.402200000003,1167.220799999997,4195,1167.221100000009,5,1167.232799999997,3,15,105,12,1,1.2,0.3,Time
,,421766,001,男,34,2025-06-04_14h00.24.351,Serial_Dependence_U,2023.2.3,Win32,60.24096385545337,,,,,,1167.233400000006,33,3,1167.2335,33,,,,1171.173400000006,1171.6685,1170.671200000003,1171.173100000009,1168.238100000009,1170.671,1171.6685,1172.168700000003,1172.168799999997,1176.905700000003,4230,1176.906,5,1176.918600000009,3,16,106,18,1,1.4,0.7,Time
,,421766,001,男,34,2025-06-04_14h00.24.351,Serial_Dependence_U,2023.2.3,Win32,60.24096385545337,,,,,,1176.919299999997,342,3,1176.919600000009,342,,,,1181.105200000003,1181.6034000000059,1180.588400000006,1181.104600000009,1177.923400000006,1180.588200000003,1181.6034000000059,1182.102,1182.102100000009,1186.888700000003,4302,1186.888900000006,5,1186.9021000000089,3,17,107,14,1,1.6,0.3,Time
,,421766,001,男,34,2025-06-04_14h00.24.351,Serial_Dependence_U,2023.2.3,Win32,60.24096385545337,,,,,,1186.902900000006,279,3,1186.903200000003,279,,,,1190.4715,1190.968600000009,1189.955,1190.471200000003,1187.904900000006,1189.954700000003,1190.968700000003,1191.468299999997,1191.4684000000059,1195.443,3539,1195.443299999997,5,1195.4565,3,18,108,6,1,1,0.7,Time
,,421766,001,男,34,2025-06-04_14h00.24.351,Serial_Dependence_U,2023.2.3,Win32,60.24096385545337,,,,,,1195.457100000009,348,3,1195.457299999997,348,,,,1199.038900000006,1199.535200000003,1198.521700000003,1199.0385,1196.455100000009,1198.521400000006,1199.535299999997,1200.0355,1200.035700000003,1206.3715,5483,1206.371700000003,5,1206.386100000009,3,19,109,1,1,1,0.3,Time
,,421766,001,男,34,2025-06-04_14h00.24.351,Serial_Dependence_U,2023.2.3,Win32,60.24096385545337,,,,,,1206.387,43,3,1206.387100000009,43,,,,1210.139100000009,1210.635100000009,1209.6235,1210.138900000006,1207.388700000003,1209.623299999997,1210.635200000003,1211.135400000006,1211.1355,1214.388700000003,2820,1214.388900000006,5,1214.402,3,20,110,17,1,1.2,0.7,Time
,,421766,001,男,34,2025-06-04_14h00.24.351,Serial_Dependence_U,2023.2.3,Win32,60.24096385545337,,,,,,1214.404100000009,342,3,1214.4045,342,,,,1218.588299999997,1219.085900000006,1218.072299999997,1218.588,1215.404700000003,1218.072100000009,1219.085900000006,1219.585600000009,1219.585600000009,1224.039900000006,4133,1224.040100000009,5,1224.052799999997,3,21,111,4,1,1.6,0.3,Time
,,421766,001,男,34,2025-06-04_14h00.24.351,Serial_Dependence_U,2023.2.3,Win32,60.24096385545337,,,,,,1224.053700000003,15,3,1224.053900000006,15,,,,1227.5905,1228.086600000009,1227.088799999997,1227.5902999999971,1225.0554000000059,1227.088600000009,1228.086600000009,1228.586200000003,1228.586299999997,1233.321299999997,4336,1233.3215,5,1233.333299999997,3,22,112,16,1,1,0.7,Time
,,421766,001,男,34,2025-06-04_14h00.24.351,Serial_Dependence_U,2023.2.3,Win32,60.24096385545337,,,,,,1233.336,155,3,1233.336700000003,155,,,,1236.921400000006,1237.418400000006,1236.404799999997,1236.921,1234.339,1236.4045,1237.4185,1237.918400000006,1237.918600000009,1242.874200000003,4183,1242.8745000000001,5,1242.890600000009,3,23,113,21,1,1,0.3,Time
,,421766,001,男,34,2025-06-04_14h00.24.351,Serial_Dependence_U,2023.2.3,Win32,60.24096385545337,,,,,,1242.891200000003,131,3,1242.891600000009,131,,,,1246.2545,1246.752100000009,1245.738100000009,1246.254400000006,1243.8895,1245.7377999999972,1246.752100000009,1247.251799999997,1247.251900000006,1252.775,4750,1252.775200000003,5,1252.789200000003,3,24,114,15,1,0.8,0.7,Time
,,421766,001,男,34,2025-06-04_14h00.24.351,Serial_Dependence_U,2023.2.3,Win32,60.24096385545337,,,,,,1252.790100000009,8,3,1252.790299999997,8,,,,1256.171600000009,1256.668700000003,1255.655200000003,1256.171400000006,1253.788299999997,1255.654900000006,1256.668700000003,1257.168200000003,1257.168299999997,1263.040100000009,5167,1263.040299999997,5,1263.053400000006,3,25,115,20,1,0.8,0.3,Time
,,421766,001,男,34,2025-06-04_14h00.24.351,Serial_Dependence_U,2023.2.3,Win32,60.24096385545337,,,,,,1263.054200000003,117,3,1263.054799999997,117,,,,1267.204600000009,1267.702100000009,1266.690600000009,1267.2042999999971,1264.054600000009,1266.690400000006,1267.702299999997,1268.201799999997,1268.201900000006,1282.704600000009,2850,1282.705,5,1282.719400000006,3,26,116,29,1,1.6,0.7,Time
,,421766,001,男,34,2025-06-04_14h00.24.351,Serial_Dependence_U,2023.2.3,Win32,60.24096385545337,,,,,,1282.720299999997,219,3,1282.720400000006,219,,,,1286.705,1287.202600000009,1286.188299999997,1286.704700000003,1283.721100000009,1286.188100000009,1287.203,1287.702,1287.702200000003,1294.888799999997,4669,1294.8890000000001,5,1294.9065,3,27,117,3,1,1.4,0.3,Time
,,421766,001,男,34,2025-06-04_14h00.24.351,Serial_Dependence_U,2023.2.3,Win32,60.24096385545337,,,,,,1294.907,318,3,1294.907400000006,318,,,,1298.2545,1298.751900000006,1297.741100000009,1298.254299999997,1295.904400000006,1297.740900000006,1298.752,1299.251799999997,1299.251900000006,1303.8872999999971,4117,1303.888,5,1303.904400000006,3,28,118,25,1,0.8,0.7,Time
,,421766,001,男,34,2025-06-04_14h00.24.351,Serial_Dependence_U,2023.2.3,Win32,60.24096385545337,,,,,,1303.905100000009,353,3,1303.905299999997,353,,,,1307.671100000009,1308.1685,1307.154600000009,1307.671,1304.921200000003,1307.154299999997,1308.168600000009,1308.668400000006,1308.668400000006,1314.021700000003,4577,1314.0226000000089,5,1314.039700000003,3,29,119,7,1,1.2,0.7,Time
,,421766,001,男,34,2025-06-04_14h00.24.351,Serial_Dependence_U,2023.2.3,Win32,60.24096385545337,,,,,,1314.040299999997,355,4,1377.286900000006,355,s,63.222299999997176,,1381.076,1381.568400000006,1380.561900000006,1381.0757999999971,1378.288900000006,1380.561400000006,1381.568600000009,1382.068299999997,1382.068400000006,1386.361700000003,3733,1386.361900000006,5,1386.375299999997,4,0,120,22,1,1.2,0.3,Time
,,421766,001,男,34,2025-06-04_14h00.24.351,Serial_Dependence_U,2023.2.3,Win32,60.24096385545337,,,,,,1386.375700000003,31,4,1386.376799999997,31,,,,1389.755,1390.251400000006,1389.244,1389.7545,1387.376400000006,1389.243799999997,1390.251400000006,1390.751600000009,1390.751700000003,1393.711,2617,1393.711200000003,5,1393.7239000000059,4,1,121,20,1,0.8,0.3,Time
,,421766,001,男,34,2025-06-04_14h00.24.351,Serial_Dependence_U,2023.2.3,Win32,60.24096385545337,,,,,,1393.724400000006,81,4,1393.724700000003,81,,,,1397.273700000003,1397.768700000003,1396.771100000009,1397.2725,1394.727,1396.770900000006,1397.768700000003,1398.2685000000001,1398.2685000000001,1401.986900000006,3401,1401.987100000009,5,1401.999799999997,4,2,122,26,1,1,0.7,Time
,,421766,001,男,34,2025-06-04_14h00.24.351,Serial_Dependence_U,2023.2.3,Win32,60.24096385545337,,,,,,1402.000299999997,48,4,1402.0005,48,,,,1406.004200000003,1406.501799999997,1405.4875,1406.003799999997,1403.020799999997,1405.487299999997,1406.501799999997,1407.001299999997,1407.001400000006,1412.0775,4609,1412.077799999997,5,1412.0902999999971,4,3,123,23,1,1.4,0.3,Time
,,421766,001,男,34,2025-06-04_14h00.24.351,Serial_Dependence_U,2023.2.3,Win32,60.24096385545337,,,,,,1412.090900000006,279,4,1412.0910000000001,279,,,,1415.443,1415.935400000006,1414.927200000003,1415.442900000006,1413.093299999997,1414.926900000006,1415.9355,1416.439700000003,1416.4397999999971,1420.479600000009,3650,1420.479799999997,5,1420.494299999997,4,4,124,5,1,0.8,0.7,Time
,,421766,001,男,34,2025-06-04_14h00.24.351,Serial_Dependence_U,2023.2.3,Win32,60.24096385545337,,,,,,1420.494799999997,257,4,1420.4950000000001,257,,,,1423.859100000009,1424.352200000003,1423.342400000006,1423.858900000006,1421.494200000003,1423.342200000003,1424.352299999997,1424.852200000003,1424.852299999997,1451.545200000003,3285,1451.5454000000059,5,1451.557299999997,4,5,125,15,1,0.8,0.7,Time
,,421766,001,男,34,2025-06-04_14h00.24.351,Serial_Dependence_U,2023.2.3,Win32,60.24096385545337,,,,,,1451.557799999997,336,4,1451.558,336,,,,1455.526900000006,1456.018299999997,1455.009200000003,1455.526700000003,1452.560100000009,1455.009,1456.018400000006,1456.518200000003,1456.518299999997,1461.471299999997,4635,1461.471600000009,5,1461.485100000009,4,6,126,18,1,1.4,0.7,Time
,,421766,001,男,34,2025-06-04_14h00.24.351,Serial_Dependence_U,2023.2.3,Win32,60.24096385545337,,,,,,1461.485600000009,289,4,1461.485900000006,289,,,,1465.645100000009,1466.134799999997,1465.127799999997,1465.644900000006,1462.487299999997,1465.1275,1466.134799999997,1466.635600000009,1466.635700000003,1472.828299999997,4100,1472.828400000006,5,1472.843600000009,4,7,127,9,1,1.6,0.7,Time
,,421766,001,男,34,2025-06-04_14h00.24.351,Serial_Dependence_U,2023.2.3,Win32,60.24096385545337,,,,,,1472.844100000009,258,4,1472.844299999997,258,,,,1476.211400000006,1476.701700000003,1475.7101000000089,1476.2111000000089,1473.8447999999971,1475.7097999999971,1476.701799999997,1477.202799999997,1477.202900000006,1483.314,5835,1483.314400000006,5,1483.328100000009,4,8,128,10,1,0.8,0.3,Time
,,421766,001,男,34,2025-06-04_14h00.24.351,Serial_Dependence_U,2023.2.3,Win32,60.24096385545337,,,,,,1483.328600000009,132,4,1483.328799999997,132,,,,1487.288900000006,1487.785100000009,1486.771600000009,1487.288600000009,1484.322700000003,1486.771299999997,1487.785200000003,1488.285100000009,1488.285100000009,1492.7955,4324,1492.795700000003,5,1492.808200000003,4,9,129,8,1,1.4,0.7,Time
,,421766,001,男,34,2025-06-04_14h00.24.351,Serial_Dependence_U,2023.2.3,Win32,60.24096385545337,,,,,,1492.808700000003,171,4,1492.808900000006,171,,,,1496.1766000000089,1496.668400000006,1495.660100000009,1496.176400000006,1493.810400000006,1495.659900000006,1496.6685,1497.168400000006,1497.1685,1503.380400000006,5584,1503.381600000009,5,1503.394400000006,4,10,130,25,1,0.8,0.7,Time
,,421766,001,男,34,2025-06-04_14h00.24.351,Serial_Dependence_U,2023.2.3,Win32,60.24096385545337,,,,,,1503.395,113,4,1503.395200000003,113,,,,1507.576799999997,1508.068799999997,1507.0605,1507.576600000009,1504.392400000006,1507.0602999999971,1508.068799999997,1508.573299999997,1508.573400000006,1512.862200000003,3935,1512.862400000006,5,1512.8755,4,11,131,4,1,1.6,0.3,Time
,,421766,001,男,34,2025-06-04_14h00.24.351,Serial_Dependence_U,2023.2.3,Win32,60.24096385545337,,,,,,1512.876,345,4,1512.876200000003,345,,,,1516.626600000009,1517.118200000003,1516.109200000003,1516.626400000006,1513.875900000006,1516.108900000006,1517.1182999999971,1517.6182999999971,1517.618400000006,1523.229600000009,4850,1523.229900000006,5,1523.241600000009,4,12,132,7,1,1.2,0.7,Time
,,421766,001,男,34,2025-06-04_14h00.24.351,Serial_Dependence_U,2023.2.3,Win32,60.24096385545337,,,,,,1523.242,207,4,1523.242299999997,207,,,,1526.625799999997,1527.118900000006,1526.109100000009,1526.625600000009,1524.243400000006,1526.108900000006,1527.118900000006,1527.618100000009,1527.618400000006,1532.490299999997,4316,1532.490700000003,5,1532.503200000003,4,13,133,0,1,0.8,0.3,Time
,,421766,001,男,34,2025-06-04_14h00.24.351,Serial_Dependence_U,2023.2.3,Win32,60.24096385545337,,,,,,1532.503900000006,343,4,1532.5045,343,,,,1536.492200000003,1536.989,1535.975700000003,1536.492,1533.5036000000089,1535.9755,1536.989,1537.484700000003,1537.484799999997,1542.4601000000089,4600,1542.460299999997,5,1542.473400000006,4,14,134,3,1,1.4,0.3,Time
,,421766,001,男,34,2025-06-04_14h00.24.351,Serial_Dependence_U,2023.2.3,Win32,60.24096385545337,,,,,,1542.474,335,4,1542.474100000009,335,,,,1546.637900000006,1547.134400000006,1546.120400000006,1546.637700000003,1543.478299999997,1546.120100000009,1547.134400000006,1547.634600000009,1547.634600000009,1555.994799999997,4666,1555.9950000000001,5,1556.006600000009,4,15,135,19,1,1.6,0.7,Time
,,421766,001,男,34,2025-06-04_14h00.24.351,Serial_Dependence_U,2023.2.3,Win32,60.24096385545337,,,,,,1556.007100000009,351,4,1556.007299999997,351,,,,1559.545100000009,1560.034700000003,1559.042900000006,1559.545,1557.0091000000089,1559.042700000003,1560.034799999997,1560.535299999997,1560.535400000006,1567.597,6053,1567.597200000003,5,1567.612700000003,4,16,136,6,1,1,0.7,Time
,,421766,001,男,34,2025-06-04_14h00.24.351,Serial_Dependence_U,2023.2.3,Win32,60.24096385545337,,,,,,1567.6134000000059,2,4,1567.6135,2,,,,1571.343700000003,1571.839200000003,1570.8425,1571.3434000000059,1568.604400000006,1570.842200000003,1571.8392999999971,1572.334900000006,1572.334900000006,1576.996400000006,4535,1576.996600000009,5,1577.0095000000001,4,17,137,27,1,1.2,0.7,Time
,,421766,001,男,34,2025-06-04_14h00.24.351,Serial_Dependence_U,2023.2.3,Win32,60.24096385545337,,,,,,1577.009900000006,110,4,1577.010100000009,110,,,,1580.589,1581.0844000000059,1580.087799999997,1580.588799999997,1578.010600000009,1580.087600000009,1581.0845,1581.584900000006,1581.584900000006,1585.9701000000089,4117,1585.970299999997,5,1585.983100000009,4,18,138,11,1,1,0.3,Time
,,421766,001,男,34,2025-06-04_14h00.24.351,Serial_Dependence_U,2023.2.3,Win32,60.24096385545337,,,,,,1585.984,335,4,1585.984400000006,335,,,,1589.955200000003,1590.451400000006,1589.454100000009,1589.955,1586.9887999999971,1589.453900000006,1590.451400000006,1590.9515000000001,1590.9515000000001,1595.0935,3807,1595.0937999999971,5,1595.108700000003,4,19,139,13,1,1.4,0.3,Time
,,421766,001,男,34,2025-06-04_14h00.24.351,Serial_Dependence_U,2023.2.3,Win32,60.24096385545337,,,,,,1595.109200000003,247,4,1595.109400000006,247,,,,1598.889299999997,1599.384700000003,1598.3705,1598.889100000009,1596.1041000000089,1598.370200000003,1599.384700000003,1599.884799999997,1599.884799999997,1607.007200000003,4873,1607.0074000000059,5,1607.022700000003,4,20,140,12,1,1.2,0.3,Time
,,421766,001,男,34,2025-06-04_14h00.24.351,Serial_Dependence_U,2023.2.3,Win32,60.24096385545337,,,,,,1607.023200000003,98,4,1607.0235,98,,,,1610.604200000003,1611.101200000003,1610.087400000006,1610.603600000009,1608.020299999997,1610.087100000009,1611.101200000003,1611.6015,1611.6015,1623.038,4103,1623.038400000006,5,1623.049900000006,4,21,141,1,1,1,0.3,Time
,,421766,001,男,34,2025-06-04_14h00.24.351,Serial_Dependence_U,2023.2.3,Win32,60.24096385545337,,,,,,1623.0509000000059,88,4,1623.0512999999971,88,,,,1627.220600000009,1627.717900000006,1626.704600000009,1627.220400000006,1624.0554000000059,1626.7042999999971,1627.718100000009,1628.2187999999971,1628.218900000006,1632.337700000003,3466,1632.338100000009,5,1632.356299999997,4,22,142,29,1,1.6,0.7,Time
,,421766,001,男,34,2025-06-04_14h00.24.351,Serial_Dependence_U,2023.2.3,Win32,60.24096385545337,,,,,,1632.357100000009,115,4,1632.357799999997,115,,,,1635.908900000006,1636.406200000003,1635.404100000009,1635.908700000003,1633.355400000006,1635.403900000006,1636.406200000003,1636.9017999999971,1636.9021000000089,1640.736700000003,3499,1640.737,5,1640.752200000003,4,23,143,16,1,1,0.7,Time
,,421766,001,男,34,2025-06-04_14h00.24.351,Serial_Dependence_U,2023.2.3,Win32,60.24096385545337,,,,,,1640.753100000009,280,4,1640.753200000003,280,,,,1644.539900000006,1645.035600000009,1644.0215,1644.539700000003,1641.756,1644.021200000003,1645.035700000003,1645.534200000003,1645.534400000006,1650.539100000009,4618,1650.539299999997,5,1650.553400000006,4,24,144,2,1,1.2,0.3,Time
,,421766,001,男,34,2025-06-04_14h00.24.351,Serial_Dependence_U,2023.2.3,Win32,60.24096385545337,,,,,,1650.554200000003,287,4,1650.554400000006,287,,,,1654.521,1655.017600000009,1654.004100000009,1654.520799999997,1651.555,1654.003900000006,1655.017700000003,1655.517700000003,1655.5177999999971,1665.487,5198,1665.487200000003,5,1665.501200000003,4,25,145,28,1,1.4,0.7,Time
,,421766,001,男,34,2025-06-04_14h00.24.351,Serial_Dependence_U,2023.2.3,Win32,60.24096385545337,,,,,,1665.501799999997,136,4,1665.502100000009,136,,,,1669.688400000006,1670.184700000003,1669.170700000003,1669.688200000003,1666.5040000000001,1669.1705,1670.184700000003,1670.6852999999971,1670.685400000006,1675.1034000000059,4099,1675.103700000003,5,1675.118,4,26,146,24,1,1.6,0.3,Time
,,421766,001,男,34,2025-06-04_14h00.24.351,Serial_Dependence_U,2023.2.3,Win32,60.24096385545337,,,,,,1675.118799999997,226,4,1675.119,226,,,,1679.3054000000059,1679.8012999999971,1678.789700000003,1679.305100000009,1676.120700000003,1678.789400000006,1679.8012999999971,1680.3016000000089,1680.301700000003,1752.344200000003,2941,1752.344700000003,5,1752.345299999997,4,27,147,14,1,1.6,0.3,Time
,,421766,001,男,34,2025-06-04_14h00.24.351,Serial_Dependence_U,2023.2.3,Win32,60.24096385545337,,,,,,1752.345900000006,354,4,1752.346100000009,354,,,,1756.111200000003,1756.607400000006,1755.593900000006,1756.111,1753.345400000006,1755.593700000003,1756.6075,1757.105900000006,1757.106100000009,1760.674799999997,3265,1760.675100000009,5,1760.689100000009,4,28,148,17,1,1.2,0.7,Time
,,421766,001,男,34,2025-06-04_14h00.24.351,Serial_Dependence_U,2023.2.3,Win32,60.24096385545337,,,,,,1760.689600000009,63,4,1760.6897999999971,63,,,,1764.276100000009,1764.767600000009,1763.761299999997,1764.275900000006,1761.695799999997,1763.761200000003,1764.767700000003,1765.2675,1765.267700000003,1768.8765,3465,1768.876700000003,5,1768.890299999997,4,29,149,21,1,1,0.3,Time
,,421766,001,男,34,2025-06-04_14h00.24.351,Serial_Dependence_U,2023.2.3,Win32,60.24096385545337,,,,,,1768.890799999997,271,5,1789.768400000006,271,s,20.855999999999995,,1793.526700000003,1794.0175,1793.021600000009,1793.526600000009,1790.770900000006,1793.021299999997,1794.017600000009,1794.5177999999971,1794.518,1798.828799999997,3532,1798.829,5,1798.844299999997,5,0,150,17,1,1.2,0.7,Time
,,421766,001,男,34,2025-06-04_14h00.24.351,Serial_Dependence_U,2023.2.3,Win32,60.24096385545337,,,,,,1798.844700000003,229,5,1798.845900000006,229,,,,1802.411,1802.906100000009,1801.902900000006,1802.4105,1799.837200000003,1801.902700000003,1802.906200000003,1803.401100000009,1803.401200000003,1807.229200000003,3634,1807.2295,5,1807.241600000009,5,1,151,21,1,1,0.3,Time
,,421766,001,男,34,2025-06-04_14h00.24.351,Serial_Dependence_U,2023.2.3,Win32,60.24096385545337,,,,,,1807.242100000009,265,5,1807.242400000006,265,,,,1811.226200000003,1811.7232999999972,1810.7094000000059,1811.226,1808.243799999997,1810.709200000003,1811.723400000006,1812.222299999997,1812.222400000006,1816.562700000003,3251,1816.563299999997,5,1816.578200000003,5,2,152,13,1,1.4,0.3,Time
,,421766,001,男,34,2025-06-04_14h00.24.351,Serial_Dependence_U,2023.2.3,Win32,60.24096385545337,,,,,,1816.578799999997,354,5,1816.578900000006,354,,,,1820.7540000000001,1821.251,1820.237299999997,1820.753799999997,1817.587200000003,1820.236900000006,1821.251,1821.751100000009,1821.751200000003,1826.253400000006,4213,1826.253700000003,5,1826.269799999997,5,3,153,19,1,1.6,0.7,Time
,,421766,001,男,34,2025-06-04_14h00.24.351,Serial_Dependence_U,2023.2.3,Win32,60.24096385545337,,,,,,1826.270600000009,283,5,1826.270799999997,283,,,,1829.822200000003,1830.317200000003,1829.320700000003,1829.8220000000001,1827.2726000000089,1829.3205,1830.317200000003,1830.817700000003,1830.817700000003,1835.3205,4166,1835.320700000003,5,1835.337700000003,5,4,154,6,1,1,0.7,Time
,,421766,001,男,34,2025-06-04_14h00.24.351,Serial_Dependence_U,2023.2.3,Win32,60.24096385545337,,,,,,1835.338200000003,212,5,1835.338299999997,212,,,,1839.309,1839.8054000000059,1838.805900000006,1839.308799999997,1836.336700000003,1838.805700000003,1839.8054000000059,1840.307,1840.3071000000089,1845.607400000006,5027,1845.607600000009,5,1845.626799999997,5,5,155,3,1,1.4,0.3,Time
,,421766,001,男,34,2025-06-04_14h00.24.351,Serial_Dependence_U,2023.2.3,Win32,60.24096385545337,,,,,,1845.6272999999971,359,5,1845.6275,359,,,,1849.212799999997,1849.703400000006,1848.694600000009,1849.2125,1846.6282999999971,1848.694400000006,1849.704799999997,1850.205700000003,1850.205799999997,1854.271100000009,3659,1854.271299999997,5,1854.2864000000059,5,6,156,11,1,1,0.3,Time
,,421766,001,男,34,2025-06-04_14h00.24.351,Serial_Dependence_U,2023.2.3,Win32,60.24096385545337,,,,,,1854.287200000003,218,5,1854.287400000006,218,,,,1858.271600000009,1858.7677999999971,1857.7555,1858.271400000006,1855.288600000009,1857.755299999997,1858.767900000006,1859.267700000003,1859.267700000003,1864.5910000000001,4890,1864.591200000003,5,1864.608900000006,5,7,157,23,1,1.4,0.3,Time
,,421766,001,男,34,2025-06-04_14h00.24.351,Serial_Dependence_U,2023.2.3,Win32,60.24096385545337,,,,,,1864.6092999999971,66,5,1864.6095,66,,,,1868.170299999997,1868.668200000003,1867.655100000009,1868.170100000009,1865.605700000003,1867.654700000003,1868.668299999997,1869.167400000006,1869.167400000006,1874.903799999997,5499,1874.904,5,1874.919400000006,5,8,158,16,1,1,0.7,Time
,,421766,001,男,34,2025-06-04_14h00.24.351,Serial_Dependence_U,2023.2.3,Win32,60.24096385545337,,,,,,1874.9204000000059,294,5,1874.920700000003,294,,,,1878.7035,1879.200600000009,1878.186799999997,1878.703400000006,1875.922600000009,1878.1866000000089,1879.200600000009,1879.7005,1879.700600000009,1886.0561000000089,6169,1886.056400000006,5,1886.0720000000001,5,9,159,2,1,1.2,0.3,Time
,,421766,001,男,34,2025-06-04_14h00.24.351,Serial_Dependence_U,2023.2.3,Win32,60.24096385545337,,,,,,1886.0725,182,5,1886.072600000009,182,,,,1889.446400000006,1889.934700000003,1888.921100000009,1889.446100000009,1887.072200000003,1888.921,1889.934700000003,1890.435200000003,1890.4352999999971,1895.103100000009,4398,1895.103299999997,5,1895.121700000003,5,10,160,25,1,0.8,0.7,Time
,,421766,001,男,34,2025-06-04_14h00.24.351,Serial_Dependence_U,2023.2.3,Win32,60.24096385545337,,,,,,1895.122200000003,145,5,1895.1224000000059,145,,,,1899.306299999997,1899.801799999997,1898.7867999999971,1899.306200000003,1896.1215,1898.786700000003,1899.801799999997,1900.300700000003,1900.300799999997,1906.070200000003,5397,1906.070700000003,5,1906.0875,5,11,161,4,1,1.6,0.3,Time
,,421766,001,男,34,2025-06-04_14h00.24.351,Serial_Dependence_U,2023.2.3,Win32,60.24096385545337,,,,,,1906.088200000003,308,5,1906.088600000009,308,,,,1910.253700000003,1910.750600000009,1909.736900000006,1910.253400000006,1907.088299999997,1909.7365,1910.750600000009,1911.250700000003,1911.250900000006,1951.937700000003,2901,1951.938,5,1951.952700000003,5,12,162,29,1,1.6,0.7,Time
,,421766,001,男,34,2025-06-04_14h00.24.351,Serial_Dependence_U,2023.2.3,Win32,60.24096385545337,,,,,,1951.954,302,5,1951.954400000006,302,,,,1955.921299999997,1956.4185,1955.405700000003,1955.921100000009,1952.960200000003,1955.4055,1956.418600000009,1956.917900000006,1956.9180000000001,1961.920700000003,4599,1961.920900000006,5,1961.935400000006,5,13,163,18,1,1.4,0.7,Time
,,421766,001,男,34,2025-06-04_14h00.24.351,Serial_Dependence_U,2023.2.3,Win32,60.24096385545337,,,,,,1961.936200000003,68,5,1961.936400000006,68,,,,1965.306700000003,1965.800700000003,1964.786900000006,1965.306400000006,1962.938200000003,1964.786700000003,1965.800700000003,1966.3012999999971,1966.301400000006,1971.221299999997,4400,1971.221600000009,5,1971.234799999997,5,14,164,5,1,0.8,0.7,Time
,,421766,001,男,34,2025-06-04_14h00.24.351,Serial_Dependence_U,2023.2.3,Win32,60.24096385545337,,,,,,1971.235700000003,181,5,1971.235900000006,181,,,,1975.1915000000001,1975.684400000006,1974.687799999997,1975.191299999997,1972.236900000006,1974.687600000009,1975.684700000003,1976.185200000003,1976.185200000003,1980.662299999997,3965,1980.662600000009,5,1980.676400000006,5,15,165,8,1,1.4,0.7,Time
,,421766,001,男,34,2025-06-04_14h00.24.351,Serial_Dependence_U,2023.2.3,Win32,60.24096385545337,,,,,,1980.676900000006,294,5,1980.6771000000087,294,,,,1984.8594999999998,1985.350400000006,1984.353200000003,1984.8589000000059,1981.6757000000032,1984.3529999999998,1985.3505000000002,1985.838600000009,1985.838600000009,1990.1437999999969,3966,1990.1441000000088,5,1990.1592999999968,5,16,166,24,1,1.6,0.3,Time
,,421766,001,男,34,2025-06-04_14h00.24.351,Serial_Dependence_U,2023.2.3,Win32,60.24096385545337,,,,,,1990.159799999997,250,5,1990.1599000000058,250,,,,1994.341700000003,1994.838600000009,1993.8265,1994.341600000009,1991.1591000000092,1993.8262999999972,1994.838600000009,1995.3384000000058,1995.3385,1998.697,2933,1998.6972999999969,5,1998.7094000000059,5,17,167,14,1,1.6,0.3,Time
,,421766,001,男,34,2025-06-04_14h00.24.351,Serial_Dependence_U,2023.2.3,Win32,60.24096385545337,,,,,,1998.7109000000062,57,5,1998.711299999997,57,,,,2002.0877999999968,2002.5859000000062,2001.574400000006,2002.087700000003,1999.7041000000088,2001.574200000003,2002.5859000000062,2003.086,2003.0861000000089,2006.8209000000058,3533,2006.821100000009,5,2006.838799999997,5,18,168,20,1,0.8,0.3,Time
,,421766,001,男,34,2025-06-04_14h00.24.351,Serial_Dependence_U,2023.2.3,Win32,60.24096385545337,,,,,,2006.8392999999971,249,5,2006.8394999999998,249,,,,2010.608299999997,2011.100900000006,2010.1042000000032,2010.607900000006,2007.837100000009,2010.1039000000062,2011.1009999999999,2011.5892000000028,2011.5892999999971,2016.439600000009,4582,2016.4397999999971,5,2016.4554999999998,5,19,169,22,1,1.2,0.3,Time
,,421766,001,男,34,2025-06-04_14h00.24.351,Serial_Dependence_U,2023.2.3,Win32,60.24096385545337,,,,,,2016.4572000000028,192,5,2016.457900000006,192,,,,2019.8376000000092,2020.3352999999972,2019.3210000000001,2019.837200000003,2017.452900000006,2019.3206000000089,2020.3352999999972,2020.833700000003,2020.833799999997,2025.854,4615,2025.8542000000032,5,2025.8677000000032,5,20,170,10,1,0.8,0.3,Time
,,421766,001,男,34,2025-06-04_14h00.24.351,Serial_Dependence_U,2023.2.3,Win32,60.24096385545337,,,,,,2025.8687999999972,93,5,2025.868900000006,93,,,,2029.6212999999968,2030.117,2029.103400000006,2029.6207999999972,2026.8697000000031,2029.103200000003,2030.1171000000088,2030.6171000000088,2030.617200000003,2035.538400000006,4566,2035.5386000000092,5,2035.552200000003,5,21,171,27,1,1.2,0.7,Time
,,421766,001,男,34,2025-06-04_14h00.24.351,Serial_Dependence_U,2023.2.3,Win32,60.24096385545337,,,,,,2035.553,11,5,2035.553100000009,11,,,,2039.1379000000059,2039.6340000000002,2038.620299999997,2039.1377000000032,2036.553600000009,2038.6200000000001,2039.6340000000002,2040.136400000006,2040.1367999999973,2045.4202999999968,4960,2045.4206000000088,5,2045.4370000000001,5,22,172,1,1,1,0.3,Time
,,421766,001,男,34,2025-06-04_14h00.24.351,Serial_Dependence_U,2023.2.3,Win32,60.24096385545337,,,,,,2045.4375000000002,277,5,2045.437700000003,277,,,,2049.3911000000094,2049.8842999999974,2048.8867999999975,2049.3909000000062,2046.437700000003,2048.8866000000094,2049.8842999999974,2050.3840000000005,2050.384200000003,2055.1272999999974,4482,2055.1276000000094,5,2055.142600000009,5,23,173,28,1,1.4,0.7,Time
,,421766,001,男,34,2025-06-04_14h00.24.351,Serial_Dependence_U,2023.2.3,Win32,60.24096385545337,,,,,,2055.1431000000093,229,5,2055.143200000003,229,,,,2058.695299999997,2059.1839000000064,2058.192200000003,2058.695100000009,2056.141900000006,2058.191900000006,2059.1839000000064,2059.6721000000093,2059.6721000000093,2064.377200000003,4316,2064.377400000006,5,2064.3911000000094,5,24,174,26,1,1,0.7,Time
,,421766,001,男,34,2025-06-04_14h00.24.351,Serial_Dependence_U,2023.2.3,Win32,60.24096385545337,,,,,,2064.3917000000033,185,5,2064.391799999997,185,,,,2068.1592000000032,2068.6510000000003,2067.6415,2068.159,2065.3937000000033,2067.641299999997,2068.6512000000034,2069.1557000000034,2069.1557000000034,2072.8142000000034,3452,2072.8145000000004,5,2072.8300000000004,5,25,175,7,1,1.2,0.7,Time
,,421766,001,男,34,2025-06-04_14h00.24.351,Serial_Dependence_U,2023.2.3,Win32,60.24096385545337,,,,,,2072.8306000000093,52,5,2072.8307999999975,52,,,,2076.2034000000062,2076.7005000000004,2075.6870000000004,2076.2031000000093,2073.8379000000064,2075.686799999997,2076.7005000000004,2077.200400000006,2077.2005000000004,2080.0887999999973,2583,2080.0891000000092,5,2080.1034000000063,5,26,176,15,1,0.8,0.7,Time
,,421766,001,男,34,2025-06-04_14h00.24.351,Serial_Dependence_U,2023.2.3,Win32,60.24096385545337,,,,,,2080.104100000009,51,5,2080.104400000006,51,,,,2083.888100000009,2084.383700000003,2083.3720000000003,2083.887900000006,2081.1042000000034,2083.371799999997,2084.383700000003,2084.8835000000004,2084.883700000003,2088.5789000000063,3317,2088.579100000009,5,2088.591400000006,5,27,177,12,1,1.2,0.3,Time
,,421766,001,男,34,2025-06-04_14h00.24.351,Serial_Dependence_U,2023.2.3,Win32,60.24096385545337,,,,,,2088.5917999999974,181,5,2088.5919000000063,181,,,,2091.9860000000003,2092.484700000003,2091.4699000000064,2091.985799999997,2089.592600000009,2091.469600000009,2092.484700000003,2092.984100000009,2092.984100000009,2096.4702000000034,3117,2096.470400000006,5,2096.483100000009,5,28,178,0,1,0.8,0.3,Time
,,421766,001,男,34,2025-06-04_14h00.24.351,Serial_Dependence_U,2023.2.3,Win32,60.24096385545337,,,,,,2096.4846000000093,123,5,2096.485100000009,123,,,,2100.6377000000034,2101.1345,2100.1222000000034,2100.6375000000003,2097.486400000006,2100.121900000006,2101.1346000000094,2101.6346000000094,2101.634799999997,2105.904200000003,3950,2105.9045,5,2105.915700000003,5,29,179,9,1,1.6,0.7,Time
,,421766,001,男,34,2025-06-04_14h00.24.351,Serial_Dependence_U,2023.2.3,Win32,60.24096385545337,,,,,,2105.916900000006,302,6,2110.994799999997,302,s,5.043600000009064,,2114.975700000003,2115.4719000000064,2114.4584000000063,2114.9752999999973,2111.987,2114.458299999997,2115.4719000000064,2115.972,2115.972100000009,2120.7926000000093,3849,2120.7927999999974,5,2120.8062999999975,6,0,180,3,1,1.4,0.3,Time
,,421766,001,男,34,2025-06-04_14h00.24.351,Serial_Dependence_U,2023.2.3,Win32,60.24096385545337,,,,,,2120.8069000000064,26,6,2120.808799999997,26,,,,2124.3742000000034,2124.8672000000033,2123.8582000000033,2124.3740000000003,2121.8114000000064,2123.858,2124.867299999997,2125.367,2125.367100000009,2130.7526000000094,4785,2130.7527999999975,5,2130.765100000009,6,1,181,26,1,1,0.7,Time
,,421766,001,男,34,2025-06-04_14h00.24.351,Serial_Dependence_U,2023.2.3,Win32,60.24096385545337,,,,,,2130.7681000000093,167,6,2130.769299999997,167,,,,2134.7527999999975,2135.2502999999974,2134.236400000006,2134.752400000006,2131.769400000006,2134.236100000009,2135.2505,2135.7506000000094,2135.7506000000094,2139.7195,3919,2139.7197000000033,5,2139.733600000009,6,2,182,23,1,1.4,0.3,Time
,,421766,001,男,34,2025-06-04_14h00.24.351,Serial_Dependence_U,2023.2.3,Win32,60.24096385545337,,,,,,2139.734400000006,98,6,2139.734700000003,98,,,,2143.32,2143.8174000000063,2142.803200000003,2143.3197999999975,2140.7374000000063,2142.802900000006,2143.8175,2144.316600000009,2144.316700000003,2148.718900000006,4316,2148.7191000000093,5,2148.730799999997,6,3,183,1,1,1,0.3,Time
,,421766,001,男,34,2025-06-04_14h00.24.351,Serial_Dependence_U,2023.2.3,Win32,60.24096385545337,,,,,,2148.731299999997,129,6,2148.7315000000003,129,,,,2152.120400000006,2152.6165,2151.6032999999975,2152.1202999999973,2149.736100000009,2151.603200000003,2152.6166000000094,2153.117100000009,2153.117299999997,2157.905900000006,4400,2157.9061000000092,5,2157.921100000009,6,4,184,10,1,0.8,0.3,Time
,,421766,001,男,34,2025-06-04_14h00.24.351,Serial_Dependence_U,2023.2.3,Win32,60.24096385545337,,,,,,2157.921600000009,34,6,2157.9217999999973,34,,,,2161.4747999999972,2161.9714000000063,2160.9575000000004,2161.474600000009,2158.9192999999973,2160.9572999999973,2161.9714000000063,2162.469200000003,2162.469200000003,2166.2272999999973,3432,2166.2275000000004,5,2166.2416000000094,6,5,185,16,1,1,0.7,Time
,,421766,001,男,34,2025-06-04_14h00.24.351,Serial_Dependence_U,2023.2.3,Win32,60.24096385545337,,,,,,2166.242100000009,233,6,2166.2422000000033,233,,,,2169.6079000000063,2170.104700000003,2169.091700000003,2169.607700000003,2167.2442000000033,2169.0915000000005,2170.104700000003,2170.6005000000005,2170.6006000000093,2175.0074000000063,4096,2175.0077000000033,5,2175.022200000003,6,6,186,25,1,0.8,0.7,Time
,,421766,001,男,34,2025-06-04_14h00.24.351,Serial_Dependence_U,2023.2.3,Win32,60.24096385545337,,,,,,2175.022700000003,317,6,2175.0229000000063,317,,,,2178.603200000003,2179.1000000000004,2178.086600000009,2178.603,2176.0200000000004,2178.086400000006,2179.100100000009,2179.601299999997,2179.6014000000064,2183.903600000009,4191,2183.903900000006,5,2183.9165000000003,6,7,187,11,1,1,0.3,Time
,,421766,001,男,34,2025-06-04_14h00.24.351,Serial_Dependence_U,2023.2.3,Win32,60.24096385545337,,,,,,2183.9176000000093,187,6,2183.9179000000063,187,,,,2187.269900000006,2187.766299999997,2186.752700000003,2187.269700000003,2184.919400000006,2186.752400000006,2187.7664000000063,2188.2670000000003,2188.2670000000003,2192.736700000003,3650,2192.737,5,2192.7546000000093,6,8,188,15,1,0.8,0.7,Time
,,421766,001,男,34,2025-06-04_14h00.24.351,Serial_Dependence_U,2023.2.3,Win32,60.24096385545337,,,,,,2192.756100000009,154,6,2192.7566000000093,154,,,,2196.7369000000062,2197.2335000000003,2196.2217000000032,2196.7366000000093,2193.7532000000033,2196.2212999999974,2197.2335000000003,2197.7337000000034,2197.7337999999972,2201.9692999999975,3901,2201.969600000009,5,2201.983400000006,6,9,189,13,1,1.4,0.3,Time
,,421766,001,男,34,2025-06-04_14h00.24.351,Serial_Dependence_U,2023.2.3,Win32,60.24096385545337,,,,,,2201.9845,155,6,2201.9847999999974,155,,,,2206.170799999997,2206.6667000000034,2205.655,2206.170600000009,2202.9891000000093,2205.6546000000094,2206.6667999999972,2207.166600000009,2207.1667000000034,2211.503,3949,2211.503299999997,5,2211.519100000009,6,10,190,4,1,1.6,0.3,Time
,,421766,001,男,34,2025-06-04_14h00.24.351,Serial_Dependence_U,2023.2.3,Win32,60.24096385545337,,,,,,2211.519900000006,94,6,2211.5200000000004,94,,,,2215.086299999997,2215.584900000006,2214.5696000000094,2215.086100000009,2212.5200000000004,2214.5692999999974,2215.584900000006,2216.085,2216.0851000000093,2220.4527999999973,4165,2220.4530000000004,5,2220.471200000003,6,11,191,6,1,1,0.7,Time
,,421766,001,男,34,2025-06-04_14h00.24.351,Serial_Dependence_U,2023.2.3,Win32,60.24096385545337,,,,,,2220.471799999997,9,6,2220.4719000000064,9,,,,2224.253,2224.7502999999974,2223.736400000006,2224.2529000000063,2221.469200000003,2223.736200000003,2224.7502999999974,2225.249900000006,2225.2500000000005,2229.087799999997,3185,2229.088,5,2229.1032999999975,6,12,192,12,1,1.2,0.3,Time
,,421766,001,男,34,2025-06-04_14h00.24.351,Serial_Dependence_U,2023.2.3,Win32,60.24096385545337,,,,,,2229.103799999997,10,6,2229.104100000009,10,,,,2233.0725,2233.566400000006,2232.57,2233.0722000000032,2230.1206000000093,2232.5697999999975,2233.566600000009,2234.0665000000004,2234.066600000009,2238.1712000000034,3768,2238.171400000006,5,2238.184100000009,6,13,193,18,1,1.4,0.7,Time
,,421766,001,男,34,2025-06-04_14h00.24.351,Serial_Dependence_U,2023.2.3,Win32,60.24096385545337,,,,,,2238.184900000006,250,6,2238.185200000003,250,,,,2241.554200000003,2242.050100000009,2241.037900000006,2241.554,2239.187400000006,2241.037700000003,2242.050100000009,2242.550299999997,2242.550400000006,2246.736400000006,3938,2246.7365000000004,5,2246.748799999997,6,14,194,5,1,0.8,0.7,Time
,,421766,001,男,34,2025-06-04_14h00.24.351,Serial_Dependence_U,2023.2.3,Win32,60.24096385545337,,,,,,2246.751299999997,149,6,2246.7517999999973,149,,,,2250.504400000006,2251.000200000003,2249.987299999997,2250.5042999999973,2247.7527999999975,2249.9871000000094,2251.0002999999974,2251.5005,2251.5007000000032,2256.0690000000004,4230,2256.0692999999974,5,2256.085,6,15,195,7,1,1.2,0.7,Time
,,421766,001,男,34,2025-06-04_14h00.24.351,Serial_Dependence_U,2023.2.3,Win32,60.24096385545337,,,,,,2256.0859000000064,152,6,2256.086100000009,152,,,,2260.0537999999974,2260.5499000000063,2259.536600000009,2260.0535000000004,2257.086600000009,2259.5364000000063,2260.55,2261.0510000000004,2261.051400000006,2265.7194000000063,4364,2265.719600000009,5,2265.7329000000063,6,16,196,28,1,1.4,0.7,Time
,,421766,001,男,34,2025-06-04_14h00.24.351,Serial_Dependence_U,2023.2.3,Win32,60.24096385545337,,,,,,2265.733600000009,208,6,2265.733900000006,208,,,,2269.687400000006,2270.1830000000004,2269.1864000000064,2269.687200000003,2266.735900000006,2269.186100000009,2270.1831000000093,2270.6842000000033,2270.684299999997,2275.6211000000094,4731,2275.621299999997,5,2275.635100000009,6,17,197,8,1,1.4,0.7,Time
,,421766,001,男,34,2025-06-04_14h00.24.351,Serial_Dependence_U,2023.2.3,Win32,60.24096385545337,,,,,,2275.6362999999974,272,6,2275.6366000000094,272,,,,2279.8044000000064,2280.3005000000003,2279.2865,2279.8041000000094,2276.637,2279.286200000003,2280.300600000009,2280.8,2280.800100000009,2285.569400000006,4449,2285.569700000003,5,2285.5857000000033,6,18,198,9,1,1.6,0.7,Time
,,421766,001,男,34,2025-06-04_14h00.24.351,Serial_Dependence_U,2023.2.3,Win32,60.24096385545337,,,,,,2285.586700000003,232,6,2285.5871000000093,232,,,,2288.9697000000033,2289.4666000000093,2288.4547999999972,2288.9695,2286.586700000003,2288.454400000006,2289.4666000000093,2289.9680000000003,2289.968100000009,2295.421700000003,4886,2295.422,5,2295.437200000003,6,19,199,0,1,0.8,0.3,Time
,,421766,001,男,34,2025-06-04_14h00.24.351,Serial_Dependence_U,2023.2.3,Win32,60.24096385545337,,,,,,2295.4376000000093,0,6,2295.4379000000063,0,,,,2299.0217999999973,2299.517100000009,2298.5035000000003,2299.0215000000003,2296.436799999997,2298.503299999997,2299.5172000000034,2300.016900000006,2300.0170000000003,2305.3196000000094,3269,2305.3199000000063,5,2305.334700000003,6,20,200,21,1,1,0.3,Time
,,421766,001,男,34,2025-06-04_14h00.24.351,Serial_Dependence_U,2023.2.3,Win32,60.24096385545337,,,,,,2305.335200000003,2,6,2305.3352999999975,2,,,,2309.091100000009,2309.583299999997,2308.5765,2309.090799999997,2306.336600000009,2308.576200000003,2309.5834000000063,2310.083799999997,2310.083900000006,2318.3092000000033,3907,2318.309299999997,5,2318.3230000000003,6,21,201,27,1,1.2,0.7,Time
,,421766,001,男,34,2025-06-04_14h00.24.351,Serial_Dependence_U,2023.2.3,Win32,60.24096385545337,,,,,,2318.323400000006,336,6,2318.3236000000093,336,,,,2322.5240000000003,2323.0185,2322.003299999997,2322.523799999997,2319.3242999999975,2322.003,2323.018600000009,2323.516200000003,2323.516299999997,2329.7692000000034,4867,2329.7695000000003,5,2329.7830000000004,6,22,202,14,1,1.6,0.3,Time
,,421766,001,男,34,2025-06-04_14h00.24.351,Serial_Dependence_U,2023.2.3,Win32,60.24096385545337,,,,,,2329.783700000003,331,6,2329.7842000000032,331,,,,2333.570900000006,2334.0667999999973,2333.0537999999974,2333.5707000000034,2330.7861000000094,2333.0536000000093,2334.0667999999973,2334.5665000000004,2334.5665000000004,2340.6207999999974,4749,2340.621,5,2340.632799999997,6,23,203,22,1,1.2,0.3,Time
,,421766,001,男,34,2025-06-04_14h00.24.351,Serial_Dependence_U,2023.2.3,Win32,60.24096385545337,,,,,,2340.633900000006,76,6,2340.634200000003,76,,,,2344.391,2344.8830000000003,2343.876900000006,2344.3907999999974,2341.6361000000093,2343.8767999999973,2344.883100000009,2345.383100000009,2345.3832000000034,2351.696200000003,4302,2351.696400000006,5,2351.7105,6,24,204,17,1,1.2,0.7,Time
,,421766,001,男,34,2025-06-04_14h00.24.351,Serial_Dependence_U,2023.2.3,Win32,60.24096385545337,,,,,,2351.711100000009,14,6,2351.711600000009,14,,,,2355.490700000003,2355.983400000006,2354.9745000000003,2355.490299999997,2352.702,2354.9742000000033,2355.9835000000003,2356.483400000006,2356.4835000000003,2362.0085000000004,4739,2362.008900000006,5,2362.023299999997,6,25,205,2,1,1.2,0.3,Time
,,421766,001,男,34,2025-06-04_14h00.24.351,Serial_Dependence_U,2023.2.3,Win32,60.24096385545337,,,,,,2362.0240000000003,216,6,2362.024400000006,216,,,,2366.1562999999974,2366.6495000000004,2365.6522999999975,2366.1561000000092,2363.0189000000064,2365.6521000000093,2366.6496000000093,2367.1499000000063,2367.15,2373.019700000003,5034,2373.0200000000004,5,2373.037700000003,6,26,206,29,1,1.6,0.7,Time
,,421766,001,男,34,2025-06-04_14h00.24.351,Serial_Dependence_U,2023.2.3,Win32,60.24096385545337,,,,,,2373.038200000003,0,6,2373.0384000000063,0,,,,2377.193600000009,2377.686799999997,2376.6745,2377.193299999997,2374.0361000000094,2376.6742999999974,2377.686799999997,2378.1831000000093,2378.1832999999974,2382.1942999999974,3343,2382.1945,5,2382.2081000000094,6,27,207,19,1,1.6,0.7,Time
,,421766,001,男,34,2025-06-04_14h00.24.351,Serial_Dependence_U,2023.2.3,Win32,60.24096385545337,,,,,,2382.2087000000033,333,6,2382.208900000006,333,,,,2386.392900000006,2386.8867999999975,2385.874400000006,2386.392600000009,2383.2085,2385.8739000000064,2386.8869000000063,2387.383400000006,2387.383600000009,2391.137900000006,3317,2391.138100000009,5,2391.1515000000004,6,28,208,24,1,1.6,0.3,Time
,,421766,001,男,34,2025-06-04_14h00.24.351,Serial_Dependence_U,2023.2.3,Win32,60.24096385545337,,,,,,2391.152,104,6,2391.152200000003,104,,,,2394.542400000006,2395.033400000006,2394.025299999997,2394.5422999999973,2392.1516000000092,2394.025200000003,2395.0335000000005,2395.5212000000033,2395.521299999997,2399.843700000003,3949,2399.843900000006,5,2399.8565000000003,6,29,209,20,1,0.8,0.3,Time
,,421766,001,男,34,2025-06-04_14h00.24.351,Serial_Dependence_U,2023.2.3,Win32,60.24096385545337,,,,,,2399.857200000003,230,7,2410.1607999999974,230,s,10.272899999990841,,2413.7365000000004,2414.233600000009,2413.2242000000033,2413.7362999999973,2411.1521000000093,2413.224100000009,2414.2337000000034,2414.733,2414.733,2418.793100000009,3932,2418.7942999999973,5,2418.808200000003,7,0,210,1,1,1,0.3,Time
,,421766,001,男,34,2025-06-04_14h00.24.351,Serial_Dependence_U,2023.2.3,Win32,60.24096385545337,,,,,,2418.808799999997,311,7,2418.8112000000033,311,,,,2422.990400000006,2423.483299999997,2422.473700000003,2422.9902000000034,2419.8032999999973,2422.4736000000094,2423.483400000006,2423.983100000009,2423.9832000000033,2430.9437999999973,4183,2430.943900000006,5,2430.956100000009,7,1,211,14,1,1.6,0.3,Time
,,421766,001,男,34,2025-06-04_14h00.24.351,Serial_Dependence_U,2023.2.3,Win32,60.24096385545337,,,,,,2430.956600000009,260,7,2430.957100000009,260,,,,2434.7407999999973,2435.233100000009,2434.224,2434.7405000000003,2431.9592999999973,2434.223700000003,2435.2332000000033,2435.733299999997,2435.733299999997,2440.2747999999974,4514,2440.2749000000063,5,2440.2882999999974,7,2,212,22,1,1.2,0.3,Time
,,421766,001,男,34,2025-06-04_14h00.24.351,Serial_Dependence_U,2023.2.3,Win32,60.24096385545337,,,,,,2440.2887000000032,153,7,2440.2889000000064,153,,,,2444.0587000000032,2444.549700000003,2443.5417000000034,2444.0585,2441.292700000003,2443.5414000000064,2444.549799999997,2445.052900000006,2445.052900000006,2451.587799999997,5872,2451.588100000009,5,2451.6045000000004,7,3,213,7,1,1.2,0.7,Time
,,421766,001,男,34,2025-06-04_14h00.24.351,Serial_Dependence_U,2023.2.3,Win32,60.24096385545337,,,,,,2451.604900000006,290,7,2451.6051000000093,290,,,,2455.5907000000034,2456.0852999999975,2455.0752999999972,2455.5904000000064,2452.6034000000063,2455.075100000009,2456.0854000000063,2456.583299999997,2456.5834000000063,2461.2625000000003,4333,2461.262900000006,5,2461.277,7,4,214,13,1,1.4,0.3,Time
,,421766,001,男,34,2025-06-04_14h00.24.351,Serial_Dependence_U,2023.2.3,Win32,60.24096385545337,,,,,,2461.277799999997,297,7,2461.278100000009,297,,,,2464.876,2465.3664000000063,2464.3575,2464.875200000003,2462.2850000000003,2464.3572999999974,2465.3664000000063,2465.8542000000034,2465.8542000000034,2471.522200000003,4691,2471.523,5,2471.5382999999974,7,5,215,21,1,1,0.3,Time
,,421766,001,男,34,2025-06-04_14h00.24.351,Serial_Dependence_U,2023.2.3,Win32,60.24096385545337,,,,,,2471.539100000009,67,7,2471.5397000000034,67,,,,2475.6901000000094,2476.182600000009,2475.185400000006,2475.689900000006,2472.5406000000094,2475.185200000003,2476.182700000003,2476.671100000009,2476.671100000009,2482.164299999997,5019,2482.164600000009,5,2482.1777000000034,7,6,216,29,1,1.6,0.7,Time
,,421766,001,男,34,2025-06-04_14h00.24.351,Serial_Dependence_U,2023.2.3,Win32,60.24096385545337,,,,,,2482.178100000009,129,7,2482.1782999999973,129,,,,2485.9237999999973,2486.416100000009,2485.4072000000033,2485.923600000009,2483.168900000006,2485.407,2486.416100000009,2486.9165000000003,2486.9165000000003,2489.8687999999975,2451,2489.869,5,2489.8832000000034,7,7,217,27,1,1.2,0.7,Time
,,421766,001,男,34,2025-06-04_14h00.24.351,Serial_Dependence_U,2023.2.3,Win32,60.24096385545337,,,,,,2489.8840000000005,346,7,2489.884200000003,346,,,,2493.2525,2493.749400000006,2492.7355000000002,2493.2522999999974,2490.8855000000003,2492.735299999997,2493.749400000006,2494.2497999999973,2494.2497999999973,2498.6811000000093,3877,2498.6812999999975,5,2498.6940000000004,7,8,218,25,1,0.8,0.7,Time
,,421766,001,男,34,2025-06-04_14h00.24.351,Serial_Dependence_U,2023.2.3,Win32,60.24096385545337,,,,,,2498.6947999999975,49,7,2498.695,49,,,,2502.2405000000003,2502.7329000000063,2501.724600000009,2502.2402000000034,2499.6847999999973,2501.724299999997,2502.7329000000063,2503.2332000000033,2503.233299999997,2509.185700000003,4018,2509.1857999999975,5,2509.198700000003,7,9,219,6,1,1,0.7,Time
,,421766,001,男,34,2025-06-04_14h00.24.351,Serial_Dependence_U,2023.2.3,Win32,60.24096385545337,,,,,,2509.1994000000063,233,7,2509.199900000006,233,,,,2512.5857000000033,2513.084900000006,2512.0704000000064,2512.5855,2510.2022000000034,2512.070100000009,2513.085,2513.584900000006,2513.584900000006,2518.289600000009,4187,2518.289900000006,5,2518.3032999999973,7,10,220,10,1,0.8,0.3,Time
,,421766,001,男,34,2025-06-04_14h00.24.351,Serial_Dependence_U,2023.2.3,Win32,60.24096385545337,,,,,,2518.3037999999974,54,7,2518.304,54,,,,2522.085600000009,2522.583,2521.5690000000004,2522.0852999999975,2519.3035000000004,2521.5687000000034,2522.583200000003,2523.082700000003,2523.0827999999974,2527.9197999999974,4450,2527.92,5,2527.936,7,11,221,2,1,1.2,0.3,Time
,,421766,001,男,34,2025-06-04_14h00.24.351,Serial_Dependence_U,2023.2.3,Win32,60.24096385545337,,,,,,2527.936600000009,246,7,2527.9367000000034,246,,,,2531.8857000000035,2532.384200000003,2531.370700000003,2531.885400000006,2528.9359000000063,2531.3705000000004,2532.3842999999974,2532.8827000000033,2532.8827000000033,2537.5904000000064,4317,2537.590600000009,5,2537.605600000009,7,12,222,18,1,1.4,0.7,Time
,,421766,001,男,34,2025-06-04_14h00.24.351,Serial_Dependence_U,2023.2.3,Win32,60.24096385545337,,,,,,2537.6062000000034,85,7,2537.606400000006,85,,,,2541.0021000000092,2541.499400000006,2540.485900000006,2541.001900000006,2538.618700000003,2540.485799999997,2541.499400000006,2541.999600000009,2541.999700000003,2547.2032999999974,4617,2547.2035,5,2547.220299999997,7,13,223,20,1,0.8,0.3,Time
,,421766,001,男,34,2025-06-04_14h00.24.351,Serial_Dependence_U,2023.2.3,Win32,60.24096385545337,,,,,,2547.220700000003,63,7,2547.2210000000005,63,,,,2551.003900000006,2551.499400000006,2550.488400000006,2551.0037000000034,2548.2191000000093,2550.4882000000034,2551.499400000006,2551.999299999997,2551.999400000006,2558.5516000000093,4230,2558.5525000000002,5,2558.5665000000004,7,14,224,12,1,1.2,0.3,Time
,,421766,001,男,34,2025-06-04_14h00.24.351,Serial_Dependence_U,2023.2.3,Win32,60.24096385545337,,,,,,2558.566900000006,134,7,2558.5671000000093,134,,,,2562.723400000006,2563.2162999999973,2562.207100000009,2562.7231000000093,2559.568100000009,2562.206900000006,2563.216400000006,2563.7160000000003,2563.716100000009,2568.109700000003,3799,2568.1097999999974,5,2568.1227999999974,7,15,225,9,1,1.6,0.7,Time
,,421766,001,男,34,2025-06-04_14h00.24.351,Serial_Dependence_U,2023.2.3,Win32,60.24096385545337,,,,,,2568.1234000000063,179,7,2568.123600000009,179,,,,2571.690200000003,2572.183200000003,2571.173600000009,2571.6901000000094,2569.124100000009,2571.173400000006,2572.183200000003,2572.6830000000004,2572.6831000000093,2578.346799999997,5219,2578.347100000009,5,2578.3612999999973,7,16,226,16,1,1,0.7,Time
,,421766,001,男,34,2025-06-04_14h00.24.351,Serial_Dependence_U,2023.2.3,Win32,60.24096385545337,,,,,,2578.3625,100,7,2578.362900000006,100,,,,2582.5082999999972,2582.9995000000004,2582.0071000000094,2582.5080000000003,2579.3681000000092,2582.0067999999974,2582.9995000000004,2583.5065000000004,2583.5066000000093,2587.903299999997,3891,2587.903600000009,5,2587.9190000000003,7,17,227,19,1,1.6,0.7,Time
,,421766,001,男,34,2025-06-04_14h00.24.351,Serial_Dependence_U,2023.2.3,Win32,60.24096385545337,,,,,,2587.9196000000093,176,7,2587.919700000003,176,,,,2591.670600000009,2592.166100000009,2591.168900000006,2591.670299999997,2588.918900000006,2591.1687000000034,2592.1662000000033,2592.6662000000033,2592.666299999997,2598.102400000006,4461,2598.102700000003,5,2598.1160000000004,7,18,228,17,1,1.2,0.7,Time
,,421766,001,男,34,2025-06-04_14h00.24.351,Serial_Dependence_U,2023.2.3,Win32,60.24096385545337,,,,,,2598.1169000000064,295,7,2598.117299999997,295,,,,2602.3017999999975,2602.7990000000004,2601.785900000006,2602.3015,2599.1217000000033,2601.785700000003,2602.799200000003,2603.299799999997,2603.299799999997,2607.952,4417,2607.9522000000034,5,2607.9642999999974,7,19,229,24,1,1.6,0.3,Time
,,421766,001,男,34,2025-06-04_14h00.24.351,Serial_Dependence_U,2023.2.3,Win32,60.24096385545337,,,,,,2607.967799999997,53,7,2607.9682999999973,53,,,,2611.920299999997,2612.4162000000033,2611.419200000003,2611.9201000000094,2608.9695,2611.4190000000003,2612.4162000000033,2612.916299999997,2612.9164000000064,2618.343400000006,4849,2618.3436000000092,5,2618.3596000000093,7,20,230,28,1,1.4,0.7,Time
,,421766,001,男,34,2025-06-04_14h00.24.351,Serial_Dependence_U,2023.2.3,Win32,60.24096385545337,,,,,,2618.3610000000003,25,7,2618.3615000000004,25,,,,2621.752200000003,2622.2492000000034,2621.2355000000002,2621.7517999999973,2619.370100000009,2621.235299999997,2622.2492000000034,2622.749900000006,2622.7500000000005,2628.9057999999973,4337,2628.9060000000004,5,2628.926700000003,7,21,231,0,1,0.8,0.3,Time
,,421766,001,男,34,2025-06-04_14h00.24.351,Serial_Dependence_U,2023.2.3,Win32,60.24096385545337,,,,,,2628.9272000000033,273,7,2628.9275000000002,273,,,,2633.0925,2633.5827999999974,2632.584700000003,2633.092299999997,2629.9185,2632.5845000000004,2633.5829000000062,2634.0829000000062,2634.083,2637.4447999999975,3311,2637.445100000009,5,2637.4585,7,22,232,4,1,1.6,0.3,Time
,,421766,001,男,34,2025-06-04_14h00.24.351,Serial_Dependence_U,2023.2.3,Win32,60.24096385545337,,,,,,2637.458900000006,229,7,2637.459100000009,229,,,,2641.441299999997,2641.9334000000063,2640.9240000000004,2641.441100000009,2638.4575000000004,2640.9237999999973,2641.9334000000063,2642.432900000006,2642.4330000000004,2646.8527999999974,3955,2646.853,5,2646.865700000003,7,23,233,23,1,1.4,0.3,Time
,,421766,001,男,34,2025-06-04_14h00.24.351,Serial_Dependence_U,2023.2.3,Win32,60.24096385545337,,,,,,2646.8666000000094,229,7,2646.866799999997,229,,,,2650.2186000000092,2650.715900000006,2649.7022000000034,2650.218400000006,2647.8686000000093,2649.702,2650.715900000006,2651.216100000009,2651.216100000009,2655.4212000000034,3521,2655.4215000000004,5,2655.438799999997,7,24,234,5,1,0.8,0.7,Time
,,421766,001,男,34,2025-06-04_14h00.24.351,Serial_Dependence_U,2023.2.3,Win32,60.24096385545337,,,,,,2655.4392000000034,74,7,2655.4395000000004,74,,,,2659.0021000000092,2659.4989000000064,2658.4865000000004,2659.0017999999973,2656.437400000006,2658.486200000003,2659.4989000000064,2659.9990000000003,2659.9992000000034,2663.9030000000002,3400,2663.9032000000034,5,2663.914299999997,7,25,235,26,1,1,0.7,Time
,,421766,001,男,34,2025-06-04_14h00.24.351,Serial_Dependence_U,2023.2.3,Win32,60.24096385545337,,,,,,2663.9147000000034,226,7,2663.9176000000093,226,,,,2667.268600000009,2667.7657999999974,2666.7535000000003,2667.2682999999975,2664.918799999997,2666.753299999997,2667.7657999999974,2668.265700000003,2668.2659000000062,2671.918299999997,2868,2671.918600000009,5,2671.929600000009,7,26,236,15,1,0.8,0.7,Time
,,421766,001,男,34,2025-06-04_14h00.24.351,Serial_Dependence_U,2023.2.3,Win32,60.24096385545337,,,,,,2671.9302999999973,279,7,2671.930700000003,279,,,,2675.519400000006,2676.0161000000094,2675.001900000006,2675.519100000009,2672.9351000000092,2675.0017000000034,2676.016200000003,2676.517100000009,2676.5172999999972,2681.1380000000004,3699,2681.1382999999973,5,2681.1525,7,27,237,11,1,1,0.3,Time
,,421766,001,男,34,2025-06-04_14h00.24.351,Serial_Dependence_U,2023.2.3,Win32,60.24096385545337,,,,,,2681.153400000006,214,7,2681.153900000006,214,,,,2685.140100000009,2685.637100000009,2684.623799999997,2685.139799999997,2682.1530000000002,2684.6235,2685.6372000000033,2686.137100000009,2686.1372000000033,2690.5597999999973,3800,2690.5600000000004,5,2690.573400000006,7,28,238,3,1,1.4,0.3,Time
,,421766,001,男,34,2025-06-04_14h00.24.351,Serial_Dependence_U,2023.2.3,Win32,60.24096385545337,,,,,,2690.5739000000062,338,7,2690.574,338,,,,2694.5420000000004,2695.032299999997,2694.0234000000064,2694.5417000000034,2691.574,2694.0232000000033,2695.0324000000064,2695.5347000000033,2695.534799999997,2700.2259000000063,3683,2700.226,5,2700.237799999997,7,29,239,8,1,1.4,0.7,Time
,,421766,001,男,34,2025-06-04_14h00.24.351,Serial_Dependence_U,2023.2.3,Win32,60.24096385545337,,,,,,2700.2387999999974,89,8,2702.0992000000033,89,s,1.8334999999997308,,2706.2904000000062,2706.782600000009,2705.773100000009,2706.2901000000093,2703.101600000009,2705.7727999999975,2706.782600000009,2707.282799999997,2707.282799999997,2713.3694000000064,5184,2713.3697000000034,5,2713.3847000000032,8,0,240,24,1,1.6,0.3,Time
,,421766,001,男,34,2025-06-04_14h00.24.351,Serial_Dependence_U,2023.2.3,Win32,60.24096385545337,,,,,,2713.3852000000034,157,8,2713.387100000009,157,,,,2717.3737000000033,2717.8706000000093,2716.8574000000062,2717.3732999999975,2714.3845,2716.8571000000093,2717.8707999999974,2718.3666000000094,2718.366700000003,2723.4592000000034,4100,2723.4595000000004,5,2723.472,8,1,241,23,1,1.4,0.3,Time
,,421766,001,男,34,2025-06-04_14h00.24.351,Serial_Dependence_U,2023.2.3,Win32,60.24096385545337,,,,,,2723.472900000006,11,8,2723.4732999999974,11,,,,2727.0562999999975,2727.5537999999974,2726.540700000003,2727.056,2724.474100000009,2726.5405,2727.5537999999974,2728.0490000000004,2728.049200000003,2733.46,4865,2733.4602999999975,5,2733.4736000000094,8,2,242,11,1,1,0.3,Time
,,421766,001,男,34,2025-06-04_14h00.24.351,Serial_Dependence_U,2023.2.3,Win32,60.24096385545337,,,,,,2733.474100000009,167,8,2733.474600000009,167,,,,2737.2684000000063,2737.7659000000062,2736.751900000006,2737.268200000003,2734.474299999997,2736.7517999999973,2737.7659000000062,2738.265700000003,2738.2657999999974,2749.6622999999972,2653,2749.662700000003,5,2749.677,8,3,243,12,1,1.2,0.3,Time
,,421766,001,男,34,2025-06-04_14h00.24.351,Serial_Dependence_U,2023.2.3,Win32,60.24096385545337,,,,,,2749.6777000000034,187,8,2749.6780000000003,187,,,,2753.0074000000063,2753.4989000000064,2752.5062000000034,2753.0071000000094,2750.668100000009,2752.5060000000003,2753.4990000000003,2753.9989000000064,2753.9990000000003,2759.0262000000034,3800,2759.0265000000004,5,2759.040700000003,8,4,244,5,1,0.8,0.7,Time
,,421766,001,男,34,2025-06-04_14h00.24.351,Serial_Dependence_U,2023.2.3,Win32,60.24096385545337,,,,,,2759.041299999997,269,8,2759.0414000000064,269,,,,2763.206299999997,2763.6989000000062,2762.69,2763.206100000009,2760.0409000000063,2762.6897999999974,2763.699,2764.1991000000094,2764.199200000003,2769.4030000000002,4748,2769.4032000000034,5,2769.417700000003,8,5,245,29,1,1.6,0.7,Time
,,421766,001,男,34,2025-06-04_14h00.24.351,Serial_Dependence_U,2023.2.3,Win32,60.24096385545337,,,,,,2769.418299999997,321,8,2769.418600000009,321,,,,2773.4065,2773.899700000003,2772.890700000003,2773.4062999999974,2770.4177999999974,2772.8905000000004,2773.9010000000003,2774.4005,2774.4007000000033,2780.0924000000064,4716,2780.092600000009,5,2780.104600000009,8,6,246,13,1,1.4,0.3,Time
,,421766,001,男,34,2025-06-04_14h00.24.351,Serial_Dependence_U,2023.2.3,Win32,60.24096385545337,,,,,,2780.1051000000093,289,8,2780.105200000003,289,,,,2783.6560000000004,2784.149200000003,2783.151400000006,2783.6557999999973,2781.1107000000034,2783.1512999999973,2784.1492999999973,2784.6496000000093,2784.6496000000093,2789.4947000000034,4316,2789.4950000000003,5,2789.5082999999972,8,7,247,16,1,1,0.7,Time
,,421766,001,男,34,2025-06-04_14h00.24.351,Serial_Dependence_U,2023.2.3,Win32,60.24096385545337,,,,,,2789.5090000000005,49,8,2789.5092999999974,49,,,,2793.2687000000033,2793.7665,2792.751299999997,2793.2685,2790.5074000000063,2792.751,2793.766600000009,2794.2670000000003,2794.2670000000003,2798.5017999999973,3883,2798.5021000000092,5,2798.5172000000034,8,8,248,27,1,1.2,0.7,Time
,,421766,001,男,34,2025-06-04_14h00.24.351,Serial_Dependence_U,2023.2.3,Win32,60.24096385545337,,,,,,2798.518200000003,1,8,2798.518799999997,1,,,,2802.4736000000094,2802.970600000009,2801.9685000000004,2802.473400000006,2799.5185,2801.9682999999973,2802.970600000009,2803.467799999997,2803.467799999997,2808.3762000000033,4584,2808.376299999997,5,2808.389,8,9,249,8,1,1.4,0.7,Time
,,421766,001,男,34,2025-06-04_14h00.24.351,Serial_Dependence_U,2023.2.3,Win32,60.24096385545337,,,,,,2808.3895,243,8,2808.3897000000034,243,,,,2811.7729000000063,2812.2700000000004,2811.257200000003,2811.772700000003,2809.391,2811.2571000000094,2812.2700000000004,2812.7657999999974,2812.7659000000062,2817.059299999997,3966,2817.0595000000003,5,2817.073100000009,8,10,250,0,1,0.8,0.3,Time
,,421766,001,男,34,2025-06-04_14h00.24.351,Serial_Dependence_U,2023.2.3,Win32,60.24096385545337,,,,,,2817.0736000000093,218,8,2817.073700000003,218,,,,2820.4350000000004,2820.932299999997,2819.918,2820.4347999999973,2818.074,2819.9177999999974,2820.932400000006,2821.432900000006,2821.432900000006,2825.244100000009,3766,2825.244299999997,5,2825.259200000003,8,11,251,25,1,0.8,0.7,Time
,,421766,001,男,34,2025-06-04_14h00.24.351,Serial_Dependence_U,2023.2.3,Win32,60.24096385545337,,,,,,2825.2599000000064,27,8,2825.260299999997,27,,,,2829.2067000000034,2829.6989000000062,2828.6902999999975,2829.2064000000064,2826.251299999997,2828.6901000000094,2829.6989000000062,2830.1870000000004,2830.1870000000004,2834.2592999999974,3715,2834.2597000000032,5,2834.2726000000093,8,12,252,18,1,1.4,0.7,Time
,,421766,001,男,34,2025-06-04_14h00.24.351,Serial_Dependence_U,2023.2.3,Win32,60.24096385545337,,,,,,2834.2735000000002,104,8,2834.273900000006,104,,,,2838.4402999999975,2838.9325000000003,2837.923600000009,2838.4401000000094,2835.274700000003,2837.923400000006,2838.9325000000003,2839.4322000000034,2839.432400000006,2843.542700000003,3850,2843.543,5,2843.556600000009,8,13,253,19,1,1.6,0.7,Time
,,421766,001,男,34,2025-06-04_14h00.24.351,Serial_Dependence_U,2023.2.3,Win32,60.24096385545337,,,,,,2843.5570000000002,38,8,2843.5572000000034,38,,,,2846.9401000000094,2847.4322000000034,2846.422799999997,2846.939900000006,2844.5580000000004,2846.422600000009,2847.432299999997,2847.9322000000034,2847.932299999997,2852.0789000000063,3768,2852.0792000000033,5,2852.0921000000094,8,14,254,10,1,0.8,0.3,Time
,,421766,001,男,34,2025-06-04_14h00.24.351,Serial_Dependence_U,2023.2.3,Win32,60.24096385545337,,,,,,2852.0925,58,8,2852.0927000000033,58,,,,2855.473200000003,2855.970100000009,2854.9572999999973,2855.4730000000004,2853.0871000000093,2854.957100000009,2855.9702000000034,2856.4657000000034,2856.465900000006,2861.1704000000063,3941,2861.1707000000033,5,2861.185200000003,8,15,255,20,1,0.8,0.3,Time
