Scale_setup.started,Scale_setup.stopped,participant,session,sex,age,date,expName,psychopyVersion,OS,frameRate,Intro.started,Intro.stopped,key_resp_2.keys,key_resp_2.rt,key_resp_2.duration,block.started,direction,Block_id,block.stopped,trial_direction,Block_resp_2.keys,Block_resp_2.rt,Block_resp_2.duration,ITI.started,ITI.stopped,Mask_2.started,Mask_2.stopped,encoding.started,encoding.stopped,Cue.started,Cue.stopped,Response.started,Response.stopped,keyDuration,Feedback_Time.started,FeedbackID_T,Feedback_Time.stopped,trials.thisRepN,trials.thisTrialN,trials.thisN,trials.thisIndex,trials.ran,TimeDur,Coherence1,TrialType
0.00029999999888730144,0.00029999999888730144,457570,001,男,21,2025-06-03_15h14.14.988,Serial_Dependence_U,2023.2.3,Win32,59.88023952094243,,,,,,,,,,,,,,,,,,,,,,,,,,,,,,,,,,,
,,457570,001,男,21,2025-06-03_15h14.14.988,Serial_Dependence_U,2023.2.3,Win32,59.88023952094243,2.743900000000373,85.447,space,82.66670000000113,,,,,,,,,,,,,,,,,,,,,,,,,,,,,,,
,,457570,001,男,21,2025-06-03_15h14.14.988,Serial_Dependence_U,2023.2.3,Win32,59.88023952094243,,,,,,85.45190000000039,308,0,95.81169999999926,308,s,10.335000000000008,,99.99469999999928,100.4942999999989,99.48019999999929,99.99469999999928,96.81400000000002,99.48019999999929,100.4942999999989,100.99419999999927,100.99419999999927,104.01340000000039,2380,104.01340000000039,5,105.01009999999965,0,0,0,24,1,1.6,0.3,Time
,,457570,001,男,21,2025-06-03_15h14.14.988,Serial_Dependence_U,2023.2.3,Win32,59.88023952094243,,,,,,105.01050000000001,80,0,105.01200000000003,80,,,,108.97640000000038,109.47609999999963,108.46019999999928,108.97640000000038,106.02709999999965,108.46009999999964,109.47619999999927,109.97650000000002,109.97650000000002,111.62579999999889,1028,111.62579999999889,2,112.62550000000002,0,1,1,8,1,1.4,0.7,Time
,,457570,001,男,21,2025-06-03_15h14.14.988,Serial_Dependence_U,2023.2.3,Win32,59.88023952094243,,,,,,112.62579999999889,241,0,112.6259000000004,241,,,,116.82529999999889,117.32490000000038,116.30850000000001,116.82519999999928,113.6422999999989,116.30850000000001,117.32500000000002,117.82469999999927,117.8247999999989,120.12459999999965,1847,120.12459999999965,4,121.12419999999926,0,2,2,4,1,1.6,0.3,Time
,,457570,001,男,21,2025-06-03_15h14.14.988,Serial_Dependence_U,2023.2.3,Win32,59.88023952094243,,,,,,121.12450000000001,311,0,121.12459999999965,311,,,,125.09059999999965,125.59009999999964,124.57409999999965,125.09040000000039,122.14109999999965,124.57409999999965,125.59009999999964,126.09009999999964,126.09009999999964,128.1397999999989,1596,128.1397999999989,4,129.13950000000003,0,3,3,28,1,1.4,0.7,Time
,,457570,001,男,21,2025-06-03_15h14.14.988,Serial_Dependence_U,2023.2.3,Win32,59.88023952094243,,,,,,129.13969999999927,304,0,129.13990000000038,304,,,,132.9399000000004,133.4387999999989,132.42509999999965,132.93969999999928,130.1564000000004,132.425,133.4387999999989,133.9389000000004,133.9389000000004,136.1419000000004,1817,136.1419000000004,5,137.1412999999989,0,4,4,12,1,1.2,0.3,Time
,,457570,001,男,21,2025-06-03_15h14.14.988,Serial_Dependence_U,2023.2.3,Win32,59.88023952094243,,,,,,137.14159999999964,327,0,137.14169999999928,327,,,,140.53819999999928,141.03769999999926,140.0225,140.53809999999964,138.15719999999928,140.0222999999989,141.03769999999926,141.53750000000002,141.53750000000002,142.94019999999927,1054,142.9402999999989,5,143.93869999999927,0,5,5,10,1,0.8,0.3,Time
,,457570,001,男,21,2025-06-03_15h14.14.988,Serial_Dependence_U,2023.2.3,Win32,59.88023952094243,,,,,,143.93909999999966,208,0,143.93919999999926,208,,,,147.7039000000004,148.20309999999964,147.18719999999928,147.7037999999989,144.95409999999964,147.18709999999965,148.20319999999927,148.70300000000003,148.70309999999964,150.05559999999966,950,150.05569999999926,2,151.05269999999928,0,6,6,17,1,1.2,0.7,Time
,,457570,001,男,21,2025-06-03_15h14.14.988,Serial_Dependence_U,2023.2.3,Win32,59.88023952094243,,,,,,151.05300000000003,112,0,151.05309999999963,112,,,,154.4192999999989,154.91869999999926,153.90269999999927,154.41909999999964,152.0694000000004,153.9025,154.91869999999926,155.4204000000004,155.4204000000004,156.67109999999965,947,156.67109999999965,4,157.66819999999927,0,7,7,15,1,0.8,0.7,Time
,,457570,001,男,21,2025-06-03_15h14.14.988,Serial_Dependence_U,2023.2.3,Win32,59.88023952094243,,,,,,157.66850000000002,333,0,157.66869999999926,333,,,,161.43469999999928,161.93419999999927,160.9202999999989,161.4345,158.68519999999927,160.9202999999989,161.93419999999927,162.43419999999927,162.43419999999927,163.82000000000002,877,163.82000000000002,2,164.81719999999927,0,8,8,27,1,1.2,0.7,Time
,,457570,001,男,21,2025-06-03_15h14.14.988,Serial_Dependence_U,2023.2.3,Win32,59.88023952094243,,,,,,164.81769999999926,102,0,164.8177999999989,102,,,,168.21690000000038,168.71650000000002,167.70240000000038,168.2167999999989,165.8339000000004,167.70219999999927,168.71650000000002,169.21659999999966,169.21659999999966,170.73550000000003,1016,170.73559999999964,4,171.73269999999928,0,9,9,0,1,0.8,0.3,Time
,,457570,001,男,21,2025-06-03_15h14.14.988,Serial_Dependence_U,2023.2.3,Win32,59.88023952094243,,,,,,171.733,107,0,171.73309999999964,107,,,,175.73250000000002,176.23419999999928,175.2174000000004,175.73250000000002,172.74969999999928,175.2174000000004,176.23419999999928,176.73219999999927,176.7322999999989,177.9484000000004,812,177.94850000000002,1,178.94819999999928,0,10,10,23,1,1.4,0.3,Time
,,457570,001,男,21,2025-06-03_15h14.14.988,Serial_Dependence_U,2023.2.3,Win32,59.88023952094243,,,,,,178.94850000000002,168,0,178.94859999999966,168,,,,182.51459999999963,183.01419999999928,181.99790000000039,182.51450000000003,179.9667999999989,181.9977999999989,183.01419999999928,183.514,183.514,185.1829000000004,1283,185.1829000000004,4,186.18019999999927,0,11,11,26,1,1,0.7,Time
,,457570,001,男,21,2025-06-03_15h14.14.988,Serial_Dependence_U,2023.2.3,Win32,59.88023952094243,,,,,,186.18059999999966,116,0,186.18069999999926,116,,,,189.9632999999989,190.46309999999966,189.44909999999965,189.96319999999926,187.18269999999927,189.44890000000038,190.46309999999966,190.9629000000004,190.9629000000004,206.82740000000038,778,206.82750000000001,1,207.8267999999989,0,12,12,2,1,1.2,0.3,Time
,,457570,001,男,21,2025-06-03_15h14.14.988,Serial_Dependence_U,2023.2.3,Win32,59.88023952094243,,,,,,207.82709999999963,269,0,207.82719999999927,269,,,,211.97909999999965,212.47600000000003,211.47669999999928,211.97890000000038,208.84609999999964,211.47659999999965,212.47609999999963,212.97600000000003,212.97600000000003,214.6114000000004,1096,214.6114000000004,1,215.6089000000004,0,13,13,29,1,1.6,0.7,Time
,,457570,001,男,21,2025-06-03_15h14.14.988,Serial_Dependence_U,2023.2.3,Win32,59.88023952094243,,,,,,215.60929999999888,356,0,215.6094000000004,356,,,,219.2097999999989,219.7081999999993,218.69440000000037,219.2092999999989,216.62559999999962,218.69429999999892,219.70829999999887,220.20809999999966,220.2081999999993,221.71059999999966,957,221.71059999999966,3,222.70759999999967,0,14,14,21,1,1,0.3,Time
,,457570,001,男,21,2025-06-03_15h14.14.988,Serial_Dependence_U,2023.2.3,Win32,59.88023952094243,,,,,,222.7079000000004,154,0,222.70809999999966,154,,,,226.69319999999925,227.1904000000004,226.1907999999989,226.69309999999962,223.72459999999967,226.19069999999925,227.1904000000004,227.6907999999989,227.6907999999989,229.84009999999967,1142,229.8401999999993,2,230.8397999999989,0,15,15,13,1,1.4,0.3,Time
,,457570,001,男,21,2025-06-03_15h14.14.988,Serial_Dependence_U,2023.2.3,Win32,59.88023952094243,,,,,,230.84000000000003,95,0,230.84009999999967,95,,,,235.0059000000004,235.50569999999925,234.49450000000002,235.0059000000004,231.85669999999925,234.49440000000038,235.50569999999925,236.00550000000004,236.00550000000004,237.8582999999989,1411,237.85840000000042,2,238.8571999999993,0,16,16,19,1,1.6,0.7,Time
,,457570,001,男,21,2025-06-03_15h14.14.988,Serial_Dependence_U,2023.2.3,Win32,59.88023952094243,,,,,,238.85750000000002,137,0,238.85750000000002,137,,,,242.6569000000004,243.1544000000004,242.14109999999965,242.6567999999989,239.87459999999965,242.14100000000002,243.1544000000004,243.6542999999989,243.6544000000004,246.10679999999888,1158,246.10679999999888,3,247.10369999999926,0,17,17,22,1,1.2,0.3,Time
,,457570,001,男,21,2025-06-03_15h14.14.988,Serial_Dependence_U,2023.2.3,Win32,59.88023952094243,,,,,,247.10400000000004,120,0,247.10409999999962,120,,,,250.65329999999892,251.15859999999964,250.13879999999892,250.65329999999892,248.10619999999926,250.1386999999993,251.15869999999927,251.65300000000002,251.65309999999965,253.2056999999993,1094,253.20579999999887,4,254.20629999999892,0,18,18,6,1,1,0.7,Time
,,457570,001,男,21,2025-06-03_15h14.14.988,Serial_Dependence_U,2023.2.3,Win32,59.88023952094243,,,,,,254.2065,46,0,254.20659999999964,46,,,,258.45219999999927,258.9539000000004,257.9454000000004,258.452,255.2215,257.9452999999989,258.9539000000004,259.45500000000004,259.45500000000004,260.9542999999989,1000,260.95440000000036,1,261.9515,0,19,19,14,1,1.6,0.3,Time
,,457570,001,男,21,2025-06-03_15h14.14.988,Serial_Dependence_U,2023.2.3,Win32,59.88023952094243,,,,,,261.95190000000036,76,0,261.952,76,,,,265.3177999999989,265.8172999999989,264.8057999999989,265.3177999999989,262.9681999999993,264.80559999999963,265.8172999999989,266.3172999999989,266.3172999999989,267.8200999999996,1125,267.8200999999996,5,268.81959999999964,0,20,20,25,1,0.8,0.7,Time
,,457570,001,男,21,2025-06-03_15h14.14.988,Serial_Dependence_U,2023.2.3,Win32,59.88023952094243,,,,,,268.82,239,0,268.82019999999926,239,,,,272.4165999999996,272.91619999999926,271.9002999999989,272.4165999999996,269.83390000000037,271.90009999999967,272.91619999999926,273.41619999999926,273.41619999999926,275.13269999999926,1301,275.1327999999989,5,276.1322999999989,0,21,21,11,1,1,0.3,Time
,,457570,001,男,21,2025-06-03_15h14.14.988,Serial_Dependence_U,2023.2.3,Win32,59.88023952094243,,,,,,276.13269999999926,56,0,276.1327999999989,56,,,,279.50109999999967,279.9984000000004,278.999,279.50100000000003,277.1349000000004,278.9989000000004,279.9984000000004,280.4982999999989,280.49850000000004,281.7654000000004,964,281.7654000000004,4,282.7665,0,22,22,20,1,0.8,0.3,Time
,,457570,001,男,21,2025-06-03_15h14.14.988,Serial_Dependence_U,2023.2.3,Win32,59.88023952094243,,,,,,282.76690000000036,262,0,282.76709999999963,262,,,,286.13100000000003,286.632,285.617,286.13100000000003,283.78169999999926,285.6169000000004,286.632,287.13050000000004,287.13050000000004,288.6829000000004,1166,288.6829000000004,5,289.68009999999964,0,23,23,5,1,0.8,0.7,Time
,,457570,001,男,21,2025-06-03_15h14.14.988,Serial_Dependence_U,2023.2.3,Win32,59.88023952094243,,,,,,289.6805,51,0,289.68059999999963,51,,,,293.6321999999993,294.1294000000004,293.11309999999963,293.6321999999993,290.68240000000037,293.11309999999963,294.1294000000004,294.6292999999989,294.6292999999989,295.9291999999993,1041,295.9292999999989,2,296.92909999999966,0,24,24,18,1,1.4,0.7,Time
,,457570,001,男,21,2025-06-03_15h14.14.988,Serial_Dependence_U,2023.2.3,Win32,59.88023952094243,,,,,,296.9295,170,0,296.9296999999993,170,,,,300.92869999999925,301.42819999999926,300.41419999999925,300.9285999999996,297.9459000000004,300.41419999999925,301.4282999999989,301.9282999999989,301.9282999999989,303.3115,976,303.31159999999966,1,304.3115,0,25,25,3,1,1.4,0.3,Time
,,457570,001,男,21,2025-06-03_15h14.14.988,Serial_Dependence_U,2023.2.3,Win32,59.88023952094243,,,,,,304.3119000000004,87,0,304.3122999999989,87,,,,308.07750000000004,308.5774000000004,307.56100000000004,308.0774000000004,305.3279000000004,307.5609000000004,308.5774000000004,309.077,309.077,313.1265,3180,313.1266999999993,5,314.12609999999967,0,26,26,7,1,1.2,0.7,Time
,,457570,001,男,21,2025-06-03_15h14.14.988,Serial_Dependence_U,2023.2.3,Win32,59.88023952094243,,,,,,314.1265,199,0,314.12659999999966,199,,,,318.278,318.7761999999993,317.7759000000004,318.2779000000004,315.1427999999989,317.7757999999989,318.7761999999993,319.2755,319.2755,320.5945999999997,1057,320.59469999999925,1,321.59169999999926,0,27,27,9,1,1.6,0.7,Time
,,457570,001,男,21,2025-06-03_15h14.14.988,Serial_Dependence_U,2023.2.3,Win32,59.88023952094243,,,,,,321.5920999999996,257,0,321.59219999999925,257,,,,325.1266999999993,325.6245,324.6247999999989,325.1265,322.5920999999996,324.62459999999965,325.6245,326.1526999999993,326.1526999999993,327.34419999999926,16,327.3442999999989,1,328.3407999999989,0,28,28,16,1,1,0.7,Time
,,457570,001,男,21,2025-06-03_15h14.14.988,Serial_Dependence_U,2023.2.3,Win32,59.88023952094243,,,,,,328.34109999999964,23,0,328.3412999999989,23,,,,331.9094000000004,332.40869999999927,331.4072999999989,331.9092999999989,329.3427999999989,331.4070999999997,332.40869999999927,332.9064000000004,332.9065,334.0564000000004,817,334.0565,2,335.0560999999996,0,29,29,1,1,1,0.3,Time
,,457570,001,男,21,2025-06-03_15h14.14.988,Serial_Dependence_U,2023.2.3,Win32,59.88023952094243,,,,,,335.0565,18,1,337.1391999999993,18,s,2.050700000001143,,341.3386999999993,341.8384000000004,340.8224000000004,341.33859999999964,338.1559000000004,340.8222999999989,341.8384000000004,342.3381999999993,342.3381999999993,343.391,734,343.391,1,343.3911999999993,1,0,30,14,1,1.6,0.3,Time
,,457570,001,男,21,2025-06-03_15h14.14.988,Serial_Dependence_U,2023.2.3,Win32,59.88023952094243,,,,,,343.3915,160,1,343.3925999999996,160,,,,346.79009999999965,347.2874000000004,346.27159999999964,346.79,344.40719999999925,346.2715,347.2874000000004,347.7876999999993,347.7876999999993,349.0234000000004,849,349.0235,4,349.0237999999989,1,1,31,10,1,0.8,0.3,Time
,,457570,001,男,21,2025-06-03_15h14.14.988,Serial_Dependence_U,2023.2.3,Win32,59.88023952094243,,,,,,349.024,190,1,349.02419999999927,190,,,,352.78719999999925,353.2864000000004,352.27250000000004,352.78709999999967,350.03919999999925,352.2724000000004,353.2865,353.7732999999989,353.7734000000004,354.96969999999925,888,354.9697999999989,2,354.97009999999966,1,2,32,17,1,1.2,0.7,Time
,,457570,001,男,21,2025-06-03_15h14.14.988,Serial_Dependence_U,2023.2.3,Win32,59.88023952094243,,,,,,354.9702999999989,328,1,354.9705,328,,,,358.93600000000004,359.4355999999996,358.4196999999993,358.9359000000004,355.98659999999967,358.4195,359.43569999999926,359.9354000000004,359.9355,361.1019000000004,858,361.1019000000004,1,361.1021999999993,1,3,33,18,1,1.4,0.7,Time
,,457570,001,男,21,2025-06-03_15h14.14.988,Serial_Dependence_U,2023.2.3,Win32,59.88023952094243,,,,,,361.1024000000004,253,1,361.1025,253,,,,364.70159999999964,365.2011999999993,364.18509999999964,364.7015,362.1187999999989,364.18490000000037,365.2011999999993,365.70109999999966,365.7011999999993,367.10109999999963,983,367.10119999999927,3,367.10150000000004,1,4,34,11,1,1,0.3,Time
,,457570,001,男,21,2025-06-03_15h14.14.988,Serial_Dependence_U,2023.2.3,Win32,59.88023952094243,,,,,,367.1017999999989,20,1,367.10200000000003,20,,,,370.6507999999989,371.1502999999989,370.1342999999989,370.6506999999993,368.10119999999927,370.1342999999989,371.1502999999989,371.6502999999989,371.6502999999989,373.017,953,373.01709999999963,3,373.0172999999989,1,5,35,16,1,1,0.7,Time
,,457570,001,男,21,2025-06-03_15h14.14.988,Serial_Dependence_U,2023.2.3,Win32,59.88023952094243,,,,,,373.0175999999996,250,1,373.0179000000004,250,,,,377.0164000000004,377.5157999999989,376.4997999999989,377.0162999999989,374.03359999999964,376.4996999999993,377.5159000000004,378.0157999999989,378.0157999999989,379.89890000000037,1061,379.899,2,379.89919999999927,1,6,36,13,1,1.4,0.3,Time
,,457570,001,男,21,2025-06-03_15h14.14.988,Serial_Dependence_U,2023.2.3,Win32,59.88023952094243,,,,,,379.8994000000004,3,1,379.8995,3,,,,383.4654000000004,383.9649000000004,382.9486999999993,383.4652999999989,380.91559999999964,382.94859999999966,383.9649000000004,384.46469999999925,384.46469999999925,388.3309000000004,893,388.3309000000004,2,388.3311999999993,1,7,37,26,1,1,0.7,Time
,,457570,001,男,21,2025-06-03_15h14.14.988,Serial_Dependence_U,2023.2.3,Win32,59.88023952094243,,,,,,388.3314000000004,351,1,388.3315,351,,,,391.6974000000004,392.19719999999927,391.1810999999996,391.6972999999989,389.3476999999993,391.18100000000004,392.19719999999927,392.6966999999993,392.6967999999989,406.3949000000004,939,406.3949000000004,4,406.3952999999989,1,8,38,15,1,0.8,0.7,Time
,,457570,001,男,21,2025-06-03_15h14.14.988,Serial_Dependence_U,2023.2.3,Win32,59.88023952094243,,,,,,406.3956999999993,311,1,406.3959000000004,311,,,,410.3610999999996,410.86059999999964,409.8444000000004,410.361,407.41259999999966,409.8442999999989,410.86069999999927,411.36059999999964,411.36059999999964,413.077,1125,413.07709999999963,2,413.0772999999989,1,9,39,28,1,1.4,0.7,Time
,,457570,001,男,21,2025-06-03_15h14.14.988,Serial_Dependence_U,2023.2.3,Win32,59.88023952094243,,,,,,413.07750000000004,196,1,413.0777999999989,196,,,,416.82750000000004,417.3262999999989,416.32690000000036,416.8274000000004,414.09359999999964,416.3267999999989,417.3264000000004,417.8261999999993,417.8261999999993,419.95919999999927,1134,419.95919999999927,2,419.9595,1,10,40,27,1,1.2,0.7,Time
,,457570,001,男,21,2025-06-03_15h14.14.988,Serial_Dependence_U,2023.2.3,Win32,59.88023952094243,,,,,,419.95969999999926,121,1,419.9599000000004,121,,,,423.95890000000037,424.4584000000004,423.44209999999964,423.95890000000037,420.976,423.442,424.4584000000004,424.95829999999887,424.95829999999887,426.5080999999997,811,426.5080999999997,1,426.5082999999989,1,11,41,3,1,1.4,0.3,Time
,,457570,001,男,21,2025-06-03_15h14.14.988,Serial_Dependence_U,2023.2.3,Win32,59.88023952094243,,,,,,426.50859999999966,13,1,426.5086999999993,13,,,,430.5079000000004,431.0071999999993,429.9926999999993,430.5079000000004,427.5249000000004,429.99259999999964,431.0072999999989,431.5072999999989,431.5072999999989,432.7905,950,432.79059999999964,1,432.79090000000036,1,12,42,23,1,1.4,0.3,Time
,,457570,001,男,21,2025-06-03_15h14.14.988,Serial_Dependence_U,2023.2.3,Win32,59.88023952094243,,,,,,432.79119999999926,185,1,432.7914000000004,185,,,,436.5732999999989,437.0729000000004,436.05740000000037,436.5732999999989,433.7906999999993,436.0572999999989,437.07300000000004,437.57300000000004,437.57300000000004,439.0727999999989,1006,439.0729000000004,2,439.07309999999967,1,13,43,22,1,1.2,0.3,Time
,,457570,001,男,21,2025-06-03_15h14.14.988,Serial_Dependence_U,2023.2.3,Win32,59.88023952094243,,,,,,439.0735,261,1,439.0736999999993,261,,,,443.2724000000004,443.77219999999926,442.75569999999925,443.2724000000004,440.0894000000004,442.75569999999925,443.77219999999926,444.2720999999996,444.2720999999996,445.8884000000004,1193,445.8885,2,445.8889000000004,1,14,44,24,1,1.6,0.3,Time
,,457570,001,男,21,2025-06-03_15h14.14.988,Serial_Dependence_U,2023.2.3,Win32,59.88023952094243,,,,,,445.88909999999964,314,1,445.8891999999993,314,,,,450.0385,450.5376999999993,449.5379000000004,450.0385,446.9057999999989,449.5379000000004,450.5376999999993,451.03719999999925,451.0374000000004,452.3372999999989,851,452.3372999999989,1,452.33759999999967,1,15,45,29,1,1.6,0.7,Time
,,457570,001,男,21,2025-06-03_15h14.14.988,Serial_Dependence_U,2023.2.3,Win32,59.88023952094243,,,,,,452.338,285,1,452.3381999999993,285,,,,455.7369000000004,456.23659999999967,455.2231999999993,455.7369000000004,453.3537999999989,455.2231999999993,456.23669999999925,456.7382999999989,456.7382999999989,457.95359999999965,785,457.9536999999993,3,457.9539000000004,1,16,46,0,1,0.8,0.3,Time
,,457570,001,男,21,2025-06-03_15h14.14.988,Serial_Dependence_U,2023.2.3,Win32,59.88023952094243,,,,,,457.95409999999964,267,1,457.9542999999989,267,,,,461.5191999999993,462.019,461.0030999999996,461.5191999999993,458.9697999999989,461.00300000000004,462.019,462.5189000000004,462.5189000000004,463.7522999999989,909,463.7522999999989,2,463.75259999999963,1,17,47,6,1,1,0.7,Time
,,457570,001,男,21,2025-06-03_15h14.14.988,Serial_Dependence_U,2023.2.3,Win32,59.88023952094243,,,,,,463.75300000000004,349,1,463.7532999999989,349,,,,467.1517999999989,467.6512999999989,466.63519999999926,467.15169999999927,464.7687999999989,466.6350999999996,467.6512999999989,468.1512999999989,468.1512999999989,469.48459999999966,926,469.4846999999993,4,469.4849000000004,1,18,48,20,1,0.8,0.3,Time
,,457570,001,男,21,2025-06-03_15h14.14.988,Serial_Dependence_U,2023.2.3,Win32,59.88023952094243,,,,,,469.4851999999993,5,1,469.48540000000037,5,,,,473.08419999999927,473.58409999999964,472.56769999999926,473.08419999999927,470.50100000000003,472.5675,473.58409999999964,474.0852999999989,474.08540000000033,475.43359999999956,1005,475.43359999999956,3,475.4337999999988,1,19,49,1,1,1,0.3,Time
,,457570,001,男,21,2025-06-03_15h14.14.988,Serial_Dependence_U,2023.2.3,Win32,59.88023952094243,,,,,,475.4339999999999,114,1,475.4341999999992,114,,,,479.0165,479.5164000000004,478.49979999999886,479.0164000000004,476.43459999999953,478.49979999999886,479.5164000000004,480.0159000000004,480.0159999999999,481.18249999999995,752,481.1825999999996,2,481.18279999999885,1,20,50,21,1,1,0.3,Time
,,457570,001,男,21,2025-06-03_15h14.14.988,Serial_Dependence_U,2023.2.3,Win32,59.88023952094243,,,,,,481.18299999999994,303,1,481.18329999999884,303,,,,484.9329000000003,485.43249999999995,484.4155,484.93279999999885,482.1829000000003,484.4155,485.4325999999996,485.93279999999885,485.93279999999885,487.31569999999925,1025,487.3157999999989,2,487.316,1,21,51,7,1,1.2,0.7,Time
,,457570,001,男,21,2025-06-03_15h14.14.988,Serial_Dependence_U,2023.2.3,Win32,59.88023952094243,,,,,,487.31619999999924,48,1,487.3164000000003,48,,,,491.281,491.78169999999926,490.76449999999994,491.281,488.33149999999995,490.7644000000003,491.7817999999989,492.2806999999992,492.2806999999992,493.5475999999996,915,493.5475999999996,1,493.54799999999994,1,22,52,8,1,1.4,0.7,Time
,,457570,001,男,21,2025-06-03_15h14.14.988,Serial_Dependence_U,2023.2.3,Win32,59.88023952094243,,,,,,493.5481999999992,60,1,493.54849999999993,60,,,,496.9146999999992,497.41399999999993,496.397,496.9146999999992,494.5645,496.397,497.4141999999992,497.9130999999996,497.9131999999992,499.2462999999988,903,499.2462999999988,4,499.2464999999999,1,23,53,5,1,0.8,0.7,Time
,,457570,001,男,21,2025-06-03_15h14.14.988,Serial_Dependence_U,2023.2.3,Win32,59.88023952094243,,,,,,499.2466999999992,94,1,499.2469000000004,94,,,,502.61269999999917,503.1121999999992,502.0960999999996,502.61259999999953,500.263,502.09599999999995,503.1122999999988,503.6121999999992,503.6122999999988,504.9130999999996,871,504.9131999999992,4,504.91329999999886,1,24,54,25,1,0.8,0.7,Time
,,457570,001,男,21,2025-06-03_15h14.14.988,Serial_Dependence_U,2023.2.3,Win32,59.88023952094243,,,,,,504.91349999999994,254,1,504.91379999999884,254,,,,508.7129999999999,509.21129999999886,508.1955,508.7129999999999,505.92959999999954,508.19540000000035,509.21129999999886,509.7116999999992,509.71179999999885,511.2276999999992,845,511.2277999999988,2,511.228,1,25,55,12,1,1.2,0.3,Time
,,457570,001,男,21,2025-06-03_15h14.14.988,Serial_Dependence_U,2023.2.3,Win32,59.88023952094243,,,,,,511.2282999999988,228,1,511.2285,228,,,,515.4271999999992,515.9269000000003,514.9109000000003,515.4270999999995,512.2442999999988,514.9107999999987,515.9269000000003,516.4269000000003,516.4269000000003,517.3265999999995,782,517.3266999999992,1,517.3269000000003,1,26,56,4,1,1.6,0.3,Time
,,457570,001,男,21,2025-06-03_15h14.14.988,Serial_Dependence_U,2023.2.3,Win32,59.88023952094243,,,,,,517.3271999999992,315,1,517.3272999999988,315,,,,521.1264999999999,521.6257999999988,520.6097999999988,521.1264999999999,518.3435999999996,520.6096999999992,521.6259000000002,522.1259000000002,522.1259000000002,523.2757999999988,802,523.2759000000003,1,523.276,1,27,57,2,1,1.2,0.3,Time
,,457570,001,男,21,2025-06-03_15h14.14.988,Serial_Dependence_U,2023.2.3,Win32,59.88023952094243,,,,,,523.2764000000003,164,1,523.2765999999996,164,,,,527.4420999999995,527.9414999999999,526.9252999999987,527.4419999999999,524.2924999999999,526.9251999999991,527.9414999999999,528.4415999999995,528.4415999999995,529.6921999999992,818,529.6921999999992,1,529.6925999999995,1,28,58,9,1,1.6,0.7,Time
,,457570,001,男,21,2025-06-03_15h14.14.988,Serial_Dependence_U,2023.2.3,Win32,59.88023952094243,,,,,,529.6927999999988,310,1,529.6930999999995,310,,,,533.8575999999995,534.3584999999999,533.3424000000002,533.8575,530.7081999999991,533.3424000000002,534.3584999999999,534.8572999999988,534.8572999999988,536.2569000000003,970,536.2569000000003,1,536.2570999999996,1,29,59,19,1,1.6,0.7,Time
,,457570,001,男,21,2025-06-03_15h14.14.988,Serial_Dependence_U,2023.2.3,Win32,59.88023952094243,,,,,,536.2572999999987,354,2,537.6900999999996,354,s,1.4107999999989715,,541.6419999999999,542.1405999999995,541.1400999999995,541.6419000000003,538.7066999999992,541.1399999999999,542.1405999999995,542.6391999999992,542.6392999999988,543.7059000000003,767,543.7059999999999,1,543.7060999999995,2,0,60,8,1,1.4,0.7,Time
,,457570,001,男,21,2025-06-03_15h14.14.988,Serial_Dependence_U,2023.2.3,Win32,59.88023952094243,,,,,,543.7062999999988,283,2,543.7075999999995,283,,,,547.8730999999996,548.3716999999991,547.3559999999999,547.8729999999999,544.7224000000002,547.3559000000002,548.3716999999991,548.8714999999999,548.8714999999999,549.9881999999992,716,549.9882999999987,1,549.9884999999999,2,1,61,19,1,1.6,0.7,Time
,,457570,001,男,21,2025-06-03_15h14.14.988,Serial_Dependence_U,2023.2.3,Win32,59.88023952094243,,,,,,549.9887999999988,352,2,549.9889999999999,352,,,,553.7876999999992,554.2874000000003,553.2711999999991,553.7875999999995,551.0047999999988,553.2710999999995,554.2874000000003,554.7872999999988,554.7872999999988,555.8730999999996,661,555.8731999999992,1,555.8732999999988,2,2,62,12,1,1.2,0.3,Time
,,457570,001,男,21,2025-06-03_15h14.14.988,Serial_Dependence_U,2023.2.3,Win32,59.88023952094243,,,,,,555.8735999999996,134,2,555.8737999999988,134,,,,559.2200999999995,559.7196999999992,558.7034000000003,559.2200999999995,556.8726999999992,558.7034000000003,559.7196999999992,560.2195999999996,560.2196999999992,561.3530999999996,763,561.3530999999996,3,561.3534000000003,2,3,63,5,1,0.8,0.7,Time
,,457570,001,男,21,2025-06-03_15h14.14.988,Serial_Dependence_U,2023.2.3,Win32,59.88023952094243,,,,,,561.3536999999992,23,2,561.3539000000003,23,,,,565.1024000000003,565.6020999999995,564.5857999999988,565.1022999999988,562.3537999999988,564.5856999999992,565.6020999999995,566.1021999999991,566.1021999999991,567.1689999999999,780,567.1689999999999,1,567.1691999999991,2,4,64,27,1,1.2,0.7,Time
,,457570,001,男,21,2025-06-03_15h14.14.988,Serial_Dependence_U,2023.2.3,Win32,59.88023952094243,,,,,,567.1694999999999,61,2,567.1696999999991,61,,,,571.1680999999995,571.6677999999988,570.6514999999999,571.1679999999999,568.1859000000003,570.6514999999999,571.6677999999988,572.1676999999992,572.1677999999988,573.4844000000003,672,573.4844000000003,1,573.4846999999992,2,5,65,13,1,1.4,0.3,Time
,,457570,001,男,21,2025-06-03_15h14.14.988,Serial_Dependence_U,2023.2.3,Win32,59.88023952094243,,,,,,573.4849999999999,122,2,573.4851999999992,122,,,,577.4839000000003,577.9842999999988,576.9674000000002,577.4837999999988,574.5010999999995,576.9674000000002,577.9842999999988,578.4834000000003,578.4834000000003,579.6499999999999,676,579.6499999999999,1,579.6502999999988,2,6,66,3,1,1.4,0.3,Time
,,457570,001,男,21,2025-06-03_15h14.14.988,Serial_Dependence_U,2023.2.3,Win32,59.88023952094243,,,,,,579.6504999999999,48,2,579.6506999999991,48,,,,583.0355999999995,583.5325999999995,582.5329999999999,583.0355,580.6664000000003,582.5329000000003,583.5325999999995,584.0324999999999,584.0324999999999,584.9827999999987,602,584.9829000000003,2,584.9830999999996,2,7,67,20,1,0.8,0.3,Time
,,457570,001,男,21,2025-06-03_15h14.14.988,Serial_Dependence_U,2023.2.3,Win32,59.88023952094243,,,,,,584.9834000000003,303,2,584.9835999999996,303,,,,588.9336999999991,589.4337999999988,588.4324000000003,588.9335999999995,586.0000999999995,588.4322999999988,589.4337999999988,589.9316999999992,589.9316999999992,590.8815999999995,661,590.8815999999995,1,590.8817999999987,2,8,68,28,1,1.4,0.7,Time
,,457570,001,男,21,2025-06-03_15h14.14.988,Serial_Dependence_U,2023.2.3,Win32,59.88023952094243,,,,,,590.8820999999996,119,2,590.8822999999987,119,,,,594.4809999999999,594.9804999999999,593.9652999999988,594.4807999999988,591.8980999999995,593.9651999999992,594.9804999999999,595.4804000000003,595.4804000000003,596.8311999999992,592,596.8311999999992,1,596.8314999999999,2,9,69,11,1,1,0.3,Time
,,457570,001,男,21,2025-06-03_15h14.14.988,Serial_Dependence_U,2023.2.3,Win32,59.88023952094243,,,,,,596.8317999999988,328,2,596.8322999999988,328,,,,600.2132999999988,600.7129999999999,599.6966999999992,600.2131999999991,597.8319999999999,599.6966999999992,600.7129999999999,601.2129000000003,601.2129000000003,602.2304999999999,630,602.2304999999999,2,602.2306999999992,2,10,70,0,1,0.8,0.3,Time
,,457570,001,男,21,2025-06-03_15h14.14.988,Serial_Dependence_U,2023.2.3,Win32,59.88023952094243,,,,,,602.2311999999991,246,2,602.2314000000002,246,,,,605.7801999999991,606.2839000000002,605.2627999999988,605.7800999999995,603.2299000000003,605.2626999999992,606.2839999999999,606.7804999999998,606.7805999999995,607.6786999999991,628,607.6786999999991,1,607.6789000000002,2,11,71,16,1,1,0.7,Time
,,457570,001,男,21,2025-06-03_15h14.14.988,Serial_Dependence_U,2023.2.3,Win32,59.88023952094243,,,,,,607.6791999999991,206,2,607.6794000000003,206,,,,611.4627999999988,611.9610999999995,610.9449000000003,611.4625999999995,608.6785999999995,610.9447999999987,611.9611999999992,612.4610999999995,612.4610999999995,613.7444000000003,742,613.7444999999999,1,613.7446999999992,2,12,72,22,1,1.2,0.3,Time
,,457570,001,男,21,2025-06-03_15h14.14.988,Serial_Dependence_U,2023.2.3,Win32,59.88023952094243,,,,,,613.7450999999995,207,2,613.7454000000002,207,,,,617.9447999999987,618.4434000000002,617.4277999999988,617.9446999999991,614.7609000000002,617.4276999999992,618.4434000000002,618.9432999999988,618.9434000000002,622.3429999999998,708,622.3429999999998,1,622.3432999999987,2,13,73,24,1,1.6,0.3,Time
,,457570,001,男,21,2025-06-03_15h14.14.988,Serial_Dependence_U,2023.2.3,Win32,59.88023952094243,,,,,,622.3435,83,2,622.3436999999991,83,,,,625.8924999999999,626.3929000000003,625.3759999999999,625.8924000000003,623.3437999999987,625.3757999999988,626.3929000000003,626.8924000000003,626.8924000000003,628.6089999999999,809,628.6091999999992,2,628.6092999999988,2,14,74,26,1,1,0.7,Time
,,457570,001,男,21,2025-06-03_15h14.14.988,Serial_Dependence_U,2023.2.3,Win32,59.88023952094243,,,,,,628.6095999999995,273,2,628.6097999999988,273,,,,632.7754999999999,633.2744000000002,632.2581999999992,632.7752999999988,629.6251999999992,632.2581999999992,633.2744000000002,633.7741999999992,633.7742999999988,634.9909000000002,575,634.9909000000002,1,634.9911999999991,2,15,75,29,1,1.6,0.7,Time
,,457570,001,男,21,2025-06-03_15h14.14.988,Serial_Dependence_U,2023.2.3,Win32,59.88023952094243,,,,,,634.9914999999999,150,2,634.9919000000003,150,,,,638.7459999999999,639.2399999999999,638.2411999999991,638.7459000000002,636.0074000000003,638.2410999999995,639.2399999999999,639.7420999999995,639.7421999999991,641.3576999999991,712,641.3577999999987,1,641.3579000000003,2,16,76,7,1,1.2,0.7,Time
,,457570,001,男,21,2025-06-03_15h14.14.988,Serial_Dependence_U,2023.2.3,Win32,59.88023952094243,,,,,,641.3580999999996,219,2,641.3582999999987,219,,,,644.7454000000002,645.2389999999999,644.2394999999999,644.7452999999988,642.3732999999988,644.2394000000003,645.2389999999999,645.7402999999988,645.7402999999988,647.0389999999999,639,647.0389999999999,2,647.0391999999991,2,17,77,10,1,0.8,0.3,Time
,,457570,001,男,21,2025-06-03_15h14.14.988,Serial_Dependence_U,2023.2.3,Win32,59.88023952094243,,,,,,647.0394999999999,221,2,647.0396999999991,221,,,,650.4056999999991,650.9051999999991,649.8887999999988,650.4056999999991,648.0554000000003,649.8887999999988,650.9052999999988,651.4047999999988,651.4049000000002,652.8047999999987,774,652.8049000000003,3,652.8050999999996,2,18,78,15,1,0.8,0.7,Time
,,457570,001,男,21,2025-06-03_15h14.14.988,Serial_Dependence_U,2023.2.3,Win32,59.88023952094243,,,,,,652.8052999999987,186,2,652.8055999999996,186,,,,656.3890999999995,656.8879999999999,655.8876999999992,656.3889999999999,653.8216999999992,655.8875999999996,656.8880999999996,657.3872999999987,657.3872999999987,658.7869999999999,699,658.7869999999999,1,658.7872999999988,2,19,79,1,1,1,0.3,Time
,,457570,001,男,21,2025-06-03_15h14.14.988,Serial_Dependence_U,2023.2.3,Win32,59.88023952094243,,,,,,658.7874999999999,27,2,658.7875999999995,27,,,,662.7702999999988,663.2694999999999,662.2531999999992,662.7701999999991,659.7876999999992,662.2530999999996,663.2694999999999,663.7694000000002,663.7694000000002,664.8026999999992,623,664.8026999999992,1,664.8029999999999,2,20,80,23,1,1.4,0.3,Time
,,457570,001,男,21,2025-06-03_15h14.14.988,Serial_Dependence_U,2023.2.3,Win32,59.88023952094243,,,,,,664.8031999999992,42,2,664.8034000000002,42,,,,668.9696999999992,669.4689999999999,668.4689000000003,668.9696999999992,665.8041999999991,668.4687999999987,669.4689999999999,669.9684000000003,669.9685,671.3184999999999,702,671.3184999999999,1,671.3187999999988,2,21,81,14,1,1.6,0.3,Time
,,457570,001,男,21,2025-06-03_15h14.14.988,Serial_Dependence_U,2023.2.3,Win32,59.88023952094243,,,,,,671.319,149,2,671.3190999999995,149,,,,674.6845999999995,675.1841999999991,674.1680999999995,674.6845999999995,672.3364999999999,674.1680999999995,675.1841999999991,675.6840999999995,675.6841999999991,677.7006999999992,785,677.7007999999988,3,677.7010999999995,2,22,82,25,1,0.8,0.7,Time
,,457570,001,男,21,2025-06-03_15h14.14.988,Serial_Dependence_U,2023.2.3,Win32,59.88023952094243,,,,,,677.7012999999988,12,2,677.7014999999999,12,,,,681.6667999999988,682.1664000000003,681.1506999999991,681.6666999999992,678.7171999999991,681.1505999999995,682.1664000000003,682.6666999999992,682.6666999999992,684.0162999999988,781,684.0164000000003,1,684.0166999999991,2,23,83,18,1,1.4,0.7,Time
,,457570,001,男,21,2025-06-03_15h14.14.988,Serial_Dependence_U,2023.2.3,Win32,59.88023952094243,,,,,,684.0170999999996,313,2,684.0176999999992,313,,,,688.1996999999992,688.6989000000003,687.6832999999988,688.1995999999996,685.0165999999996,687.6832999999988,688.699,689.1990999999995,689.1991999999991,690.3487999999987,640,690.3487999999987,1,690.3491999999992,2,24,84,4,1,1.6,0.3,Time
,,457570,001,男,21,2025-06-03_15h14.14.988,Serial_Dependence_U,2023.2.3,Win32,59.88023952094243,,,,,,690.3494999999999,359,2,690.3496999999992,359,,,,693.9317999999988,694.4310999999996,693.414999999998,693.9315999999995,691.3490999999996,693.4149000000003,694.4310999999996,694.9314000000003,694.9314999999981,697.3807000000011,683,697.3807000000011,1,697.3809000000002,2,25,85,21,1,1,0.3,Time
,,457570,001,男,21,2025-06-03_15h14.14.988,Serial_Dependence_U,2023.2.3,Win32,59.88023952094243,,,,,,697.3812000000011,251,2,697.3814000000003,251,,,,701.1804000000003,701.6799000000003,700.663999999998,701.1802999999987,698.397499999998,700.6639000000002,701.6799000000003,702.1800999999996,702.1800999999996,703.579700000001,705,703.579700000001,1,703.5799000000003,2,26,86,2,1,1.2,0.3,Time
,,457570,001,男,21,2025-06-03_15h14.14.988,Serial_Dependence_U,2023.2.3,Win32,59.88023952094243,,,,,,703.5800999999996,146,2,703.5802999999988,146,,,,707.1459000000003,707.645499999998,706.6309000000002,707.1459000000003,704.5962999999988,706.6307999999988,707.645499999998,708.145499999998,708.1455999999995,709.4464999999981,592,709.4464999999981,1,709.446700000001,2,27,87,6,1,1,0.7,Time
,,457570,001,男,21,2025-06-03_15h14.14.988,Serial_Dependence_U,2023.2.3,Win32,59.88023952094243,,,,,,709.4469000000003,215,2,709.4470999999995,215,,,,713.211700000001,713.7112999999988,712.6950999999996,713.211700000001,710.4632999999988,712.694999999998,713.7112999999988,714.2114999999981,714.2114999999981,716.6945999999996,585,716.694700000001,1,716.6950999999996,2,28,88,17,1,1.2,0.7,Time
,,457570,001,男,21,2025-06-03_15h14.14.988,Serial_Dependence_U,2023.2.3,Win32,59.88023952094243,,,,,,716.695499999998,171,2,716.6957999999988,171,,,,720.8610999999995,721.360200000001,720.343700000001,720.8609999999981,717.7109000000003,720.343700000001,721.3602999999988,721.8604999999981,721.860700000001,722.7765999999996,510,722.7765999999996,1,722.7767999999987,2,29,89,9,1,1.6,0.7,Time
,,457570,001,男,21,2025-06-03_15h14.14.988,Serial_Dependence_U,2023.2.3,Win32,59.88023952094243,,,,,,722.776999999998,27,3,725.1094000000003,27,s,2.324199999999223,,728.5090999999995,729.0089000000003,727.992499999998,728.5089999999981,726.1260999999995,727.992499999998,729.0089999999981,729.508700000001,729.5087999999988,731.5752999999988,659,731.5754000000003,2,731.575499999998,3,0,90,10,1,0.8,0.3,Time
,,457570,001,男,21,2025-06-03_15h14.14.988,Serial_Dependence_U,2023.2.3,Win32,59.88023952094243,,,,,,731.5759000000003,297,3,731.5777000000011,297,,,,735.341700000001,735.841700000001,734.824999999998,735.3415999999995,732.591999999998,734.8247999999987,735.841700000001,736.3409000000003,736.3409000000003,737.957999999998,748,737.957999999998,1,737.958200000001,3,1,91,17,1,1.2,0.7,Time
,,457570,001,男,21,2025-06-03_15h14.14.988,Serial_Dependence_U,2023.2.3,Win32,59.88023952094243,,,,,,737.958499999998,47,3,737.958700000001,47,,,,741.324700000001,741.8234000000002,740.807700000001,741.3245999999996,738.974700000001,740.807700000001,741.8234000000002,742.3232999999988,742.3232999999988,744.2729999999981,483,744.2729999999981,1,744.2732999999988,3,2,92,25,1,0.8,0.7,Time
,,457570,001,男,21,2025-06-03_15h14.14.988,Serial_Dependence_U,2023.2.3,Win32,59.88023952094243,,,,,,744.273700000001,54,3,744.2739999999981,54,,,,748.4394000000003,748.939200000001,747.9230999999995,748.4392999999988,745.2897000000011,747.9230999999995,748.939200000001,749.4387000000011,749.4387999999988,750.7892999999988,570,750.7894000000002,1,750.789499999998,3,3,93,29,1,1.6,0.7,Time
,,457570,001,男,21,2025-06-03_15h14.14.988,Serial_Dependence_U,2023.2.3,Win32,59.88023952094243,,,,,,750.7899000000003,133,3,750.789999999998,133,,,,754.339499999998,754.8377999999988,753.838700000001,754.3394000000003,751.8052999999987,753.8385999999996,754.8379000000003,755.3377999999988,755.3379000000003,756.637700000001,553,756.6379000000003,1,756.637999999998,3,4,94,26,1,1,0.7,Time
,,457570,001,男,21,2025-06-03_15h14.14.988,Serial_Dependence_U,2023.2.3,Win32,59.88023952094243,,,,,,756.6382999999988,188,3,756.6385999999995,188,,,,760.437999999998,760.9369000000003,759.9209000000003,760.4379000000002,757.654499999998,759.9207999999987,760.9369000000003,761.4367999999988,761.4369000000003,762.420700000001,483,762.4207999999987,1,762.420999999998,3,5,95,22,1,1.2,0.3,Time
,,457570,001,男,21,2025-06-03_15h14.14.988,Serial_Dependence_U,2023.2.3,Win32,59.88023952094243,,,,,,762.421200000001,92,3,762.4214000000003,92,,,,766.3699000000003,766.8694000000003,765.8532999999987,766.3699000000003,763.4204000000003,765.853200000001,766.8694000000003,767.369200000001,767.369200000001,768.2860999999996,488,768.2860999999996,1,768.286200000001,3,6,96,8,1,1.4,0.7,Time
,,457570,001,男,21,2025-06-03_15h14.14.988,Serial_Dependence_U,2023.2.3,Win32,59.88023952094243,,,,,,768.286499999998,346,3,768.286700000001,346,,,,771.6520999999996,772.151700000001,771.1355999999995,771.651999999998,769.3034000000002,771.135499999998,772.1517999999987,772.6517999999987,772.6519000000003,774.2019000000003,526,774.2019999999981,1,774.202200000001,3,7,97,15,1,0.8,0.7,Time
,,457570,001,男,21,2025-06-03_15h14.14.988,Serial_Dependence_U,2023.2.3,Win32,59.88023952094243,,,,,,774.202499999998,11,3,774.2025999999995,11,,,,777.601200000001,778.1009999999981,777.084700000001,777.6010999999995,775.2182999999987,777.084700000001,778.1009999999981,778.600700000001,778.6007999999988,780.3507999999988,560,780.3509000000003,1,780.3510999999995,3,8,98,0,1,0.8,0.3,Time
,,457570,001,男,21,2025-06-03_15h14.14.988,Serial_Dependence_U,2023.2.3,Win32,59.88023952094243,,,,,,780.3514000000002,121,3,780.3515999999995,121,,,,783.9335999999995,784.4330999999995,783.4170999999996,783.9335999999995,781.3515999999995,783.4169999999981,784.4330999999995,784.9330999999995,784.9330999999995,786.349700000001,605,786.349700000001,1,786.3497999999988,3,9,99,21,1,1,0.3,Time
,,457570,001,男,21,2025-06-03_15h14.14.988,Serial_Dependence_U,2023.2.3,Win32,59.88023952094243,,,,,,786.350200000001,240,3,786.3502999999988,240,,,,790.283700000001,790.7820999999996,789.7829000000003,790.283700000001,787.3514000000002,789.7827999999988,790.7820999999996,791.281999999998,791.281999999998,792.998700000001,588,792.998700000001,1,792.9989999999981,3,10,100,18,1,1.4,0.7,Time
,,457570,001,男,21,2025-06-03_15h14.14.988,Serial_Dependence_U,2023.2.3,Win32,59.88023952094243,,,,,,792.9992999999988,329,3,792.9995999999995,329,,,,797.1982999999988,797.6985999999995,796.6815999999995,797.1982000000011,794.0152000000011,796.6815999999995,797.6985999999995,798.1975999999995,798.1975999999995,799.297700000001,633,799.2979000000003,1,799.2980999999995,3,11,101,4,1,1.6,0.3,Time
,,457570,001,男,21,2025-06-03_15h14.14.988,Serial_Dependence_U,2023.2.3,Win32,59.88023952094243,,,,,,799.2984000000002,204,3,799.2985999999995,204,,,,802.6639000000002,803.1639000000002,802.147499999998,802.6637999999988,800.314200000001,802.1474000000003,803.1639000000002,803.6632999999988,803.6634000000003,805.330200000001,684,805.3302999999988,2,805.3304999999981,3,12,102,5,1,0.8,0.7,Time
,,457570,001,男,21,2025-06-03_15h14.14.988,Serial_Dependence_U,2023.2.3,Win32,59.88023952094243,,,,,,805.330700000001,104,3,805.3309000000003,104,,,,809.0964999999981,809.5969000000002,808.580700000001,809.0964999999981,806.346700000001,808.5805999999995,809.5969000000002,810.0955999999995,810.0955999999995,811.7622999999987,655,811.7622999999987,1,811.762499999998,3,13,103,27,1,1.2,0.7,Time
,,457570,001,男,21,2025-06-03_15h14.14.988,Serial_Dependence_U,2023.2.3,Win32,59.88023952094243,,,,,,811.762700000001,5,3,811.762999999998,5,,,,815.928200000001,816.4279999999981,815.4124000000003,815.9280999999995,812.7797999999988,815.4122999999988,816.4279999999981,816.9279999999981,816.9280999999995,818.762700000001,681,818.7627999999988,1,818.762999999998,3,14,104,19,1,1.6,0.7,Time
,,457570,001,男,21,2025-06-03_15h14.14.988,Serial_Dependence_U,2023.2.3,Win32,59.88023952094243,,,,,,818.7632999999988,24,3,818.7634999999981,24,,,,822.944200000001,823.4435999999995,822.4274999999981,822.943999999998,819.7612999999988,822.4274999999981,823.4435999999995,823.943999999998,823.9440999999995,826.6429999999981,770,826.6429999999981,1,826.643200000001,3,15,105,14,1,1.6,0.3,Time
,,457570,001,男,21,2025-06-03_15h14.14.988,Serial_Dependence_U,2023.2.3,Win32,59.88023952094243,,,,,,826.6434000000003,85,3,826.6435999999995,85,,,,830.2425999999996,830.7422999999987,829.726200000001,830.2425999999996,827.6597999999988,829.7260999999995,830.7422999999987,831.242200000001,831.242200000001,836.2419000000003,616,836.2419000000003,1,836.242200000001,3,16,106,1,1,1,0.3,Time
,,457570,001,男,21,2025-06-03_15h14.14.988,Serial_Dependence_U,2023.2.3,Win32,59.88023952094243,,,,,,836.2425999999996,269,3,836.2427999999987,269,,,,839.641200000001,840.1407000000011,839.1264000000003,839.6410999999995,837.258200000001,839.1264000000003,840.1407999999988,840.6407000000011,840.6407999999988,843.6235999999996,881,843.623700000001,4,843.6237999999988,3,17,107,20,1,0.8,0.3,Time
,,457570,001,男,21,2025-06-03_15h14.14.988,Serial_Dependence_U,2023.2.3,Win32,59.88023952094243,,,,,,843.6240999999995,260,3,843.6244000000003,260,,,,847.1900999999996,847.689499999998,846.6745999999995,847.189999999998,844.640499999998,846.674499999998,847.689499999998,848.1902999999988,848.1902999999988,850.1229000000003,749,850.122999999998,2,850.1232999999988,3,18,108,16,1,1,0.7,Time
,,457570,001,男,21,2025-06-03_15h14.14.988,Serial_Dependence_U,2023.2.3,Win32,59.88023952094243,,,,,,850.1235999999996,27,3,850.1239000000003,27,,,,854.3232000000011,854.8224000000002,853.8055999999996,854.3220999999995,851.139200000001,853.805499999998,854.8224000000002,855.3217999999988,855.3217999999988,857.9554999999981,740,857.9554999999981,1,857.9555999999995,3,19,109,24,1,1.6,0.3,Time
,,457570,001,男,21,2025-06-03_15h14.14.988,Serial_Dependence_U,2023.2.3,Win32,59.88023952094243,,,,,,857.9559000000003,213,3,857.9559999999981,213,,,,861.754200000001,862.2537999999988,861.2379000000003,861.7540999999995,858.9729000000003,861.2377999999987,862.2537999999988,862.7537999999988,862.7539000000003,866.853999999998,759,866.8540999999996,1,866.8542999999988,3,20,110,2,1,1.2,0.3,Time
,,457570,001,男,21,2025-06-03_15h14.14.988,Serial_Dependence_U,2023.2.3,Win32,59.88023952094243,,,,,,866.8545999999996,273,3,866.8547999999988,273,,,,870.852700000001,871.3524000000003,870.3379000000003,870.852700000001,867.8697999999988,870.3377999999988,871.3524000000003,871.8522999999988,871.8522999999988,885.700200000001,776,885.700200000001,1,885.7002999999988,3,21,111,13,1,1.4,0.3,Time
,,457570,001,男,21,2025-06-03_15h14.14.988,Serial_Dependence_U,2023.2.3,Win32,59.88023952094243,,,,,,885.700499999998,189,3,885.7007999999988,189,,,,889.267200000001,889.766999999998,888.7664000000003,889.2670999999996,886.7009000000003,888.7662999999988,889.766999999998,890.265999999998,890.265999999998,895.3152999999988,684,895.3152999999988,1,895.315499999998,3,22,112,11,1,1,0.3,Time
,,457570,001,男,21,2025-06-03_15h14.14.988,Serial_Dependence_U,2023.2.3,Win32,59.88023952094243,,,,,,895.3157999999988,144,3,895.315999999998,144,,,,899.114700000001,899.6145999999995,898.5984000000003,899.1145999999995,896.3319999999981,898.5982999999987,899.6145999999995,900.1144000000003,900.1144000000003,904.513700000001,746,904.5137999999988,1,904.5139999999981,3,23,113,12,1,1.2,0.3,Time
,,457570,001,男,21,2025-06-03_15h14.14.988,Serial_Dependence_U,2023.2.3,Win32,59.88023952094243,,,,,,904.5142999999988,183,3,904.5144000000003,183,,,,908.4799000000003,908.9802999999988,907.9637999999987,908.4799000000003,905.5304000000003,907.9637999999987,908.9802999999988,909.4795999999996,909.4795999999996,913.829700000001,747,913.8297999999988,1,913.829999999998,3,24,114,28,1,1.4,0.7,Time
,,457570,001,男,21,2025-06-03_15h14.14.988,Serial_Dependence_U,2023.2.3,Win32,59.88023952094243,,,,,,913.830200000001,100,3,913.8304000000003,100,,,,917.8285999999995,918.3282999999988,917.3129000000002,917.828499999998,914.8454999999981,917.3127999999988,918.3284000000003,918.827999999998,918.827999999998,921.4277999999988,770,921.4279000000002,1,921.4280999999995,3,25,115,23,1,1.4,0.3,Time
,,457570,001,男,21,2025-06-03_15h14.14.988,Serial_Dependence_U,2023.2.3,Win32,59.88023952094243,,,,,,921.4284000000002,224,3,921.4285999999995,224,,,,925.1942999999987,925.6934000000002,924.6772999999988,925.194200000001,922.4445999999996,924.677200000001,925.693499999998,926.1934000000002,926.193499999998,927.6600999999995,826,927.660200000001,1,927.6604000000003,3,26,116,7,1,1.2,0.7,Time
,,457570,001,男,21,2025-06-03_15h14.14.988,Serial_Dependence_U,2023.2.3,Win32,59.88023952094243,,,,,,927.6607999999987,1,3,927.660999999998,1,,,,931.226499999998,931.7259000000003,930.7099000000003,931.226499999998,928.6767999999988,930.7099000000003,931.7259999999981,932.225700000001,932.225700000001,939.4414999999981,689,939.441700000001,1,939.4417999999988,3,27,117,6,1,1,0.7,Time
,,457570,001,男,21,2025-06-03_15h14.14.988,Serial_Dependence_U,2023.2.3,Win32,59.88023952094243,,,,,,939.4419999999981,302,3,939.4420999999995,302,,,,943.4409000000003,943.9409000000003,942.924999999998,943.4407999999988,940.458700000001,942.924999999998,943.9409000000003,944.4405999999996,944.4405999999996,945.7902999999988,917,945.7902999999988,1,945.790499999998,3,28,118,3,1,1.4,0.3,Time
,,457570,001,男,21,2025-06-03_15h14.14.988,Serial_Dependence_U,2023.2.3,Win32,59.88023952094243,,,,,,945.790700000001,68,3,945.790999999998,68,,,,949.957499999998,950.4560999999995,949.439999999998,949.957499999998,946.807700000001,949.4399000000003,950.4560999999995,950.9569999999981,950.9569999999981,952.056200000001,712,952.056200000001,1,952.0564000000003,3,29,119,9,1,1.6,0.7,Time
,,457570,001,男,21,2025-06-03_15h14.14.988,Serial_Dependence_U,2023.2.3,Win32,59.88023952094243,,,,,,952.056700000001,164,4,953.239200000001,164,s,1.1643999999985226,,956.8060999999996,957.304999999998,956.2890999999995,956.805999999998,954.2559000000002,956.2890999999995,957.304999999998,957.804999999998,957.804999999998,958.9559000000003,768,958.9559000000003,2,958.956200000001,4,0,120,26,1,1,0.7,Time
,,457570,001,男,21,2025-06-03_15h14.14.988,Serial_Dependence_U,2023.2.3,Win32,59.88023952094243,,,,,,958.9562999999988,175,4,958.9572999999988,175,,,,963.120999999998,963.620700000001,962.604700000001,963.1209000000002,959.9714999999981,962.6045999999996,963.6207999999988,964.120700000001,964.120700000001,968.8367999999988,675,968.8367999999988,1,968.836999999998,4,1,121,9,1,1.6,0.7,Time
,,457570,001,男,21,2025-06-03_15h14.14.988,Serial_Dependence_U,2023.2.3,Win32,59.88023952094243,,,,,,968.8372999999988,70,4,968.8374000000002,70,,,,972.2364000000002,972.7359000000002,971.7197999999988,972.2362000000011,969.853999999998,971.719700000001,972.7359999999981,973.236999999998,973.2370999999995,980.9354000000003,760,980.9354000000003,2,980.9355999999996,4,2,122,0,1,0.8,0.3,Time
,,457570,001,男,21,2025-06-03_15h14.14.988,Serial_Dependence_U,2023.2.3,Win32,59.88023952094243,,,,,,980.9359000000003,288,4,980.936200000001,288,,,,984.517700000001,985.0174999999982,984.0017000000009,984.5175999999994,981.9357999999988,984.0015999999996,985.0175999999996,985.5170999999997,985.517200000001,986.5837999999989,756,986.5837999999989,2,986.5839999999981,4,3,123,1,1,1,0.3,Time
,,457570,001,男,21,2025-06-03_15h14.14.988,Serial_Dependence_U,2023.2.3,Win32,59.88023952094243,,,,,,986.584299999999,29,4,986.5844000000003,29,,,,990.5344000000003,991.0329999999982,990.0179000000004,990.5344000000003,987.5847000000011,990.0177000000011,991.0329999999982,991.5329000000005,991.5329999999982,993.016200000001,655,993.016200000001,1,993.016299999999,4,4,124,8,1,1.4,0.7,Time
,,457570,001,男,21,2025-06-03_15h14.14.988,Serial_Dependence_U,2023.2.3,Win32,59.88023952094243,,,,,,993.0164999999982,332,4,993.0165999999996,332,,,,996.4159000000003,996.9152999999989,995.9007000000012,996.415799999999,994.0327999999989,995.9005999999996,996.9152999999989,997.4154000000004,997.4154000000004,1001.7647999999989,631,1001.7647999999989,2,1001.7650999999997,4,5,125,20,1,0.8,0.3,Time
,,457570,001,男,21,2025-06-03_15h14.14.988,Serial_Dependence_U,2023.2.3,Win32,59.88023952094243,,,,,,1001.765299999999,324,4,1001.765499999998,324,,,,1005.5515999999997,1006.0472000000012,1005.0477999999988,1005.5514000000004,1002.7812999999989,1005.0477000000011,1006.0472999999989,1006.5470999999997,1006.5470999999997,1008.6809999999981,780,1008.6810999999997,1,1008.6812999999989,4,6,126,22,1,1.2,0.3,Time
,,457570,001,男,21,2025-06-03_15h14.14.988,Serial_Dependence_U,2023.2.3,Win32,59.88023952094243,,,,,,1008.6814000000003,349,4,1008.6815999999995,349,,,,1012.4797999999988,1012.9799999999981,1011.9642999999988,1012.4797999999988,1009.6967999999989,1011.9642999999988,1012.9800999999997,1013.4795999999996,1013.4795999999996,1015.3292000000012,860,1015.3292000000012,2,1015.3294999999981,4,7,127,2,1,1.2,0.3,Time
,,457570,001,男,21,2025-06-03_15h14.14.988,Serial_Dependence_U,2023.2.3,Win32,59.88023952094243,,,,,,1015.329700000001,210,4,1015.3299000000003,210,,,,1019.511799999999,1020.011799999999,1018.9957999999989,1019.511799999999,1016.3317000000012,1018.9957000000012,1020.0119000000003,1020.5119999999982,1020.5119999999982,1023.2944999999983,824,1023.2944999999983,1,1023.2945999999996,4,8,128,24,1,1.6,0.3,Time
,,457570,001,男,21,2025-06-03_15h14.14.988,Serial_Dependence_U,2023.2.3,Win32,59.88023952094243,,,,,,1023.2947000000012,257,4,1023.2949000000004,257,,,,1026.8947000000012,1027.3935999999997,1026.377799999999,1026.8947000000012,1024.3114999999982,1026.3777000000011,1027.3935999999997,1027.8945999999999,1027.8945999999999,1031.1774000000005,689,1031.1774999999982,1,1031.1775999999998,4,9,129,11,1,1,0.3,Time
,,457570,001,男,21,2025-06-03_15h14.14.988,Serial_Dependence_U,2023.2.3,Win32,59.88023952094243,,,,,,1031.177799999999,281,4,1031.1779999999983,281,,,,1034.9104000000004,1035.4089999999983,1034.4097000000013,1034.910299999999,1032.1769000000006,1034.4095999999997,1035.4090999999999,1035.9090999999999,1035.9090999999999,1040.0419000000004,692,1040.0419999999983,1,1040.0422000000012,4,10,130,7,1,1.2,0.7,Time
,,457570,001,男,21,2025-06-03_15h14.14.988,Serial_Dependence_U,2023.2.3,Win32,59.88023952094243,,,,,,1040.0427000000013,262,4,1040.0429000000006,262,,,,1043.4079000000006,1043.9079000000006,1042.891799999999,1043.4079000000006,1041.058299999999,1042.8917000000013,1043.9079999999983,1044.4074999999982,1044.4075999999998,1048.6077000000012,615,1048.607799999999,2,1048.6079999999984,4,11,131,25,1,0.8,0.7,Time
,,457570,001,男,21,2025-06-03_15h14.14.988,Serial_Dependence_U,2023.2.3,Win32,59.88023952094243,,,,,,1048.608299999999,6,4,1048.6084000000005,6,,,,1052.5732000000012,1053.0729999999983,1052.0567000000012,1052.5732000000012,1049.6245999999996,1052.0567000000012,1053.0729999999983,1053.5727000000013,1053.572799999999,1056.6892000000012,803,1056.689299999999,1,1056.6895999999997,4,12,132,18,1,1.4,0.7,Time
,,457570,001,男,21,2025-06-03_15h14.14.988,Serial_Dependence_U,2023.2.3,Win32,59.88023952094243,,,,,,1056.6899000000005,17,4,1056.6902000000011,17,,,,1060.8385999999998,1061.3382000000013,1060.3230999999998,1060.8384999999982,1057.6890999999998,1060.3229999999983,1061.338299999999,1061.8384000000005,1061.8384999999982,1065.7379000000005,781,1065.7379999999982,1,1065.7382000000011,4,13,133,19,1,1.6,0.7,Time
,,457570,001,男,21,2025-06-03_15h14.14.988,Serial_Dependence_U,2023.2.3,Win32,59.88023952094243,,,,,,1065.7385999999997,327,4,1065.738799999999,327,,,,1069.6869999999983,1070.1869000000006,1069.1717000000012,1069.6869999999983,1066.7375999999997,1069.1717000000012,1070.1869000000006,1070.6865999999998,1070.6865999999998,1074.2860999999998,812,1074.2860999999998,1,1074.286299999999,4,14,134,28,1,1.4,0.7,Time
,,457570,001,男,21,2025-06-03_15h14.14.988,Serial_Dependence_U,2023.2.3,Win32,59.88023952094243,,,,,,1074.2864000000004,175,4,1074.2867000000012,175,,,,1078.4694999999983,1078.9694999999983,1077.9525999999998,1078.4694000000004,1075.2875999999997,1077.9524999999983,1078.9695999999997,1079.4685999999997,1079.4685999999997,1087.150799999999,753,1087.1509000000005,1,1087.1510999999998,4,15,135,14,1,1.6,0.3,Time
,,457570,001,男,21,2025-06-03_15h14.14.988,Serial_Dependence_U,2023.2.3,Win32,59.88023952094243,,,,,,1087.1514999999984,256,4,1087.151799999999,256,,,,1090.5170999999998,1091.0177000000012,1090.0004000000006,1090.5170999999998,1088.167299999999,1090.0004000000006,1091.0177000000012,1091.5165999999997,1091.5165999999997,1099.8489999999983,826,1099.8489999999983,3,1099.849299999999,4,16,136,15,1,0.8,0.7,Time
,,457570,001,男,21,2025-06-03_15h14.14.988,Serial_Dependence_U,2023.2.3,Win32,59.88023952094243,,,,,,1099.8494999999982,98,4,1099.849799999999,98,,,,1103.4149000000004,1103.9145999999998,1102.899299999999,1103.4149000000004,1100.8654999999983,1102.8992000000012,1103.9145999999998,1104.4144999999983,1104.4144999999983,1107.897299999999,642,1107.897299999999,1,1107.8975999999998,4,17,137,6,1,1,0.7,Time
,,457570,001,男,21,2025-06-03_15h14.14.988,Serial_Dependence_U,2023.2.3,Win32,59.88023952094243,,,,,,1107.897799999999,285,4,1107.8979000000004,285,,,,1111.2804999999983,1111.7804000000006,1110.7639000000006,1111.2804000000006,1108.8975999999998,1110.763799999999,1111.7804000000006,1112.280299999999,1112.280299999999,1128.410799999999,641,1128.410799999999,2,1128.4110999999998,4,18,138,10,1,0.8,0.3,Time
,,457570,001,男,21,2025-06-03_15h14.14.988,Serial_Dependence_U,2023.2.3,Win32,59.88023952094243,,,,,,1128.411299999999,210,4,1128.4114999999983,210,,,,1132.410299999999,1132.909799999999,1131.8937000000012,1132.4102000000012,1129.4274000000005,1131.8935999999997,1132.9099000000006,1133.4099000000006,1133.4099000000006,1158.9560999999997,650,1158.9562000000012,1,1158.9564999999982,4,19,139,3,1,1.4,0.3,Time
,,457570,001,男,21,2025-06-03_15h14.14.988,Serial_Dependence_U,2023.2.3,Win32,59.88023952094243,,,,,,1158.956799999999,329,4,1158.9570999999999,329,,,,1162.555299999999,1163.0549999999982,1162.0389999999982,1162.5552000000012,1159.9744000000005,1162.0389000000005,1163.0550999999998,1163.5549000000005,1163.5549000000005,1171.3039000000006,606,1171.3039000000006,1,1171.3040999999998,4,20,140,21,1,1,0.3,Time
,,457570,001,男,21,2025-06-03_15h14.14.988,Serial_Dependence_U,2023.2.3,Win32,59.88023952094243,,,,,,1171.3044000000004,84,4,1171.3045999999997,84,,,,1175.070299999999,1175.569799999999,1174.5547000000013,1175.0700999999997,1172.3204000000005,1174.5545999999997,1175.569799999999,1176.071299999999,1176.071299999999,1177.302799999999,627,1177.302799999999,1,1177.3030999999999,4,21,141,27,1,1.2,0.7,Time
,,457570,001,男,21,2025-06-03_15h14.14.988,Serial_Dependence_U,2023.2.3,Win32,59.88023952094243,,,,,,1177.3034000000005,278,4,1177.3035999999997,278,,,,1181.302299999999,1181.8024000000005,1180.785799999999,1181.3022000000012,1178.3197000000011,1180.7857000000013,1181.8024999999982,1182.3019000000006,1182.3019999999983,1189.1342000000013,718,1189.1342000000013,1,1189.1344999999983,4,22,142,13,1,1.4,0.3,Time
,,457570,001,男,21,2025-06-03_15h14.14.988,Serial_Dependence_U,2023.2.3,Win32,59.88023952094243,,,,,,1189.1347000000012,140,4,1189.134799999999,140,,,,1193.2839000000006,1193.7834000000005,1192.7685999999997,1193.2839000000006,1190.1359999999984,1192.7684999999983,1193.7834999999982,1194.2832000000012,1194.2832000000012,1195.4335999999998,769,1195.4335999999998,1,1195.4337000000012,4,23,143,29,1,1.6,0.7,Time
,,457570,001,男,21,2025-06-03_15h14.14.988,Serial_Dependence_U,2023.2.3,Win32,59.88023952094243,,,,,,1195.4340999999997,296,4,1195.434299999999,296,,,,1199.4325999999999,1199.932299999999,1198.9165999999998,1199.4325999999999,1196.4500999999998,1198.9165999999998,1199.932299999999,1200.4339000000004,1200.4339999999984,1201.7489000000005,698,1201.7489999999982,1,1201.7492000000013,4,24,144,23,1,1.4,0.3,Time
,,457570,001,男,21,2025-06-03_15h14.14.988,Serial_Dependence_U,2023.2.3,Win32,59.88023952094243,,,,,,1201.7494000000006,221,4,1201.7495999999996,221,,,,1205.3149999999982,1205.8149000000005,1204.7985999999999,1205.3149000000005,1202.7667000000013,1204.7985999999999,1205.8149000000005,1206.3145999999997,1206.3145999999997,1207.5482000000013,861,1207.5482000000013,2,1207.5484999999983,4,25,145,16,1,1,0.7,Time
,,457570,001,男,21,2025-06-03_15h14.14.988,Serial_Dependence_U,2023.2.3,Win32,59.88023952094243,,,,,,1207.5489000000005,8,4,1207.5492000000013,8,,,,1211.7474999999984,1212.2480999999998,1211.2309000000005,1211.7474000000004,1208.5644999999984,1211.230799999999,1212.2480999999998,1212.7469000000006,1212.7469000000006,1213.9810999999997,735,1213.9812000000013,1,1213.9814000000006,4,26,146,4,1,1.6,0.3,Time
,,457570,001,男,21,2025-06-03_15h14.14.988,Serial_Dependence_U,2023.2.3,Win32,59.88023952094243,,,,,,1213.981799999999,117,4,1213.9820999999997,117,,,,1217.3469999999982,1217.8459999999982,1216.8299999999983,1217.3469000000005,1214.9979999999982,1216.829799999999,1217.8460999999998,1218.3459999999982,1218.3460999999998,1219.3644999999983,662,1219.3645999999997,2,1219.3647000000012,4,27,147,5,1,0.8,0.7,Time
,,457570,001,男,21,2025-06-03_15h14.14.988,Serial_Dependence_U,2023.2.3,Win32,59.88023952094243,,,,,,1219.3649999999982,216,4,1219.3652000000013,216,,,,1223.1289000000006,1223.6284999999982,1222.618299999999,1223.128799999999,1220.3792000000012,1222.6182000000013,1223.6284999999982,1224.1284000000005,1224.1284000000005,1225.3784000000005,734,1225.3784999999982,1,1225.3787000000013,4,28,148,17,1,1.2,0.7,Time
,,457570,001,男,21,2025-06-03_15h14.14.988,Serial_Dependence_U,2023.2.3,Win32,59.88023952094243,,,,,,1225.3789999999983,21,4,1225.3792000000012,21,,,,1229.177799999999,1229.6774999999982,1228.6615999999997,1229.1777000000013,1226.3949000000005,1228.6615999999997,1229.6775999999998,1230.1774999999982,1230.1774999999982,1231.3440999999998,860,1231.3442000000011,2,1231.3444999999983,4,29,149,12,1,1.2,0.3,Time
,,457570,001,男,21,2025-06-03_15h14.14.988,Serial_Dependence_U,2023.2.3,Win32,59.88023952094243,,,,,,1231.344799999999,129,5,1232.6770999999997,129,s,1.3139999999998508,,1236.2437000000014,1236.7429999999983,1235.7269000000006,1236.2434999999982,1233.6937000000012,1235.7269000000006,1236.7430999999997,1237.2429000000004,1237.2429000000004,1238.309799999999,701,1238.309799999999,2,1238.3099999999984,5,0,150,26,1,1,0.7,Time
,,457570,001,男,21,2025-06-03_15h14.14.988,Serial_Dependence_U,2023.2.3,Win32,59.88023952094243,,,,,,1238.3102000000013,107,5,1238.3117000000013,107,,,,1242.0764000000006,1242.5757000000012,1241.5594000000006,1242.076299999999,1239.3264000000006,1241.5594000000006,1242.5757000000012,1243.0754000000004,1243.0754999999983,1244.175299999999,829,1244.175299999999,1,1244.1755999999998,5,1,151,27,1,1.2,0.7,Time
,,457570,001,男,21,2025-06-03_15h14.14.988,Serial_Dependence_U,2023.2.3,Win32,59.88023952094243,,,,,,1244.1759999999983,333,5,1244.1762000000012,333,,,,1248.3250999999998,1248.8249999999982,1247.8082000000013,1248.3249999999982,1245.1764000000005,1247.8080999999997,1248.8249999999982,1249.3249000000005,1249.3249000000005,1250.5079999999982,765,1250.5079999999982,1,1250.5082000000014,5,2,152,9,1,1.6,0.7,Time
,,457570,001,男,21,2025-06-03_15h14.14.988,Serial_Dependence_U,2023.2.3,Win32,59.88023952094243,,,,,,1250.5084000000004,154,5,1250.5085999999997,154,,,,1254.3069999999982,1254.806799999999,1253.7907000000012,1254.3069999999982,1251.524299999999,1253.7907000000012,1254.806799999999,1255.3067000000012,1255.306799999999,1256.823299999999,980,1256.8234000000004,2,1256.8235999999997,5,3,153,12,1,1.2,0.3,Time
,,457570,001,男,21,2025-06-03_15h14.14.988,Serial_Dependence_U,2023.2.3,Win32,59.88023952094243,,,,,,1256.8239999999983,38,5,1256.8242000000012,38,,,,1260.190299999999,1260.6890999999998,1259.6732000000013,1260.190299999999,1257.8409000000006,1259.6730999999997,1260.6890999999998,1261.1889999999983,1261.1889999999983,1262.5224000000005,860,1262.5224000000005,4,1262.5225999999998,5,4,154,25,1,0.8,0.7,Time
,,457570,001,男,21,2025-06-03_15h14.14.988,Serial_Dependence_U,2023.2.3,Win32,59.88023952094243,,,,,,1262.522799999999,49,5,1262.5230999999997,49,,,,1265.8894000000005,1266.3882000000012,1265.388799999999,1265.8892000000012,1263.5235999999998,1265.3885999999998,1266.3882000000012,1266.8882000000012,1266.8882000000012,1267.904799999999,659,1267.9049000000005,2,1267.9052000000013,5,5,155,20,1,0.8,0.3,Time
,,457570,001,男,21,2025-06-03_15h14.14.988,Serial_Dependence_U,2023.2.3,Win32,59.88023952094243,,,,,,1267.9054000000006,89,5,1267.9055999999998,89,,,,1272.071299999999,1272.5704999999982,1271.5549999999982,1272.0712000000012,1268.921299999999,1271.5549000000005,1272.5704999999982,1273.0722000000012,1273.0722000000012,1274.6037000000013,690,1274.603799999999,1,1274.6040999999998,5,6,156,19,1,1.6,0.7,Time
,,457570,001,男,21,2025-06-03_15h14.14.988,Serial_Dependence_U,2023.2.3,Win32,59.88023952094243,,,,,,1274.6044000000004,114,5,1274.6045999999997,114,,,,1277.9699999999982,1278.4709999999982,1277.4549000000004,1277.9699999999982,1275.620299999999,1277.4549000000004,1278.4709999999982,1278.9695999999997,1278.9695999999997,1280.0529999999983,663,1280.0529999999983,2,1280.0532999999991,5,7,157,15,1,0.8,0.7,Time
,,457570,001,男,21,2025-06-03_15h14.14.988,Serial_Dependence_U,2023.2.3,Win32,59.88023952094243,,,,,,1280.0534999999982,346,5,1280.053799999999,346,,,,1283.852299999999,1284.3519999999983,1283.335799999999,1283.852299999999,1281.0704999999982,1283.335799999999,1284.3519999999983,1284.8519000000006,1284.8519000000006,1285.951799999999,634,1285.9519000000005,1,1285.9520999999997,5,8,158,2,1,1.2,0.3,Time
,,457570,001,男,21,2025-06-03_15h14.14.988,Serial_Dependence_U,2023.2.3,Win32,59.88023952094243,,,,,,1285.9522000000013,250,5,1285.9524999999983,250,,,,1289.334799999999,1289.834299999999,1288.8182000000013,1289.3345999999997,1286.9524999999983,1288.8182000000013,1289.834299999999,1290.3349999999982,1290.3349999999982,1292.835299999999,583,1292.835299999999,2,1292.8354999999983,5,9,159,10,1,0.8,0.3,Time
,,457570,001,男,21,2025-06-03_15h14.14.988,Serial_Dependence_U,2023.2.3,Win32,59.88023952094243,,,,,,1292.835799999999,275,5,1292.8359999999982,275,,,,1296.1839000000004,1296.683299999999,1295.668299999999,1296.1837000000012,1293.8359000000005,1295.668299999999,1296.683299999999,1297.1832000000013,1297.1832000000013,1298.3004000000005,846,1298.3004999999982,4,1298.3005999999998,5,10,160,5,1,0.8,0.7,Time
,,457570,001,男,21,2025-06-03_15h14.14.988,Serial_Dependence_U,2023.2.3,Win32,59.88023952094243,,,,,,1298.300799999999,288,5,1298.3009000000004,288,,,,1301.8662000000013,1302.3659000000005,1301.349799999999,1301.8662000000013,1299.316299999999,1301.3497000000013,1302.3659999999982,1302.8655999999999,1302.8655999999999,1304.7829000000006,738,1304.7829000000006,2,1304.7832000000012,5,11,161,16,1,1,0.7,Time
,,457570,001,男,21,2025-06-03_15h14.14.988,Serial_Dependence_U,2023.2.3,Win32,59.88023952094243,,,,,,1304.7834999999982,52,5,1304.7835999999998,52,,,,1308.548299999999,1309.0479000000005,1308.0372000000013,1308.548299999999,1305.7987000000012,1308.0372000000013,1309.0479000000005,1309.5479999999982,1309.5479999999982,1312.8974000000005,649,1312.8974999999982,1,1312.8977000000014,5,12,162,17,1,1.2,0.7,Time
,,457570,001,男,21,2025-06-03_15h14.14.988,Serial_Dependence_U,2023.2.3,Win32,59.88023952094243,,,,,,1312.897799999999,184,5,1312.8979999999983,184,,,,1316.6479000000004,1317.1467000000011,1316.1470999999997,1316.647799999999,1313.9142000000013,1316.1469999999983,1317.1467000000011,1317.6465999999998,1317.6465999999998,1319.4965999999997,618,1319.4965999999997,1,1319.4969000000006,5,13,163,7,1,1.2,0.7,Time
,,457570,001,男,21,2025-06-03_15h14.14.988,Serial_Dependence_U,2023.2.3,Win32,59.88023952094243,,,,,,1319.4970999999998,48,5,1319.497299999999,48,,,,1323.0959000000005,1323.5962000000013,1322.5794999999982,1323.095799999999,1320.513299999999,1322.5794999999982,1323.5962000000013,1324.0954999999983,1324.0954999999983,1328.2949000000006,643,1328.2950999999998,1,1328.2950999999998,5,14,164,11,1,1,0.3,Time
,,457570,001,男,21,2025-06-03_15h14.14.988,Serial_Dependence_U,2023.2.3,Win32,59.88023952094243,,,,,,1328.2954000000004,142,5,1328.2954999999984,142,,,,1332.2784999999983,1332.7774999999983,1331.7780999999998,1332.2784999999983,1329.3129000000006,1331.7779999999982,1332.7774999999983,1333.2774000000004,1333.2774999999983,1342.8259999999982,578,1342.8260999999998,1,1342.8262000000013,5,15,165,13,1,1.4,0.3,Time
,,457570,001,男,21,2025-06-03_15h14.14.988,Serial_Dependence_U,2023.2.3,Win32,59.88023952094243,,,,,,1342.8264999999983,353,5,1342.8265999999999,353,,,,1346.3920999999998,1346.8920999999998,1345.8757999999991,1346.3920999999998,1343.8424000000005,1345.8755999999998,1346.8920999999998,1347.3925999999997,1347.3925999999997,1349.0249999999983,561,1349.0249999999983,1,1349.0252000000012,5,16,166,6,1,1,0.7,Time
,,457570,001,男,21,2025-06-03_15h14.14.988,Serial_Dependence_U,2023.2.3,Win32,59.88023952094243,,,,,,1349.0254999999984,315,5,1349.0255999999997,315,,,,1353.0080999999998,1353.507299999999,1352.4914000000006,1353.0079999999982,1350.025799999999,1352.491299999999,1353.5074000000004,1354.007799999999,1354.007799999999,1356.5237000000013,669,1356.5237000000013,1,1356.5239999999983,5,17,167,3,1,1.4,0.3,Time
,,457570,001,男,21,2025-06-03_15h14.14.988,Serial_Dependence_U,2023.2.3,Win32,59.88023952094243,,,,,,1356.524299999999,41,5,1356.5244999999982,41,,,,1360.4764000000005,1360.9729000000004,1359.9745999999998,1360.476299999999,1357.5404000000005,1359.9744000000005,1360.9729999999984,1361.4727000000012,1361.4727000000012,1365.7722000000012,618,1365.772299999999,1,1365.7724999999982,5,18,168,28,1,1.4,0.7,Time
,,457570,001,男,21,2025-06-03_15h14.14.988,Serial_Dependence_U,2023.2.3,Win32,59.88023952094243,,,,,,1365.772799999999,19,5,1365.7729999999983,19,,,,1369.3717000000013,1369.8714999999984,1368.8564999999983,1369.3717000000013,1366.7889999999982,1368.8564999999983,1369.8715999999997,1370.371299999999,1370.3714000000004,1373.4710999999998,684,1373.4710999999998,1,1373.4714000000006,5,19,169,21,1,1,0.3,Time
,,457570,001,男,21,2025-06-03_15h14.14.988,Serial_Dependence_U,2023.2.3,Win32,59.88023952094243,,,,,,1373.4717000000012,145,5,1373.4719999999982,145,,,,1377.6705999999997,1378.1700999999998,1377.1542000000013,1377.6704999999984,1374.4875999999997,1377.1539999999982,1378.1700999999998,1378.6709000000005,1378.6709000000005,1381.0382000000013,603,1381.038299999999,1,1381.0384999999983,5,20,170,4,1,1.6,0.3,Time
,,457570,001,男,21,2025-06-03_15h14.14.988,Serial_Dependence_U,2023.2.3,Win32,59.88023952094243,,,,,,1381.0387000000012,355,5,1381.038799999999,355,,,,1385.2199000000005,1385.718799999999,1384.719299999999,1385.2199000000005,1382.0530999999999,1384.7192000000011,1385.718799999999,1386.2194999999983,1386.2194999999983,1392.0179999999982,624,1392.0180999999998,1,1392.018299999999,5,21,171,14,1,1.6,0.3,Time
,,457570,001,男,21,2025-06-03_15h14.14.988,Serial_Dependence_U,2023.2.3,Win32,59.88023952094243,,,,,,1392.0187000000012,56,5,1392.0189000000005,56,,,,1395.4177000000013,1395.9170999999997,1394.9014999999984,1395.4177000000013,1393.0354999999984,1394.9014999999984,1395.9172000000012,1396.417299999999,1396.417299999999,1400.0339999999983,611,1400.0340999999999,2,1400.0342999999991,5,22,172,0,1,0.8,0.3,Time
,,457570,001,男,21,2025-06-03_15h14.14.988,Serial_Dependence_U,2023.2.3,Win32,59.88023952094243,,,,,,1400.0344999999982,170,5,1400.0347000000013,170,,,,1403.632799999999,1404.1325999999997,1403.1164999999983,1403.6325999999997,1401.0499000000004,1403.1164000000006,1404.1327000000013,1404.6325999999997,1404.6325999999997,1423.462799999999,664,1423.4629000000004,1,1423.4629999999984,5,23,173,1,1,1,0.3,Time
,,457570,001,男,21,2025-06-03_15h14.14.988,Serial_Dependence_U,2023.2.3,Win32,59.88023952094243,,,,,,1423.463299999999,311,5,1423.4634999999982,311,,,,1427.4289999999983,1427.9287000000013,1426.9124999999983,1427.4289000000006,1424.4804000000006,1426.9124000000006,1427.9287000000013,1428.4285999999997,1428.4287000000013,1442.026799999999,625,1442.026799999999,1,1442.0269999999982,5,24,174,18,1,1.4,0.7,Time
,,457570,001,男,21,2025-06-03_15h14.14.988,Serial_Dependence_U,2023.2.3,Win32,59.88023952094243,,,,,,1442.0275999999997,171,5,1442.027799999999,171,,,,1446.0095999999999,1446.5089000000005,1445.4929000000004,1446.0095999999999,1443.0269000000005,1445.492799999999,1446.5089999999982,1447.0090999999998,1447.0090999999998,1450.741799999999,541,1450.7419000000004,1,1450.742299999999,5,25,175,23,1,1.4,0.3,Time
,,457570,001,男,21,2025-06-03_15h14.14.988,Serial_Dependence_U,2023.2.3,Win32,59.88023952094243,,,,,,1450.7425999999998,250,5,1450.742799999999,250,,,,1454.5424000000005,1455.0422000000012,1454.0255999999997,1454.542299999999,1451.7584000000004,1454.0254999999984,1455.0422000000012,1455.5409000000004,1455.5409000000004,1456.5239999999983,571,1456.5240999999999,1,1456.524299999999,5,26,176,22,1,1.2,0.3,Time
,,457570,001,男,21,2025-06-03_15h14.14.988,Serial_Dependence_U,2023.2.3,Win32,59.88023952094243,,,,,,1456.5244999999982,209,5,1456.5247000000013,209,,,,1460.4904000000006,1460.990299999999,1459.9742000000012,1460.490299999999,1457.5407000000012,1459.9740999999997,1460.990299999999,1461.489799999999,1461.489799999999,1462.5412000000013,632,1462.5412000000013,1,1462.5417000000014,5,27,177,8,1,1.4,0.7,Time
,,457570,001,男,21,2025-06-03_15h14.14.988,Serial_Dependence_U,2023.2.3,Win32,59.88023952094243,,,,,,1462.5419000000004,205,5,1462.5422000000012,205,,,,1466.7394000000006,1467.2392000000013,1466.2227000000012,1466.739299999999,1463.5565999999997,1466.2225999999998,1467.2392000000013,1467.738799999999,1467.738799999999,1468.623299999999,533,1468.623299999999,1,1468.6234999999983,5,28,178,24,1,1.6,0.3,Time
,,457570,001,男,21,2025-06-03_15h14.14.988,Serial_Dependence_U,2023.2.3,Win32,59.88023952094243,,,,,,1468.6235999999997,293,5,1468.623799999999,293,,,,1472.7884000000006,1473.2882000000013,1472.271799999999,1472.7884000000006,1469.6390999999999,1472.271799999999,1473.2882000000013,1473.787799999999,1473.787799999999,1475.5044999999982,685,1475.5045999999998,1,1475.504799999999,5,29,179,29,1,1.6,0.7,Time
,,457570,001,男,21,2025-06-03_15h14.14.988,Serial_Dependence_U,2023.2.3,Win32,59.88023952094243,,,,,,1475.5052000000012,219,6,1477.188799999999,219,s,1.669200000003002,,1480.9544999999982,1481.4534999999983,1480.4409999999982,1480.9544999999982,1478.2042000000013,1480.440799999999,1481.4535999999998,1481.9542000000013,1481.9542000000013,1491.8684000000005,570,1491.8684000000005,1,1491.8685999999998,6,0,180,17,1,1.2,0.7,Time
,,457570,001,男,21,2025-06-03_15h14.14.988,Serial_Dependence_U,2023.2.3,Win32,59.88023952094243,,,,,,1491.868799999999,222,6,1491.869799999999,222,,,,1495.6680999999999,1496.1677000000013,1495.1519999999982,1495.6679999999983,1492.8850999999997,1495.1519000000005,1496.1677000000013,1496.6675999999998,1496.6677000000013,1501.1337000000012,664,1501.1337000000012,1,1501.1340999999998,6,1,181,2,1,1.2,0.3,Time
,,457570,001,男,21,2025-06-03_15h14.14.988,Serial_Dependence_U,2023.2.3,Win32,59.88023952094243,,,,,,1501.1344999999983,276,6,1501.1349000000005,276,,,,1504.483299999999,1504.982799999999,1503.9665999999997,1504.483299999999,1502.1349999999982,1503.9664000000005,1504.982799999999,1505.484299999999,1505.484299999999,1506.5494000000006,567,1506.5494000000006,2,1506.5495999999998,6,2,182,15,1,0.8,0.7,Time
,,457570,001,男,21,2025-06-03_15h14.14.988,Serial_Dependence_U,2023.2.3,Win32,59.88023952094243,,,,,,1506.549799999999,317,6,1506.5499999999984,317,,,,1510.6989999999983,1511.1984999999984,1510.1824999999983,1510.6989000000005,1507.5502000000013,1510.1824999999983,1511.1984999999984,1511.698299999999,1511.6984000000004,1514.064799999999,649,1514.0649999999982,1,1514.065299999999,6,3,183,9,1,1.6,0.7,Time
,,457570,001,男,21,2025-06-03_15h14.14.988,Serial_Dependence_U,2023.2.3,Win32,59.88023952094243,,,,,,1514.0655999999997,34,6,1514.0659000000005,34,,,,1517.6647000000012,1518.1639999999982,1517.1479999999983,1517.6647000000012,1515.0824999999982,1517.1479000000004,1518.1639999999982,1518.6639000000005,1518.6639000000005,1520.4137000000012,613,1520.413799999999,1,1520.4139999999982,6,4,184,11,1,1,0.3,Time
,,457570,001,男,21,2025-06-03_15h14.14.988,Serial_Dependence_U,2023.2.3,Win32,59.88023952094243,,,,,,1520.414299999999,13,6,1520.4144999999983,13,,,,1524.6135999999997,1525.1129000000005,1524.0972000000013,1524.6134999999983,1521.4304999999983,1524.0970999999997,1525.1129000000005,1525.6140999999998,1525.6140999999998,1526.5307000000012,567,1526.5307000000012,1,1526.5309000000004,6,5,185,24,1,1.6,0.3,Time
,,457570,001,男,21,2025-06-03_15h14.14.988,Serial_Dependence_U,2023.2.3,Win32,59.88023952094243,,,,,,1526.5310999999997,10,6,1526.5312000000013,10,,,,1530.512299999999,1531.0119000000004,1529.9959999999983,1530.512299999999,1527.5295999999998,1529.9959000000006,1531.0119000000004,1531.5129000000004,1531.5129000000004,1532.528799999999,609,1532.528799999999,1,1532.5292000000013,6,6,186,3,1,1.4,0.3,Time
,,457570,001,男,21,2025-06-03_15h14.14.988,Serial_Dependence_U,2023.2.3,Win32,59.88023952094243,,,,,,1532.5295999999998,79,6,1532.5297000000012,79,,,,1536.0619000000006,1536.5609999999983,1535.5615999999998,1536.0619000000006,1533.5299000000005,1535.5614999999982,1536.5610999999997,1537.060799999999,1537.0609000000004,1538.110799999999,611,1538.110799999999,1,1538.1109999999983,6,7,187,26,1,1,0.7,Time
,,457570,001,男,21,2025-06-03_15h14.14.988,Serial_Dependence_U,2023.2.3,Win32,59.88023952094243,,,,,,1538.1112000000012,61,6,1538.1114000000005,61,,,,1542.2605999999998,1542.7599000000005,1541.7439999999983,1542.2604999999983,1539.1109999999983,1541.7439000000004,1542.7599000000005,1543.2600999999997,1543.2600999999997,1544.343299999999,682,1544.3434000000004,1,1544.3435999999997,6,8,188,29,1,1.6,0.7,Time
,,457570,001,男,21,2025-06-03_15h14.14.988,Serial_Dependence_U,2023.2.3,Win32,59.88023952094243,,,,,,1544.3439000000005,173,6,1544.3440999999998,173,,,,1547.742799999999,1548.2424999999982,1547.226299999999,1547.7427000000012,1545.3599000000006,1547.2262000000012,1548.2424999999982,1548.742299999999,1548.7424000000005,1550.4604999999983,584,1550.4605999999997,2,1550.460799999999,6,9,189,20,1,0.8,0.3,Time
,,457570,001,男,21,2025-06-03_15h14.14.988,Serial_Dependence_U,2023.2.3,Win32,59.88023952094243,,,,,,1550.4609999999982,118,6,1550.461299999999,118,,,,1554.0589999999984,1554.558299999999,1553.5417000000014,1554.058799999999,1551.4755999999998,1553.5417000000014,1554.558299999999,1555.0579999999982,1555.0579999999982,1556.6419000000005,617,1556.6419000000005,1,1556.6420999999998,6,10,190,21,1,1,0.3,Time
,,457570,001,男,21,2025-06-03_15h14.14.988,Serial_Dependence_U,2023.2.3,Win32,59.88023952094243,,,,,,1556.6424000000004,294,6,1556.6425999999997,294,,,,1560.6407000000013,1561.1404000000005,1560.1240999999998,1560.6405999999997,1557.6579999999983,1560.1239999999982,1561.1404999999982,1561.6412000000012,1561.6412000000012,1563.0409999999983,623,1563.0409999999983,1,1563.0412000000013,6,11,191,13,1,1.4,0.3,Time
,,457570,001,男,21,2025-06-03_15h14.14.988,Serial_Dependence_U,2023.2.3,Win32,59.88023952094243,,,,,,1563.0414000000005,117,6,1563.0415999999998,117,,,,1566.4232000000013,1566.922799999999,1565.9070999999997,1566.4232000000013,1564.0407000000012,1565.9069999999983,1566.922799999999,1567.4227000000012,1567.4227000000012,1570.4392000000012,577,1570.4392000000012,2,1570.4394999999984,6,12,192,10,1,0.8,0.3,Time
,,457570,001,男,21,2025-06-03_15h14.14.988,Serial_Dependence_U,2023.2.3,Win32,59.88023952094243,,,,,,1570.4395999999997,218,6,1570.4397000000013,218,,,,1574.2385999999997,1574.738299999999,1573.7219000000005,1574.2384999999983,1571.4567000000013,1573.7219000000005,1574.738299999999,1575.2379999999982,1575.2380999999998,1576.2054999999982,596,1576.2054999999982,1,1576.2059000000006,6,13,193,12,1,1.2,0.3,Time
,,457570,001,男,21,2025-06-03_15h14.14.988,Serial_Dependence_U,2023.2.3,Win32,59.88023952094243,,,,,,1576.2062000000012,127,6,1576.2064000000005,127,,,,1580.1709999999982,1580.6714000000004,1579.6550999999997,1580.1709000000005,1577.221299999999,1579.6549999999984,1580.6714000000004,1581.1704000000004,1581.1704000000004,1584.7699999999982,562,1584.7700999999997,1,1584.770299999999,6,14,194,8,1,1.4,0.7,Time
,,457570,001,男,21,2025-06-03_15h14.14.988,Serial_Dependence_U,2023.2.3,Win32,59.88023952094243,,,,,,1584.7704999999983,126,6,1584.7707000000012,126,,,,1588.536299999999,1589.0365999999997,1588.0200999999997,1588.5360999999998,1585.7864999999983,1588.0199999999982,1589.0365999999997,1589.535799999999,1589.535799999999,1610.133299999999,686,1610.133299999999,1,1610.1334999999983,6,15,195,7,1,1.2,0.7,Time
,,457570,001,男,21,2025-06-03_15h14.14.988,Serial_Dependence_U,2023.2.3,Win32,59.88023952094243,,,,,,1610.1337000000012,350,6,1610.1339000000005,350,,,,1613.9164000000005,1614.4149999999984,1613.415799999999,1613.916299999999,1611.1490999999999,1613.4157000000012,1614.4150999999997,1614.9149999999984,1614.9150999999997,1617.716299999999,628,1617.7164000000005,1,1617.7164999999982,6,16,196,22,1,1.2,0.3,Time
,,457570,001,男,21,2025-06-03_15h14.14.988,Serial_Dependence_U,2023.2.3,Win32,59.88023952094243,,,,,,1617.716799999999,310,6,1617.7169999999983,310,,,,1621.6809000000005,1622.1804000000004,1621.1649999999984,1621.680799999999,1618.731299999999,1621.1649000000004,1622.1804000000004,1622.6804999999983,1622.6804999999983,1624.0642000000012,678,1624.0642000000012,1,1624.0644000000004,6,17,197,28,1,1.4,0.7,Time
,,457570,001,男,21,2025-06-03_15h14.14.988,Serial_Dependence_U,2023.2.3,Win32,59.88023952094243,,,,,,1624.064799999999,109,6,1624.0649999999982,109,,,,1628.0632999999991,1628.5627000000013,1627.5464999999983,1628.0632000000012,1625.0812000000012,1627.5464000000004,1628.562799999999,1629.062799999999,1629.062799999999,1630.2127000000012,574,1630.2127000000012,1,1630.2129000000004,6,18,198,23,1,1.4,0.3,Time
,,457570,001,男,21,2025-06-03_15h14.14.988,Serial_Dependence_U,2023.2.3,Win32,59.88023952094243,,,,,,1630.2132000000013,62,6,1630.213299999999,62,,,,1633.5810999999997,1634.0800999999997,1633.0637000000013,1633.5809999999983,1631.2292000000014,1633.0634999999982,1634.0802000000012,1634.5794999999982,1634.5794999999982,1637.1455999999998,669,1637.1455999999998,2,1637.145799999999,6,19,199,5,1,0.8,0.7,Time
,,457570,001,男,21,2025-06-03_15h14.14.988,Serial_Dependence_U,2023.2.3,Win32,59.88023952094243,,,,,,1637.1462000000013,179,6,1637.1464000000005,179,,,,1640.894299999999,1641.3939999999982,1640.3780999999997,1640.894299999999,1638.1462000000013,1640.3780999999997,1641.3939999999982,1641.8939000000005,1641.8939000000005,1644.9602000000014,707,1644.960299999999,1,1644.9605999999997,6,20,200,27,1,1.2,0.7,Time
,,457570,001,男,21,2025-06-03_15h14.14.988,Serial_Dependence_U,2023.2.3,Win32,59.88023952094243,,,,,,1644.960799999999,38,6,1644.9609999999982,38,,,,1649.1595999999997,1649.6604999999984,1648.643299999999,1649.1594999999982,1645.976799999999,1648.643299999999,1649.6605999999997,1650.1595999999997,1650.1595999999997,1664.8070999999998,678,1664.8070999999998,1,1664.8074000000006,6,21,201,4,1,1.6,0.3,Time
,,457570,001,男,21,2025-06-03_15h14.14.988,Serial_Dependence_U,2023.2.3,Win32,59.88023952094243,,,,,,1664.8077000000012,326,6,1664.8079000000005,326,,,,1668.7729999999983,1669.2729000000004,1668.2565999999997,1668.7729999999983,1665.8235999999997,1668.2565999999997,1669.2729000000004,1669.7727000000014,1669.772799999999,1671.022799999999,643,1671.0229000000004,1,1671.0230999999997,6,22,202,18,1,1.4,0.7,Time
,,457570,001,男,21,2025-06-03_15h14.14.988,Serial_Dependence_U,2023.2.3,Win32,59.88023952094243,,,,,,1671.023299999999,219,6,1671.0234999999982,219,,,,1674.405799999999,1674.9057000000012,1673.8890999999999,1674.4057000000012,1672.0229999999983,1673.8889999999983,1674.9057000000012,1675.405299999999,1675.405299999999,1679.4382000000012,667,1679.4382999999991,2,1679.4384999999982,6,23,203,0,1,0.8,0.3,Time
,,457570,001,男,21,2025-06-03_15h14.14.988,Serial_Dependence_U,2023.2.3,Win32,59.88023952094243,,,,,,1679.438799999999,51,6,1679.4389999999983,51,,,,1683.637799999999,1684.1369999999984,1683.1209999999983,1683.637799999999,1680.4549000000004,1683.1209000000006,1684.1370999999997,1684.6377000000014,1684.6377000000014,1687.4699999999982,734,1687.4700999999998,1,1687.470299999999,6,24,204,14,1,1.6,0.3,Time
,,457570,001,男,21,2025-06-03_15h14.14.988,Serial_Dependence_U,2023.2.3,Win32,59.88023952094243,,,,,,1687.4704000000006,319,6,1687.4704999999983,319,,,,1691.053799999999,1691.5524000000005,1690.5529000000006,1691.0537000000013,1688.4867000000013,1690.552799999999,1691.5524999999982,1692.0524999999982,1692.0524999999982,1697.0189000000005,644,1697.0189000000005,1,1697.0190999999998,6,25,205,1,1,1,0.3,Time
,,457570,001,男,21,2025-06-03_15h14.14.988,Serial_Dependence_U,2023.2.3,Win32,59.88023952094243,,,,,,1697.0194000000006,306,6,1697.0194999999983,306,,,,1700.5679000000005,1701.068299999999,1700.0514999999982,1700.5677999999991,1698.019299999999,1700.0514000000005,1701.068299999999,1701.5675999999999,1701.5675999999999,1705.133799999999,692,1705.133799999999,1,1705.1339999999982,6,26,206,6,1,1,0.7,Time
,,457570,001,男,21,2025-06-03_15h14.14.988,Serial_Dependence_U,2023.2.3,Win32,59.88023952094243,,,,,,1705.134299999999,0,6,1705.1344999999983,0,,,,1708.6999999999982,1709.1997000000013,1708.1847000000012,1708.6999999999982,1706.1514000000004,1708.1847000000012,1709.1997000000013,1709.7007000000012,1709.7007000000012,1713.9657000000013,638,1713.9657000000013,1,1713.965799999999,6,27,207,16,1,1,0.7,Time
,,457570,001,男,21,2025-06-03_15h14.14.988,Serial_Dependence_U,2023.2.3,Win32,59.88023952094243,,,,,,1713.9660999999999,300,6,1713.9662000000012,300,,,,1717.3319999999983,1717.8317000000013,1716.8154000000004,1717.3319000000006,1714.9824000000006,1716.8154000000004,1717.8317000000013,1718.3324000000005,1718.3324000000005,1720.5979999999984,745,1720.5980999999997,2,1720.5984000000005,6,28,208,25,1,0.8,0.7,Time
,,457570,001,男,21,2025-06-03_15h14.14.988,Serial_Dependence_U,2023.2.3,Win32,59.88023952094243,,,,,,1720.5985999999998,157,6,1720.5989000000004,157,,,,1724.765799999999,1725.2639000000006,1724.2499000000005,1724.7657000000013,1721.6157999999991,1724.249799999999,1725.2639000000006,1725.7652000000012,1725.7652999999991,1726.9644999999982,626,1726.9645999999998,1,1726.9649000000004,6,29,209,19,1,1.6,0.7,Time
,,457570,001,男,21,2025-06-03_15h14.14.988,Serial_Dependence_U,2023.2.3,Win32,59.88023952094243,,,,,,1726.9652000000012,33,7,1728.246799999999,33,s,1.2714000000023589,,1731.9969999999983,1732.4959000000006,1731.4819999999984,1731.9969000000006,1729.2474999999984,1731.4819000000005,1732.4959999999983,1732.996799999999,1732.9969000000006,1734.0624999999982,730,1734.0625999999997,1,1734.062799999999,7,0,210,27,1,1.2,0.7,Time
,,457570,001,男,21,2025-06-03_15h14.14.988,Serial_Dependence_U,2023.2.3,Win32,59.88023952094243,,,,,,1734.0632000000012,350,7,1734.0650999999998,350,,,,1737.845299999999,1738.3450999999998,1737.3289000000004,1737.845299999999,1735.0632000000012,1737.328799999999,1738.3450999999998,1738.844799999999,1738.8449000000005,1739.8615999999997,619,1739.861799999999,1,1739.8619999999983,7,1,211,22,1,1.2,0.3,Time
,,457570,001,男,21,2025-06-03_15h14.14.988,Serial_Dependence_U,2023.2.3,Win32,59.88023952094243,,,,,,1739.862299999999,309,7,1739.8625999999997,309,,,,1743.8445999999997,1744.3439999999982,1743.3279000000005,1743.8444999999983,1740.8812000000012,1743.3277000000012,1744.3439999999982,1744.843799999999,1744.843799999999,1745.9449000000004,730,1745.9449999999983,1,1745.9452000000013,7,2,212,18,1,1.4,0.7,Time
,,457570,001,男,21,2025-06-03_15h14.14.988,Serial_Dependence_U,2023.2.3,Win32,59.88023952094243,,,,,,1745.9454999999982,163,7,1745.9457000000014,163,,,,1749.3100999999997,1749.809799999999,1748.7935999999997,1749.3100999999997,1746.9610999999998,1748.7934999999982,1749.809799999999,1750.3095999999998,1750.3097000000012,1751.5264000000004,720,1751.5264999999984,2,1751.526799999999,7,3,213,5,1,0.8,0.7,Time
,,457570,001,男,21,2025-06-03_15h14.14.988,Serial_Dependence_U,2023.2.3,Win32,59.88023952094243,,,,,,1751.5272000000014,349,7,1751.527299999999,349,,,,1755.525799999999,1756.0255999999997,1755.0094000000006,1755.5257000000013,1752.5429999999983,1755.009299999999,1756.0255999999997,1756.525299999999,1756.525299999999,1757.5419000000004,622,1757.5419000000004,1,1757.5422000000012,7,4,214,23,1,1.4,0.3,Time
,,457570,001,男,21,2025-06-03_15h14.14.988,Serial_Dependence_U,2023.2.3,Win32,59.88023952094243,,,,,,1757.5425999999998,353,7,1757.542799999999,353,,,,1761.7414000000006,1762.2424000000005,1761.224799999999,1761.741299999999,1758.5584999999983,1761.2247000000013,1762.2424999999982,1762.7409999999982,1762.7409999999982,1763.8075999999999,687,1763.8077000000012,1,1763.8079000000005,7,5,215,14,1,1.6,0.3,Time
,,457570,001,男,21,2025-06-03_15h14.14.988,Serial_Dependence_U,2023.2.3,Win32,59.88023952094243,,,,,,1763.8082000000013,49,7,1763.8084000000006,49,,,,1767.4079999999983,1767.9072000000012,1766.8904999999982,1767.4079000000006,1764.8242000000012,1766.8904999999982,1767.9072000000012,1768.4079999999983,1768.4079999999983,1769.607799999999,737,1769.6079000000004,2,1769.6079999999984,7,6,216,1,1,1,0.3,Time
,,457570,001,男,21,2025-06-03_15h14.14.988,Serial_Dependence_U,2023.2.3,Win32,59.88023952094243,,,,,,1769.608299999999,208,7,1769.6084999999982,208,,,,1773.391799999999,1773.889299999999,1772.889799999999,1773.3917000000013,1770.6234999999983,1772.8897000000013,1773.889299999999,1774.3892000000012,1774.389299999999,1776.8399999999983,667,1776.8399999999983,1,1776.840299999999,7,7,217,12,1,1.2,0.3,Time
,,457570,001,男,21,2025-06-03_15h14.14.988,Serial_Dependence_U,2023.2.3,Win32,59.88023952094243,,,,,,1776.8404999999982,186,7,1776.840799999999,186,,,,1781.0385999999999,1781.5379000000005,1780.5219999999983,1781.0384999999983,1777.8554000000006,1780.5219000000004,1781.5379000000005,1782.0387000000012,1782.0387000000012,1784.8054999999983,881,1784.8054999999983,1,1784.805799999999,7,8,218,4,1,1.6,0.3,Time
,,457570,001,男,21,2025-06-03_15h14.14.988,Serial_Dependence_U,2023.2.3,Win32,59.88023952094243,,,,,,1784.8060999999998,72,7,1784.806299999999,72,,,,1788.3705999999997,1788.8699999999983,1787.8539000000005,1788.3704999999982,1785.8207000000014,1787.8539000000005,1788.8699999999983,1789.3699999999983,1789.3699999999983,1791.186799999999,593,1791.1869000000006,1,1791.1872000000012,7,9,219,26,1,1,0.7,Time
,,457570,001,男,21,2025-06-03_15h14.14.988,Serial_Dependence_U,2023.2.3,Win32,59.88023952094243,,,,,,1791.1874000000005,198,7,1791.1875999999997,198,,,,1794.752799999999,1795.2534999999982,1794.2360999999999,1794.7527000000011,1792.2032000000013,1794.2360999999999,1795.2534999999982,1795.7539999999983,1795.7539999999983,1798.4854000000005,513,1798.4855999999997,1,1798.4859000000006,7,10,220,6,1,1,0.7,Time
,,457570,001,男,21,2025-06-03_15h14.14.988,Serial_Dependence_U,2023.2.3,Win32,59.88023952094243,,,,,,1798.4862000000012,9,7,1798.4864000000005,9,,,,1802.0519999999983,1802.5510999999997,1801.5349000000006,1802.0519000000006,1799.5019999999984,1801.5349000000006,1802.5510999999997,1803.0519000000006,1803.0519999999983,1804.5510999999997,575,1804.5510999999997,1,1804.5514000000005,7,11,221,16,1,1,0.7,Time
,,457570,001,男,21,2025-06-03_15h14.14.988,Serial_Dependence_U,2023.2.3,Win32,59.88023952094243,,,,,,1804.5517000000013,282,7,1804.5519000000006,282,,,,1808.3017000000013,1808.8000999999997,1807.8004999999982,1808.3017000000013,1805.5674999999983,1807.8004000000005,1808.8000999999997,1809.3000999999997,1809.3000999999997,1812.9664000000005,650,1812.9664999999982,1,1812.966799999999,7,12,222,7,1,1.2,0.7,Time
,,457570,001,男,21,2025-06-03_15h14.14.988,Serial_Dependence_U,2023.2.3,Win32,59.88023952094243,,,,,,1812.9670999999998,346,7,1812.967299999999,346,,,,1816.318799999999,1816.8164000000006,1815.8160999999998,1816.318799999999,1813.9839000000004,1815.8160999999998,1816.8164999999983,1817.3154000000004,1817.3154999999983,1819.6319000000005,588,1819.6319999999982,2,1819.6322000000011,7,13,223,25,1,0.8,0.7,Time
,,457570,001,男,21,2025-06-03_15h14.14.988,Serial_Dependence_U,2023.2.3,Win32,59.88023952094243,,,,,,1819.6325999999997,232,7,1819.632799999999,232,,,,1823.6314999999984,1824.1309000000006,1823.114799999999,1823.6314000000004,1820.6484000000005,1823.1147000000012,1824.1309999999983,1824.6324000000004,1824.6324000000004,1826.6807000000013,580,1826.680799999999,1,1826.6810999999998,7,14,224,3,1,1.4,0.3,Time
,,457570,001,男,21,2025-06-03_15h14.14.988,Serial_Dependence_U,2023.2.3,Win32,59.88023952094243,,,,,,1826.6814000000004,171,7,1826.6814999999983,171,,,,1830.280299999999,1830.779799999999,1829.7645999999997,1830.280299999999,1827.6974000000005,1829.7645999999997,1830.7799000000005,1831.2809000000004,1831.2809000000004,1837.5455999999997,607,1837.5455999999997,1,1837.545799999999,7,15,225,21,1,1,0.3,Time
,,457570,001,男,21,2025-06-03_15h14.14.988,Serial_Dependence_U,2023.2.3,Win32,59.88023952094243,,,,,,1837.5460999999998,62,7,1837.546299999999,62,,,,1841.311799999999,1841.8114000000005,1840.7952000000012,1841.311799999999,1838.5620999999996,1840.7950999999998,1841.8114000000005,1842.3132000000012,1842.3132999999991,1845.5110999999997,602,1845.5112000000013,1,1845.5114000000005,7,16,226,17,1,1.2,0.7,Time
,,457570,001,男,21,2025-06-03_15h14.14.988,Serial_Dependence_U,2023.2.3,Win32,59.88023952094243,,,,,,1845.5115999999998,311,7,1845.511799999999,311,,,,1848.8939000000005,1849.3934999999983,1848.3774999999982,1848.8939000000005,1846.5115999999998,1848.3774999999982,1849.3934999999983,1849.8934999999983,1849.8934999999983,1862.9749000000006,601,1862.9749999999983,2,1862.975299999999,7,17,227,20,1,0.8,0.3,Time
,,457570,001,男,21,2025-06-03_15h14.14.988,Serial_Dependence_U,2023.2.3,Win32,59.88023952094243,,,,,,1862.9757000000013,309,7,1862.9759000000006,309,,,,1866.341799999999,1866.8409999999983,1865.8245999999997,1866.341799999999,1863.9914999999983,1865.8244999999984,1866.8409999999983,1867.3422000000012,1867.342299999999,1875.2729000000004,663,1875.2729999999983,2,1875.2732000000012,7,18,228,15,1,0.8,0.7,Time
,,457570,001,男,21,2025-06-03_15h14.14.988,Serial_Dependence_U,2023.2.3,Win32,59.88023952094243,,,,,,1875.2734999999982,136,7,1875.273799999999,136,,,,1879.239799999999,1879.7399000000005,1878.722299999999,1879.2397000000012,1876.2894000000006,1878.722299999999,1879.7399000000005,1880.2399000000005,1880.2399000000005,1887.5042000000012,670,1887.504299999999,1,1887.5044999999982,7,19,229,28,1,1.4,0.7,Time
,,457570,001,男,21,2025-06-03_15h14.14.988,Serial_Dependence_U,2023.2.3,Win32,59.88023952094243,,,,,,1887.5049000000006,66,7,1887.5050999999999,66,,,,1890.8874999999982,1891.3867000000012,1890.3870999999997,1890.8874999999982,1888.520799999999,1890.3869999999984,1891.3867000000012,1891.8867000000012,1891.8867000000012,1898.9189999999983,753,1898.9189999999983,2,1898.919299999999,7,20,230,10,1,0.8,0.3,Time
,,457570,001,男,21,2025-06-03_15h14.14.988,Serial_Dependence_U,2023.2.3,Win32,59.88023952094243,,,,,,1898.9194999999984,252,7,1898.9197000000013,252,,,,1902.318799999999,1902.8199000000004,1901.8020999999997,1902.3185999999998,1899.9365999999998,1901.8019000000006,1902.8199999999983,1903.318299999999,1903.318299999999,1921.215299999999,546,1921.2154000000005,1,1921.2155999999998,7,21,231,0,1,0.8,0.3,Time
,,457570,001,男,21,2025-06-03_15h14.14.988,Serial_Dependence_U,2023.2.3,Win32,59.88023952094243,,,,,,1921.2159000000006,311,7,1921.2160999999999,311,,,,1925.015799999999,1925.5144999999982,1924.4984999999983,1925.015799999999,1922.2319000000005,1924.4984000000004,1925.5145999999997,1926.0144999999982,1926.0144999999982,1927.247799999999,675,1927.2479000000005,1,1927.2479999999982,7,22,232,2,1,1.2,0.3,Time
,,457570,001,男,21,2025-06-03_15h14.14.988,Serial_Dependence_U,2023.2.3,Win32,59.88023952094243,,,,,,1927.2482000000014,232,7,1927.2484999999983,232,,,,1931.4139999999982,1931.9134999999983,1930.8974999999982,1931.4139000000005,1928.2644000000005,1930.8974000000005,1931.9135999999999,1932.4134000000006,1932.4134999999983,1938.0127000000014,658,1938.012799999999,1,1938.0129999999983,7,23,233,19,1,1.6,0.7,Time
,,457570,001,男,21,2025-06-03_15h14.14.988,Serial_Dependence_U,2023.2.3,Win32,59.88023952094243,,,,,,1938.013299999999,21,7,1938.0134000000005,21,,,,1942.1634999999983,1942.663299999999,1941.6622000000013,1942.1634999999983,1939.0292000000013,1941.6622000000013,1942.663299999999,1943.161799999999,1943.161799999999,1944.228299999999,671,1944.2284000000004,1,1944.2284999999983,7,24,234,29,1,1.6,0.7,Time
,,457570,001,男,21,2025-06-03_15h14.14.988,Serial_Dependence_U,2023.2.3,Win32,59.88023952094243,,,,,,1944.228799999999,323,7,1944.2290999999998,323,,,,1948.427799999999,1948.9274000000005,1947.9112000000011,1948.4275999999998,1945.2449000000006,1947.9110999999998,1948.9274000000005,1949.4274000000005,1949.4274000000005,1955.7264999999982,661,1955.7264999999982,1,1955.726799999999,7,25,235,24,1,1.6,0.3,Time
,,457570,001,男,21,2025-06-03_15h14.14.988,Serial_Dependence_U,2023.2.3,Win32,59.88023952094243,,,,,,1955.7269999999983,311,7,1955.727299999999,311,,,,1959.3259999999982,1959.8255999999997,1958.8097000000012,1959.3259000000005,1956.7430999999997,1958.8095999999998,1959.8255999999997,1960.3259999999982,1960.3259999999982,1963.475299999999,589,1963.4754000000005,1,1963.4755999999998,7,26,236,11,1,1,0.3,Time
,,457570,001,男,21,2025-06-03_15h14.14.988,Serial_Dependence_U,2023.2.3,Win32,59.88023952094243,,,,,,1963.4759000000006,189,7,1963.4760999999999,189,,,,1967.4262000000012,1967.9254000000005,1966.9245999999998,1967.4262000000012,1964.491799999999,1966.9245999999998,1967.9254000000005,1968.424299999999,1968.4244000000006,1971.9072000000012,711,1971.9072000000012,1,1971.9074000000005,7,27,237,8,1,1.4,0.7,Time
,,457570,001,男,21,2025-06-03_15h14.14.988,Serial_Dependence_U,2023.2.3,Win32,59.88023952094243,,,,,,1971.9075999999998,98,7,1971.907799999999,98,,,,1975.9067000000011,1976.4074000000005,1975.3900999999998,1975.9064999999982,1972.9239000000005,1975.3899999999983,1976.4074000000005,1976.9062000000013,1976.9062000000013,1977.872799999999,590,1977.872799999999,1,1977.8730999999998,7,28,238,13,1,1.4,0.3,Time
,,457570,001,男,21,2025-06-03_15h14.14.988,Serial_Dependence_U,2023.2.3,Win32,59.88023952094243,,,,,,1977.8732000000014,185,7,1977.8734000000004,185,,,,1982.0405999999998,1982.5399999999984,1981.5232000000012,1982.0404999999982,1978.8894000000005,1981.5229999999983,1982.5402000000013,1983.0384999999983,1983.0385999999999,1987.7215999999999,576,1987.7215999999999,1,1987.7217999999991,7,29,239,9,1,1.6,0.7,Time
,,457570,001,男,21,2025-06-03_15h14.14.988,Serial_Dependence_U,2023.2.3,Win32,59.88023952094243,,,,,,1987.7222000000013,306,8,1990.088299999999,306,s,2.347600000001421,,1993.6884000000005,1994.1882999999991,1993.172299999999,1993.6882999999991,1991.1040999999998,1993.1722000000013,1994.1882999999991,1994.6870999999996,1994.6872000000012,2007.5681,514,2007.5681,1,2007.568299999999,8,0,240,11,1,1,0.3,Time
,,457570,001,男,21,2025-06-03_15h14.14.988,Serial_Dependence_U,2023.2.3,Win32,59.88023952094243,,,,,,2007.5685999999996,104,8,2007.5697999999988,104,,,,2011.5680999999997,2012.067200000001,2011.0509999999979,2011.5679999999982,2008.5847000000012,2011.0509000000004,2012.0672999999986,2012.5670999999995,2012.5670999999995,2015.783200000001,626,2015.783299999999,1,2015.7834000000005,8,1,241,23,1,1.4,0.3,Time
,,457570,001,男,21,2025-06-03_15h14.14.988,Serial_Dependence_U,2023.2.3,Win32,59.88023952094243,,,,,,2015.783700000001,348,8,2015.7837999999986,348,,,,2019.1334000000004,2019.6325999999997,2018.6167000000012,2019.1332999999988,2016.785999999998,2018.6165999999996,2019.6325999999997,2020.1324999999981,2020.1325999999997,2021.2489999999982,622,2021.2489999999982,2,2021.2492000000009,8,2,242,25,1,0.8,0.7,Time
,,457570,001,男,21,2025-06-03_15h14.14.988,Serial_Dependence_U,2023.2.3,Win32,59.88023952094243,,,,,,2021.2494000000004,335,8,2021.2494999999979,335,,,,2025.198700000001,2025.698200000001,2024.682799999999,2025.198700000001,2022.250200000001,2024.682799999999,2025.6982999999989,2026.1980999999994,2026.198200000001,2027.7490999999993,644,2027.7490999999993,1,2027.7494000000004,8,3,243,8,1,1.4,0.7,Time
,,457570,001,男,21,2025-06-03_15h14.14.988,Serial_Dependence_U,2023.2.3,Win32,59.88023952094243,,,,,,2027.7495999999994,40,8,2027.749700000001,40,,,,2031.0989000000002,2031.5972999999988,2030.597700000001,2031.0987999999986,2028.7649000000004,2030.597700000001,2031.5972999999988,2032.098299999999,2032.098299999999,2034.1809,622,2034.1809,2,2034.180999999998,8,4,244,15,1,0.8,0.7,Time
,,457570,001,男,21,2025-06-03_15h14.14.988,Serial_Dependence_U,2023.2.3,Win32,59.88023952094243,,,,,,2034.1812999999986,53,8,2034.181499999998,53,,,,2037.5797999999988,2038.0795999999993,2037.0639000000003,2037.579700000001,2035.1969000000001,2037.0637999999988,2038.079700000001,2038.5794999999982,2038.5794999999982,2039.596200000001,654,2039.596200000001,2,2039.5964000000001,8,5,245,10,1,0.8,0.3,Time
,,457570,001,男,21,2025-06-03_15h14.14.988,Serial_Dependence_U,2023.2.3,Win32,59.88023952094243,,,,,,2039.5967000000012,74,8,2039.5967999999987,74,,,,2043.7957000000008,2044.2952999999986,2043.2797999999987,2043.7955999999997,2040.6129000000003,2043.2797000000012,2044.2952999999986,2044.7965999999994,2044.7965999999994,2046.8449999999982,665,2046.8449999999982,1,2046.8452999999988,8,6,246,14,1,1.6,0.3,Time
