Scale_setup.started,Scale_setup.stopped,participant,session,sex,age,date,expName,psychopyVersion,OS,frameRate,Intro.started,Intro.stopped,key_resp_2.keys,key_resp_2.rt,key_resp_2.duration,block.started,direction,Block_id,block.stopped,trial_direction,Block_resp_2.keys,Block_resp_2.rt,Block_resp_2.duration,ITI.started,ITI.stopped,Mask_2.started,Mask_2.stopped,encoding.started,encoding.stopped,Cue.started,Cue.stopped,Response.started,Response.stopped,keyDuration,Feedback_Time.started,FeedbackID_T,Feedback_Time.stopped,trials.thisRepN,trials.thisTrialN,trials.thisN,trials.thisIndex,trials.ran,TimeDur,Coherence1,TrialType
0.00020000001788389454,0.00030000001192576065,513989,001,女性,25,2025-06-04_10h09.17.693,Serial_Dependence_U,2023.2.3,Win32,93.45794392525906,,,,,,,,,,,,,,,,,,,,,,,,,,,,,,,,,,,
,,513989,001,女性,25,2025-06-04_10h09.17.693,Serial_Dependence_U,2023.2.3,Win32,93.45794392525906,17.645700000017882,347.7265,space,330.05740000000594,,,,,,,,,,,,,,,,,,,,,,,,,,,,,,,
,,513989,001,女性,25,2025-06-04_10h09.17.693,Serial_Dependence_U,2023.2.3,Win32,93.45794392525906,,,,,,347.7318000000119,290,0,351.9171000000238,290,s,4.168999999999983,,355.6895,356.1888000000119,355.18470000001787,355.68940000000595,352.9143000000119,355.1846000000238,356.18890000000596,356.6891000000238,356.68940000000595,366.1861000000238,2378,366.1863000000119,5,367.1785,0,0,0,12,1,1.2,0.3,Time
,,513989,001,女性,25,2025-06-04_10h09.17.693,Serial_Dependence_U,2023.2.3,Win32,93.45794392525906,,,,,,367.1792000000179,245,0,367.1805,245,,,,371.32260000002384,371.82220000001786,370.82020000001785,371.3225,368.1822000000179,370.82010000002384,371.8223000000119,372.32220000001786,372.3224000000059,376.8465,3566,376.8465,5,377.844400000006,0,1,1,19,1,1.6,0.7,Time
,,513989,001,女性,25,2025-06-04_10h09.17.693,Serial_Dependence_U,2023.2.3,Win32,93.45794392525906,,,,,,377.84490000000596,217,0,377.8451000000238,217,,,,382.01170000001787,382.5113000000119,381.50849999999997,382.0115,378.8406000000238,381.50849999999997,382.5113000000119,383.00740000000593,383.00740000000593,385.2851000000238,1956,385.2852000000179,4,386.28460000002383,0,2,2,4,1,1.6,0.3,Time
,,513989,001,女性,25,2025-06-04_10h09.17.693,Serial_Dependence_U,2023.2.3,Win32,93.45794392525906,,,,,,386.2851000000238,326,0,386.2852000000179,326,,,,389.82599999999996,390.3223000000119,389.3186000000238,389.82590000000596,387.2856000000238,389.3185,390.3223000000119,390.817,390.81710000002386,410.286,3467,410.286,5,411.2782000000179,0,3,3,16,1,1,0.7,Time
,,513989,001,女性,25,2025-06-04_10h09.17.693,Serial_Dependence_U,2023.2.3,Win32,93.45794392525906,,,,,,411.27870000001786,118,0,411.279,118,,,,415.44490000000593,415.93940000000595,414.9423000000119,415.44490000000593,412.2781000000238,414.9423000000119,415.93940000000595,416.4333000000119,416.4333000000119,421.0303000000119,4401,421.0303000000119,5,422.0306000000238,0,4,4,24,1,1.6,0.3,Time
,,513989,001,女性,25,2025-06-04_10h09.17.693,Serial_Dependence_U,2023.2.3,Win32,93.45794392525906,,,,,,422.03110000002386,289,0,422.03120000001786,289,,,,425.37890000000596,425.87770000001785,424.8736000000238,425.3788000000119,423.03360000002385,424.8736000000238,425.8778000000119,426.37399999999997,426.37399999999997,451.76420000001787,1134,451.76420000001787,5,452.75640000000595,0,5,5,5,1,0.8,0.7,Time
,,513989,001,女性,25,2025-06-04_10h09.17.693,Serial_Dependence_U,2023.2.3,Win32,93.45794392525906,,,,,,452.7567000000179,47,0,452.75680000001194,47,,,,456.73440000000596,457.23360000002384,456.2298000000119,456.7343000000119,453.7566000000238,456.2297000000179,457.23360000002384,457.7338000000119,457.7338000000119,458.68520000001786,277,458.6853000000119,1,459.678,0,6,6,3,1,1.4,0.3,Time
,,513989,001,女性,25,2025-06-04_10h09.17.693,Serial_Dependence_U,2023.2.3,Win32,93.45794392525906,,,,,,459.6785,172,0,459.67860000002383,172,,,,463.06399999999996,463.55860000002383,462.5517000000179,463.06390000000596,460.68560000002384,462.55140000000597,463.5587000000179,464.0558000000119,464.0559000000059,465.97410000002384,1685,465.97410000002384,5,466.967,0,7,7,20,1,0.8,0.3,Time
,,513989,001,女性,25,2025-06-04_10h09.17.693,Serial_Dependence_U,2023.2.3,Win32,93.45794392525906,,,,,,466.9672000000179,90,0,466.9673000000119,90,,,,470.7301000000238,471.2295,470.2188000000119,470.72999999999996,467.9783000000119,470.21860000002386,471.2295,471.72240000000596,471.72249999999997,473.1929000000059,986,473.193,2,474.1965,0,8,8,7,1,1.2,0.7,Time
,,513989,001,女性,25,2025-06-04_10h09.17.693,Serial_Dependence_U,2023.2.3,Win32,93.45794392525906,,,,,,474.19690000000594,269,0,474.19690000000594,269,,,,477.7783000000119,478.28549999999996,477.2732000000178,477.7783000000119,475.20870000001787,477.2731000000239,478.28549999999996,478.77860000002386,478.7787000000179,479.78570000001787,850,479.78580000001193,2,480.77810000002387,0,9,9,21,1,1,0.3,Time
,,513989,001,女性,25,2025-06-04_10h09.17.693,Serial_Dependence_U,2023.2.3,Win32,93.45794392525906,,,,,,480.77860000002386,198,0,480.7787000000179,198,,,,484.52290000000596,485.02270000001784,484.016400000006,484.5228000000119,481.783,484.01630000001194,485.02270000001784,485.5299000000059,485.53,487.99680000001194,1789,487.99680000001194,5,488.9891000000239,0,10,10,27,1,1.2,0.7,Time
,,513989,001,女性,25,2025-06-04_10h09.17.693,Serial_Dependence_U,2023.2.3,Win32,93.45794392525906,,,,,,488.9895,349,0,488.9898000000119,349,,,,493.1628000000119,493.65549999999996,492.6532000000178,493.1626000000239,489.9895,492.6532000000178,493.6556000000238,494.1621000000239,494.1621000000239,496.10799999999995,1232,496.1081000000238,2,497.1031000000238,0,11,11,14,1,1.6,0.3,Time
,,513989,001,女性,25,2025-06-04_10h09.17.693,Serial_Dependence_U,2023.2.3,Win32,93.45794392525906,,,,,,497.103400000006,317,0,497.10349999999994,317,,,,500.48540000000594,500.9781000000238,499.98349999999994,500.48540000000594,498.11940000000595,499.9833000000119,500.97820000001786,501.47780000001194,501.47780000001194,502.59640000000593,899,502.5965,4,503.589400000006,0,12,12,0,1,0.8,0.3,Time
,,513989,001,女性,25,2025-06-04_10h09.17.693,Serial_Dependence_U,2023.2.3,Win32,93.45794392525906,,,,,,503.58990000000597,103,0,503.59000000000003,103,,,,507.1573000000119,507.65599999999995,506.65380000001187,507.1571000000238,504.6081000000238,506.65360000002386,507.6561000000238,508.155900000006,508.155900000006,509.7963000000119,1135,509.796400000006,4,510.78930000001196,0,13,13,26,1,1,0.7,Time
,,513989,001,女性,25,2025-06-04_10h09.17.693,Serial_Dependence_U,2023.2.3,Win32,93.45794392525906,,,,,,510.7897000000179,140,0,510.7899000000059,140,,,,514.3392000000179,514.8391000000238,513.8305,514.3392000000179,511.7896000000238,513.830400000006,514.8391000000238,515.3415,515.3415,517.2309000000059,1354,517.2309000000059,5,518.2235,0,14,14,6,1,1,0.7,Time
,,513989,001,女性,25,2025-06-04_10h09.17.693,Serial_Dependence_U,2023.2.3,Win32,93.45794392525906,,,,,,518.2239999999999,204,0,518.2242000000178,204,,,,521.9966000000238,522.489,521.4959000000059,521.9966000000238,519.2303000000119,521.4958000000119,522.489,522.9852000000178,522.9853000000119,524.2854000000059,844,524.2854000000059,2,525.2778000000119,0,15,15,22,1,1.2,0.3,Time
,,513989,001,女性,25,2025-06-04_10h09.17.693,Serial_Dependence_U,2023.2.3,Win32,93.45794392525906,,,,,,525.2781000000239,207,0,525.2783000000119,207,,,,529.0301000000238,529.526400000006,528.5192000000179,529.03,526.2852000000179,528.5191000000239,529.526400000006,530.0227000000178,530.0228000000119,532.3186000000238,1755,532.3186000000238,5,533.311400000006,0,16,16,17,1,1.2,0.7,Time
,,513989,001,女性,25,2025-06-04_10h09.17.693,Serial_Dependence_U,2023.2.3,Win32,93.45794392525906,,,,,,533.3117000000178,99,0,533.311900000006,99,,,,537.0971000000238,537.5892000000179,536.585900000006,537.0969000000059,534.3177000000179,536.585900000006,537.5893000000119,538.0889999999999,538.0889999999999,539.73,1203,539.73,3,540.7283000000119,0,17,17,2,1,1.2,0.3,Time
,,513989,001,女性,25,2025-06-04_10h09.17.693,Serial_Dependence_U,2023.2.3,Win32,93.45794392525906,,,,,,540.7286000000238,338,0,540.7286000000238,338,,,,544.3196000000238,544.8131000000238,543.8089000000059,544.319400000006,541.7414000000059,543.8089000000059,544.8132000000179,545.3112000000178,545.3113000000119,546.6124000000059,1002,546.6125,3,547.6152000000179,0,18,18,1,1,1,0.3,Time
,,513989,001,女性,25,2025-06-04_10h09.17.693,Serial_Dependence_U,2023.2.3,Win32,93.45794392525906,,,,,,547.6154000000059,265,0,547.6155,265,,,,551.5624000000059,552.056,551.0528000000119,551.5623000000119,548.6192000000178,551.0527000000179,552.056,552.5558000000119,552.5558000000119,554.5866000000239,1746,554.5866000000239,4,555.5788000000119,0,19,19,8,1,1.4,0.7,Time
,,513989,001,女性,25,2025-06-04_10h09.17.693,Serial_Dependence_U,2023.2.3,Win32,93.45794392525906,,,,,,555.5792000000179,191,0,555.579400000006,191,,,,559.5785,560.0779000000059,559.0672000000179,559.5784000000059,556.5971000000238,559.0672000000179,560.078,560.578300000012,560.578300000012,562.1336000000239,1300,562.1336000000239,2,563.1336000000239,0,20,20,23,1,1.4,0.3,Time
,,513989,001,女性,25,2025-06-04_10h09.17.693,Serial_Dependence_U,2023.2.3,Win32,93.45794392525906,,,,,,563.1338000000119,165,0,563.133900000006,165,,,,566.7117000000179,567.2112000000179,566.2007000000178,566.7116000000239,564.134,566.2006000000239,567.2112000000179,567.7114000000059,567.7114000000059,569.9336000000238,1910,569.9336000000238,5,570.9335,0,21,21,11,1,1,0.3,Time
,,513989,001,女性,25,2025-06-04_10h09.17.693,Serial_Dependence_U,2023.2.3,Win32,93.45794392525906,,,,,,570.9337000000179,55,0,570.9339000000059,55,,,,575.0785,575.5781000000238,574.5672000000179,575.0784000000059,571.933800000012,574.5671000000239,575.5781000000238,576.0779000000059,576.0779000000059,577.844900000006,1233,577.845,2,578.8448000000119,0,22,22,29,1,1.6,0.7,Time
,,513989,001,女性,25,2025-06-04_10h09.17.693,Serial_Dependence_U,2023.2.3,Win32,93.45794392525906,,,,,,578.8451000000239,81,0,578.8452000000178,81,,,,582.8336000000238,583.3336000000238,582.3229000000059,582.8336000000238,579.856,582.3229000000059,583.3336000000238,583.8336000000238,583.8336000000238,585.3447000000178,1289,585.3447000000178,2,586.3448000000119,0,23,23,13,1,1.4,0.3,Time
,,513989,001,女性,25,2025-06-04_10h09.17.693,Serial_Dependence_U,2023.2.3,Win32,93.45794392525906,,,,,,586.3451000000239,296,0,586.3452000000178,296,,,,590.5006000000238,591.0004000000059,589.9892000000178,590.5005,587.3561000000238,589.9892000000178,591.0004000000059,591.5001000000238,591.5001000000238,593.6114000000059,1811,593.6115,4,594.6113000000119,0,24,24,9,1,1.6,0.7,Time
,,513989,001,女性,25,2025-06-04_10h09.17.693,Serial_Dependence_U,2023.2.3,Win32,93.45794392525906,,,,,,594.6115,347,0,594.6117000000179,347,,,,597.9671000000238,598.467,597.4562000000178,597.9671000000238,595.6226000000238,597.4561000000239,598.467,598.9671000000238,598.9671000000238,600.8113000000119,1490,600.8113000000119,5,601.8113000000119,0,25,25,25,1,0.8,0.7,Time
,,513989,001,女性,25,2025-06-04_10h09.17.693,Serial_Dependence_U,2023.2.3,Win32,93.45794392525906,,,,,,601.8116000000239,111,0,601.8117000000178,111,,,,605.1673000000119,605.666900000006,604.656,605.1672000000178,602.8228000000119,604.655900000006,605.667,606.1672000000178,606.1672000000178,607.2006000000239,745,607.2007000000178,2,608.2007000000178,0,26,26,15,1,0.8,0.7,Time
,,513989,001,女性,25,2025-06-04_10h09.17.693,Serial_Dependence_U,2023.2.3,Win32,93.45794392525906,,,,,,608.2013000000119,335,0,608.201400000006,335,,,,612.1451000000238,612.6449000000059,611.634,612.145,609.2006000000239,611.6338000000119,612.645,613.1448000000119,613.1448000000119,614.8782000000178,1432,614.8783000000119,3,615.8781000000238,0,27,27,18,1,1.4,0.7,Time
,,513989,001,女性,25,2025-06-04_10h09.17.693,Serial_Dependence_U,2023.2.3,Win32,93.45794392525906,,,,,,615.8783000000119,8,0,615.878400000006,8,,,,619.2672000000179,619.7673000000119,618.7561000000238,619.2672000000179,616.8895,618.756,619.7673000000119,620.2671000000238,620.2671000000238,624.055900000006,1089,624.055900000006,5,625.0557000000179,0,28,28,10,1,0.8,0.3,Time
,,513989,001,女性,25,2025-06-04_10h09.17.693,Serial_Dependence_U,2023.2.3,Win32,93.45794392525906,,,,,,625.056,39,0,625.056,39,,,,629.0116000000238,629.5117000000179,628.500800000012,629.0116000000238,626.0671000000239,628.5007000000179,629.5117000000179,630.0115,630.0116000000238,657.1447000000179,1022,657.1448000000119,2,658.1448000000119,0,29,29,28,1,1.4,0.7,Time
,,513989,001,女性,25,2025-06-04_10h09.17.693,Serial_Dependence_U,2023.2.3,Win32,93.45794392525906,,,,,,658.145,164,1,741.228,164,s,83.06569999998817,,744.978400000006,745.4783000000119,744.4674000000059,744.9783000000119,742.234,744.4674000000059,745.4783000000119,745.9783000000119,745.9783000000119,751.7006000000239,2979,751.7006000000239,5,751.705900000006,1,0,30,7,1,1.2,0.7,Time
,,513989,001,女性,25,2025-06-04_10h09.17.693,Serial_Dependence_U,2023.2.3,Win32,93.45794392525906,,,,,,751.7061000000239,98,1,751.7069000000059,98,,,,755.6896000000238,756.1893000000119,755.1787000000179,755.6896000000238,752.7119000000059,755.1787000000179,756.189400000006,756.6895,756.6895,759.3338000000119,2244,759.3338000000119,5,759.3395,1,1,31,3,1,1.4,0.3,Time
,,513989,001,女性,25,2025-06-04_10h09.17.693,Serial_Dependence_U,2023.2.3,Win32,93.45794392525906,,,,,,759.3397000000178,162,1,759.3397000000178,162,,,,763.3195,763.8187000000179,762.809,763.3195,760.3421000000238,762.8089000000059,763.8187000000179,764.319400000006,764.319400000006,767.3643000000119,2910,767.364400000006,5,767.37,1,2,32,13,1,1.4,0.3,Time
,,513989,001,女性,25,2025-06-04_10h09.17.693,Serial_Dependence_U,2023.2.3,Win32,93.45794392525906,,,,,,767.3703000000119,131,1,767.3703000000119,131,,,,771.1521000000238,771.6449000000059,770.6341000000239,771.151900000006,768.3715,770.634,771.6449000000059,772.145300000012,772.1454000000059,780.031,2212,780.031,5,780.036400000006,1,3,33,22,1,1.2,0.3,Time
,,513989,001,女性,25,2025-06-04_10h09.17.693,Serial_Dependence_U,2023.2.3,Win32,93.45794392525906,,,,,,780.0366000000238,212,1,780.0367000000178,212,,,,783.7786000000239,784.2738000000119,783.2749000000059,783.778400000006,781.0409999999999,783.2749000000059,784.2739000000059,784.7673000000119,784.767400000006,788.7792000000179,3369,788.7792000000179,5,788.786400000006,1,4,34,17,1,1.2,0.7,Time
,,513989,001,女性,25,2025-06-04_10h09.17.693,Serial_Dependence_U,2023.2.3,Win32,93.45794392525906,,,,,,788.7867000000178,350,1,788.7868000000119,350,,,,792.945400000006,793.444900000006,792.4341000000238,792.945400000006,789.8016000000239,792.4341000000238,793.4449999999999,793.9449999999999,793.9449999999999,799.0672000000179,4055,799.0673000000119,5,799.0725,1,5,35,9,1,1.6,0.7,Time
,,513989,001,女性,25,2025-06-04_10h09.17.693,Serial_Dependence_U,2023.2.3,Win32,93.45794392525906,,,,,,799.0728000000119,82,1,799.0728000000119,82,,,,802.4046000000238,802.9006000000238,801.901,802.4045,800.0673000000119,801.900900000006,802.9006000000238,803.4005,803.4006000000238,808.2117000000179,3988,808.2117000000179,5,808.2168000000119,1,6,36,25,1,0.8,0.7,Time
,,513989,001,女性,25,2025-06-04_10h09.17.693,Serial_Dependence_U,2023.2.3,Win32,93.45794392525906,,,,,,808.2171000000238,192,1,808.2171000000238,192,,,,811.5898000000119,812.0895,811.0787000000179,811.5898000000119,809.2137000000179,811.0785,812.0895,812.5895,812.5896000000238,816.645,3332,816.6451000000238,5,816.6502000000179,1,7,37,20,1,0.8,0.3,Time
,,513989,001,女性,25,2025-06-04_10h09.17.693,Serial_Dependence_U,2023.2.3,Win32,93.45794392525906,,,,,,816.6504000000059,2,1,816.6505,2,,,,820.2343000000119,820.734,819.7231000000238,820.2343000000119,817.6563000000119,819.7231000000238,820.7341000000238,821.233900000006,821.233900000006,824.222800000012,2478,824.2229000000059,5,824.227900000006,1,8,38,11,1,1,0.3,Time
,,513989,001,女性,25,2025-06-04_10h09.17.693,Serial_Dependence_U,2023.2.3,Win32,93.45794392525906,,,,,,824.2282000000179,296,1,824.2283000000119,296,,,,828.3785,828.878400000006,827.8675,828.3785,825.2341000000238,827.867400000006,828.878400000006,829.378400000006,829.378400000006,833.0117000000179,3599,833.0118000000119,5,833.0173000000119,1,9,39,19,1,1.6,0.7,Time
,,513989,001,女性,25,2025-06-04_10h09.17.693,Serial_Dependence_U,2023.2.3,Win32,93.45794392525906,,,,,,833.0175,223,1,833.0176000000238,223,,,,837.2008000000119,837.7007000000178,836.6897000000179,837.2008000000119,834.023,836.6896000000238,837.7007000000178,838.2008000000119,838.200900000006,843.1007000000179,3233,843.1008000000119,5,843.1064000000059,1,10,40,4,1,1.6,0.3,Time
,,513989,001,女性,25,2025-06-04_10h09.17.693,Serial_Dependence_U,2023.2.3,Win32,93.45794392525906,,,,,,843.1067000000179,134,1,843.1067000000179,134,,,,846.8899000000059,847.3911000000238,846.3788000000119,846.8899000000059,844.1121000000238,846.3787000000178,847.3912000000179,847.8895,847.8895,851.9229000000059,3244,851.923,5,851.9285,1,11,41,2,1,1.2,0.3,Time
,,513989,001,女性,25,2025-06-04_10h09.17.693,Serial_Dependence_U,2023.2.3,Win32,93.45794392525906,,,,,,851.928800000012,9,1,851.928800000012,9,,,,855.8676000000238,856.367400000006,855.3565,855.8676000000238,852.9232000000179,855.3563000000119,856.367400000006,856.8673000000119,856.8673000000119,860.611800000012,3633,860.611800000012,5,860.617400000006,1,12,42,18,1,1.4,0.7,Time
,,513989,001,女性,25,2025-06-04_10h09.17.693,Serial_Dependence_U,2023.2.3,Win32,93.45794392525906,,,,,,860.6177000000179,298,1,860.6177000000179,298,,,,863.989900000006,864.4895,863.4787000000179,863.9898000000119,861.6121000000238,863.4786000000238,864.4895,864.989900000006,864.989900000006,871.0451000000238,2900,871.0451000000238,5,871.0507000000179,1,13,43,0,1,0.8,0.3,Time
,,513989,001,女性,25,2025-06-04_10h09.17.693,Serial_Dependence_U,2023.2.3,Win32,93.45794392525906,,,,,,871.0509999999999,338,1,871.0509999999999,338,,,,875.0009000000059,875.5068000000119,874.4898000000119,875.000800000012,872.056400000006,874.4897000000178,875.506900000006,876.0007000000179,876.000800000012,880.9564000000059,4101,880.9564000000059,5,880.9624000000059,1,14,44,28,1,1.4,0.7,Time
,,513989,001,女性,25,2025-06-04_10h09.17.693,Serial_Dependence_U,2023.2.3,Win32,93.45794392525906,,,,,,880.9625,330,1,880.9627000000179,330,,,,884.500800000012,885.0007000000179,883.9898000000119,884.500800000012,881.9566000000239,883.9898000000119,885.0007000000179,885.4948000000119,885.4948000000119,890.5312000000179,2409,890.5312000000179,5,890.537,1,15,45,26,1,1,0.7,Time
,,513989,001,女性,25,2025-06-04_10h09.17.693,Serial_Dependence_U,2023.2.3,Win32,93.45794392525906,,,,,,890.5372000000178,110,1,890.5373000000119,110,,,,894.1121000000238,894.6117000000179,893.6009000000059,894.112,891.5344000000059,893.6008000000119,894.6117000000179,895.111800000012,895.1119000000059,897.8864000000059,2376,897.8864000000059,5,897.892400000006,1,16,46,21,1,1,0.3,Time
,,513989,001,女性,25,2025-06-04_10h09.17.693,Serial_Dependence_U,2023.2.3,Win32,93.45794392525906,,,,,,897.8927000000178,153,1,897.8927000000178,153,,,,901.425400000006,901.9184000000059,900.9197000000179,901.4253000000119,898.8856000000238,900.9196000000238,901.9184000000059,902.4117000000178,902.4117000000178,904.9756000000239,2103,904.9757000000179,5,904.9811000000238,1,17,47,6,1,1,0.7,Time
,,513989,001,女性,25,2025-06-04_10h09.17.693,Serial_Dependence_U,2023.2.3,Win32,93.45794392525906,,,,,,904.9814000000059,136,1,904.9814000000059,136,,,,909.13,909.6228000000119,908.6197000000178,909.1299000000059,905.9859000000059,908.6196000000239,909.6228000000119,910.1231000000238,910.1232000000178,913.812,3569,913.812,5,913.8176000000238,1,18,48,29,1,1.6,0.7,Time
,,513989,001,女性,25,2025-06-04_10h09.17.693,Serial_Dependence_U,2023.2.3,Win32,93.45794392525906,,,,,,913.8178000000119,296,1,913.8179000000059,296,,,,917.3901000000238,917.8895,916.8788000000119,917.39,914.8125,916.8787000000178,917.8895,918.39,918.39,921.0342000000179,2431,921.0342000000179,5,921.0395,1,19,49,1,1,1,0.3,Time
,,513989,001,女性,25,2025-06-04_10h09.17.693,Serial_Dependence_U,2023.2.3,Win32,93.45794392525906,,,,,,921.0397000000179,347,1,921.0397000000179,347,,,,925.0122000000179,925.5118000000119,924.5011000000238,925.0121000000238,922.0342000000179,924.5011000000238,925.511900000006,926.0118000000119,926.0118000000119,928.9453000000119,2245,928.9453000000119,5,928.9508000000119,1,20,50,23,1,1.4,0.3,Time
,,513989,001,女性,25,2025-06-04_10h09.17.693,Serial_Dependence_U,2023.2.3,Win32,93.45794392525906,,,,,,928.951,333,1,928.9511000000239,333,,,,932.501,933.0007000000179,931.9903000000119,932.5009000000059,929.9565,931.9902000000179,933.000800000012,933.5006000000238,933.5006000000238,936.212,2211,936.212,5,936.2176000000238,1,21,51,16,1,1,0.7,Time
,,513989,001,女性,25,2025-06-04_10h09.17.693,Serial_Dependence_U,2023.2.3,Win32,93.45794392525906,,,,,,936.217800000012,90,1,936.2179000000059,90,,,,940.3899000000059,940.8898000000119,939.879,940.3898000000119,937.212,939.878900000006,940.8898000000119,941.3898000000119,941.3898000000119,944.4455,2632,944.4455,5,944.451,1,22,52,24,1,1.6,0.3,Time
,,513989,001,女性,25,2025-06-04_10h09.17.693,Serial_Dependence_U,2023.2.3,Win32,93.45794392525906,,,,,,944.4513000000119,13,1,944.4513000000119,13,,,,947.834400000006,948.3343000000119,947.3234000000059,947.8343000000119,945.4567000000179,947.323300000012,948.3343000000119,948.8342000000179,948.8343000000119,952.5232000000178,2989,952.5232000000178,5,952.529,1,23,53,10,1,0.8,0.3,Time
,,513989,001,女性,25,2025-06-04_10h09.17.693,Serial_Dependence_U,2023.2.3,Win32,93.45794392525906,,,,,,952.5292000000179,255,1,952.5294000000059,255,,,,955.879,956.378900000006,955.367900000006,955.879,953.5345,955.367900000006,956.379,956.8786000000239,956.8786000000239,959.767400000006,2411,959.7675,5,959.7728000000119,1,24,54,15,1,0.8,0.7,Time
,,513989,001,女性,25,2025-06-04_10h09.17.693,Serial_Dependence_U,2023.2.3,Win32,93.45794392525906,,,,,,959.773,231,1,959.7731000000239,231,,,,963.7124000000059,964.212,963.2011000000239,963.7124000000059,960.768,963.201,964.2121000000238,964.712,964.712,967.089900000006,2233,967.089900000006,5,967.094900000006,1,25,55,8,1,1.4,0.7,Time
,,513989,001,女性,25,2025-06-04_10h09.17.693,Serial_Dependence_U,2023.2.3,Win32,93.45794392525906,,,,,,967.0951000000239,144,1,967.0952000000178,144,,,,970.4346000000238,970.9341000000238,969.9234000000059,970.4345,968.0903000000119,969.9233000000119,970.9342000000179,971.4342000000179,971.434300000012,973.8232000000179,2200,973.8232000000179,5,973.8287000000179,1,26,56,5,1,0.8,0.7,Time
,,513989,001,女性,25,2025-06-04_10h09.17.693,Serial_Dependence_U,2023.2.3,Win32,93.45794392525906,,,,,,973.8288000000119,84,1,973.828900000006,84,,,,978.0016000000238,978.5009000000059,977.5012000000179,978.0015,974.8344999999999,977.5012000000179,978.5009000000059,979.0009000000059,979.001,982.445400000006,3200,982.4455,5,982.451,1,27,57,14,1,1.6,0.3,Time
,,513989,001,女性,25,2025-06-04_10h09.17.693,Serial_Dependence_U,2023.2.3,Win32,93.45794392525906,,,,,,982.4513000000119,272,1,982.4513000000119,272,,,,986.2012000000178,986.700900000006,985.6903000000119,986.2011000000239,983.4569000000059,985.6903000000119,986.700900000006,987.200900000006,987.200900000006,989.6120000000001,2256,989.6120000000001,5,989.617,1,28,58,27,1,1.2,0.7,Time
,,513989,001,女性,25,2025-06-04_10h09.17.693,Serial_Dependence_U,2023.2.3,Win32,93.45794392525906,,,,,,989.6172000000179,115,1,989.6173000000119,115,,,,993.401200000018,993.900900000006,992.8902000000178,993.401200000018,990.6234000000059,992.8901000000237,993.900900000006,994.4011000000239,994.4011000000239,997.3678000000118,2887,997.3678000000118,5,997.373200000018,1,29,59,12,1,1.2,0.3,Time
,,513989,001,女性,25,2025-06-04_10h09.17.693,Serial_Dependence_U,2023.2.3,Win32,93.45794392525906,,,,,,997.3734999999999,212,2,1055.762400000006,212,s,58.37159999999403,,1059.512400000006,1060.012300000012,1059.0015,1059.512300000012,1056.767800000012,1059.001400000006,1060.012300000012,1060.5122000000179,1060.512300000012,1084.534400000006,2700,1084.5345,5,1084.5398000000118,2,0,60,27,1,1.2,0.7,Time
,,513989,001,女性,25,2025-06-04_10h09.17.693,Serial_Dependence_U,2023.2.3,Win32,93.45794392525906,,,,,,1084.5401000000238,293,2,1084.5409000000059,293,,,,1087.9237000000178,1088.4236000000237,1087.4127000000178,1087.9237000000178,1085.5456000000238,1087.4127000000178,1088.4236000000237,1088.9231000000239,1088.9231000000239,1101.934400000006,1935,1101.9345,5,1101.940100000024,2,1,61,10,1,0.8,0.3,Time
,,513989,001,女性,25,2025-06-04_10h09.17.693,Serial_Dependence_U,2023.2.3,Win32,93.45794392525906,,,,,,1101.9403000000118,358,2,1101.9403000000118,358,,,,1106.090300000012,1106.5902000000178,1105.579300000012,1106.090300000012,1102.945700000018,1105.5792000000179,1106.590300000012,1107.09,1107.09,1110.412300000012,2967,1110.4124000000058,5,1110.418400000006,2,2,62,19,1,1.6,0.7,Time
,,513989,001,女性,25,2025-06-04_10h09.17.693,Serial_Dependence_U,2023.2.3,Win32,93.45794392525906,,,,,,1110.4185,126,2,1110.4186000000238,126,,,,1114.001400000006,1114.501200000018,1113.4906000000237,1114.001300000012,1111.4234999999999,1113.4904999999999,1114.501200000018,1115.001300000012,1115.001300000012,1117.6009999999999,2177,1117.6009999999999,5,1117.606,2,3,63,21,1,1,0.3,Time
,,513989,001,女性,25,2025-06-04_10h09.17.693,Serial_Dependence_U,2023.2.3,Win32,93.45794392525906,,,,,,1117.606300000012,336,2,1117.606300000012,336,,,,1121.779300000012,1122.279200000018,1121.2684000000058,1121.779200000018,1118.6016000000238,1121.2684000000058,1122.279200000018,1122.778900000006,1122.778900000006,1127.679,2678,1127.679100000024,5,1127.684400000006,2,4,64,14,1,1.6,0.3,Time
,,513989,001,女性,25,2025-06-04_10h09.17.693,Serial_Dependence_U,2023.2.3,Win32,93.45794392525906,,,,,,1127.684600000024,150,2,1127.684600000024,150,,,,1131.6235,1132.123200000018,1131.1126000000238,1131.6234000000059,1128.679400000006,1131.1125,1132.1233000000118,1132.6234000000059,1132.6234000000059,1135.712200000018,2501,1135.712300000012,5,1135.7176000000238,2,5,65,8,1,1.4,0.7,Time
,,513989,001,女性,25,2025-06-04_10h09.17.693,Serial_Dependence_U,2023.2.3,Win32,93.45794392525906,,,,,,1135.717800000012,305,2,1135.717900000006,305,,,,1139.2681000000239,1139.768200000018,1138.757200000018,1139.2681000000239,1136.723400000006,1138.757100000024,1139.768200000018,1140.2681000000239,1140.2681000000239,1144.2901000000238,2643,1144.2901000000238,5,1144.2956000000238,2,6,66,6,1,1,0.7,Time
,,513989,001,女性,25,2025-06-04_10h09.17.693,Serial_Dependence_U,2023.2.3,Win32,93.45794392525906,,,,,,1144.295800000012,129,2,1144.295800000012,129,,,,1147.8792000000178,1148.3792000000178,1147.368300000012,1147.8792000000178,1145.3021000000238,1147.3682000000179,1148.3792000000178,1148.8789000000058,1148.879,1153.267800000012,1967,1153.267800000012,5,1153.273400000006,2,7,67,11,1,1,0.3,Time
,,513989,001,女性,25,2025-06-04_10h09.17.693,Serial_Dependence_U,2023.2.3,Win32,93.45794392525906,,,,,,1153.2736000000239,53,2,1153.273700000018,53,,,,1156.6125,1157.1123000000118,1156.1016000000238,1156.6125,1154.2684000000058,1156.1015,1157.1123000000118,1157.6123000000118,1157.612400000006,1160.001300000012,2101,1160.001300000012,5,1160.0063000000118,2,8,68,15,1,0.8,0.7,Time
,,513989,001,女性,25,2025-06-04_10h09.17.693,Serial_Dependence_U,2023.2.3,Win32,93.45794392525906,,,,,,1160.0065,261,2,1160.0067000000179,261,,,,1163.7461000000237,1164.245700000018,1163.234800000012,1163.746,1161.002,1163.234700000018,1164.245700000018,1164.745900000006,1164.746,1167.668,2766,1167.668,5,1167.673400000006,2,9,69,17,1,1.2,0.7,Time
,,513989,001,女性,25,2025-06-04_10h09.17.693,Serial_Dependence_U,2023.2.3,Win32,93.45794392525906,,,,,,1167.6737000000178,278,2,1167.6737000000178,278,,,,1171.8132000000178,1172.312400000006,1171.3016000000239,1171.8132000000178,1168.6683000000119,1171.3016000000239,1172.312400000006,1172.812400000006,1172.812400000006,1176.6346000000237,2788,1176.6346000000237,5,1176.640400000006,2,10,70,9,1,1.6,0.7,Time
,,513989,001,女性,25,2025-06-04_10h09.17.693,Serial_Dependence_U,2023.2.3,Win32,93.45794392525906,,,,,,1176.6406000000238,107,2,1176.640700000018,107,,,,1180.4128000000119,1180.9121000000239,1179.9016000000238,1180.4127000000178,1177.6358000000118,1179.9016000000238,1180.9121000000239,1181.4126000000238,1181.4127000000178,1184.3237000000179,2890,1184.3237000000179,5,1184.329,2,11,71,12,1,1.2,0.3,Time
,,513989,001,女性,25,2025-06-04_10h09.17.693,Serial_Dependence_U,2023.2.3,Win32,93.45794392525906,,,,,,1184.329300000012,209,2,1184.329300000012,209,,,,1187.668400000006,1188.1681000000237,1187.1575,1187.668400000006,1185.323800000012,1187.1575,1188.1681000000237,1188.668,1188.668,1190.3235,1300,1190.3236000000238,5,1190.329300000012,2,12,72,25,1,0.8,0.7,Time
,,513989,001,女性,25,2025-06-04_10h09.17.693,Serial_Dependence_U,2023.2.3,Win32,93.45794392525906,,,,,,1190.329600000024,74,2,1190.329700000018,74,,,,1193.8682000000179,1194.3681000000238,1193.357400000006,1193.8682000000179,1191.324,1193.357400000006,1194.3681000000238,1194.8682000000179,1194.8682000000179,1197.157,2200,1197.157,5,1197.1624000000058,2,13,73,16,1,1,0.7,Time
,,513989,001,女性,25,2025-06-04_10h09.17.693,Serial_Dependence_U,2023.2.3,Win32,93.45794392525906,,,,,,1197.1627000000178,180,2,1197.1628000000119,180,,,,1200.9351000000238,1201.4347000000178,1200.424,1200.9351000000238,1198.1572000000178,1200.424,1201.4348000000118,1201.934600000024,1201.934600000024,1204.4125,2191,1204.4126000000238,5,1204.417800000012,2,14,74,22,1,1.2,0.3,Time
,,513989,001,女性,25,2025-06-04_10h09.17.693,Serial_Dependence_U,2023.2.3,Win32,93.45794392525906,,,,,,1204.4181000000237,235,2,1204.4181000000237,235,,,,1208.201900000006,1208.7017000000178,1207.6906000000238,1208.2018000000119,1205.423900000006,1207.6906000000238,1208.7017000000178,1209.2015,1209.2015,1211.679100000024,2321,1211.679100000024,5,1211.6838000000118,2,15,75,2,1,1.2,0.3,Time
,,513989,001,女性,25,2025-06-04_10h09.17.693,Serial_Dependence_U,2023.2.3,Win32,93.45794392525906,,,,,,1211.6841000000238,15,2,1211.6842000000179,15,,,,1215.2574000000059,1215.757100000024,1214.746400000006,1215.2574000000059,1212.679900000006,1214.746400000006,1215.757100000024,1216.2567000000179,1216.256800000012,1219.1572000000178,2399,1219.1572000000178,5,1219.1631000000239,2,16,76,1,1,1,0.3,Time
,,513989,001,女性,25,2025-06-04_10h09.17.693,Serial_Dependence_U,2023.2.3,Win32,93.45794392525906,,,,,,1219.163300000012,248,2,1219.163400000006,248,,,,1223.1348000000119,1223.6348000000119,1222.624,1223.1348000000119,1220.1575,1222.624,1223.6348000000119,1224.134900000006,1224.134900000006,1227.256900000006,2645,1227.256900000006,5,1227.262800000012,2,17,77,23,1,1.4,0.3,Time
,,513989,001,女性,25,2025-06-04_10h09.17.693,Serial_Dependence_U,2023.2.3,Win32,93.45794392525906,,,,,,1227.263,67,2,1227.2631000000238,67,,,,1230.6016000000238,1231.1013000000119,1230.0905,1230.6015,1228.2574000000059,1230.090400000006,1231.1013000000119,1231.6016000000238,1231.6016000000238,1235.445600000024,3333,1235.445700000018,5,1235.4511000000239,2,18,78,5,1,0.8,0.7,Time
,,513989,001,女性,25,2025-06-04_10h09.17.693,Serial_Dependence_U,2023.2.3,Win32,93.45794392525906,,,,,,1235.451300000012,204,2,1235.451400000006,204,,,,1239.179900000006,1239.6793000000118,1238.6793000000118,1239.1797000000179,1236.4462000000178,1238.6793000000118,1239.6793000000118,1240.1793000000118,1240.1793000000118,1242.745700000018,2345,1242.745700000018,5,1242.751300000012,2,19,79,7,1,1.2,0.7,Time
,,513989,001,女性,25,2025-06-04_10h09.17.693,Serial_Dependence_U,2023.2.3,Win32,93.45794392525906,,,,,,1242.751600000024,88,2,1242.7517000000178,88,,,,1246.9238000000119,1247.4234999999999,1246.412900000006,1246.9238000000119,1243.7461000000237,1246.4128000000119,1247.4234999999999,1247.923400000006,1247.923400000006,1250.990400000006,2833,1250.990400000006,5,1250.996,2,20,80,24,1,1.6,0.3,Time
,,513989,001,女性,25,2025-06-04_10h09.17.693,Serial_Dependence_U,2023.2.3,Win32,93.45794392525906,,,,,,1250.9963000000118,276,2,1250.9963000000118,276,,,,1254.953600000024,1255.445600000024,1254.4426000000237,1254.9535,1252.0018000000118,1254.4424999999999,1255.445600000024,1255.9459000000058,1255.946,1258.042,1899,1258.042,5,1258.0475,2,21,81,18,1,1.4,0.7,Time
,,513989,001,女性,25,2025-06-04_10h09.17.693,Serial_Dependence_U,2023.2.3,Win32,93.45794392525906,,,,,,1258.0477000000178,258,2,1258.0478000000119,258,,,,1262.229200000018,1262.7246000000239,1261.7197000000178,1262.229100000024,1259.0535,1261.7197000000178,1262.7246000000239,1263.2239000000059,1263.224,1266.2705,2835,1266.270600000024,5,1266.276200000018,2,22,82,4,1,1.6,0.3,Time
,,513989,001,女性,25,2025-06-04_10h09.17.693,Serial_Dependence_U,2023.2.3,Win32,93.45794392525906,,,,,,1266.2765,193,2,1266.2765,193,,,,1269.6536000000237,1270.148400000006,1269.142800000012,1269.6535,1267.270400000006,1269.1427000000178,1270.148400000006,1270.6415,1270.641800000012,1272.786900000006,1877,1272.786900000006,5,1272.7932000000178,2,23,83,20,1,0.8,0.3,Time
,,513989,001,女性,25,2025-06-04_10h09.17.693,Serial_Dependence_U,2023.2.3,Win32,93.45794392525906,,,,,,1272.793400000006,12,2,1272.7935,12,,,,1276.775400000006,1277.268200000018,1276.2652000000178,1276.775400000006,1273.7978000000119,1276.265,1277.268300000012,1277.7681000000239,1277.768300000012,1280.320700000018,2234,1280.320700000018,5,1280.326400000006,2,24,84,3,1,1.4,0.3,Time
,,513989,001,女性,25,2025-06-04_10h09.17.693,Serial_Dependence_U,2023.2.3,Win32,93.45794392525906,,,,,,1280.3267000000178,261,2,1280.3267000000178,261,,,,1284.273,1284.771400000006,1283.764800000012,1284.2729000000058,1281.3255,1283.764800000012,1284.7715,1285.267800000012,1285.267800000012,1289.7988000000119,2479,1289.7988000000119,5,1289.805200000018,2,25,85,28,1,1.4,0.7,Time
,,513989,001,女性,25,2025-06-04_10h09.17.693,Serial_Dependence_U,2023.2.3,Win32,93.45794392525906,,,,,,1289.8054000000059,14,2,1289.8055,14,,,,1293.7911000000238,1294.290300000012,1293.2795,1293.791,1290.8098000000118,1293.2795,1294.290300000012,1294.790700000018,1294.7908000000118,1297.8346000000238,2800,1297.8347000000178,5,1297.8401000000238,2,26,86,13,1,1.4,0.3,Time
,,513989,001,女性,25,2025-06-04_10h09.17.693,Serial_Dependence_U,2023.2.3,Win32,93.45794392525906,,,,,,1297.840300000012,338,2,1297.840400000006,338,,,,1301.3801000000237,1301.8792000000178,1300.8689000000059,1301.3799999999999,1298.8351000000239,1300.8689000000059,1301.8792000000178,1302.3792000000178,1302.3793000000119,1304.7241000000238,2132,1304.7242000000178,5,1304.73,2,27,87,26,1,1,0.7,Time
,,513989,001,女性,25,2025-06-04_10h09.17.693,Serial_Dependence_U,2023.2.3,Win32,93.45794392525906,,,,,,1304.730300000012,169,2,1304.730300000012,169,,,,1308.102100000024,1308.6016000000238,1307.590800000012,1308.102100000024,1305.724,1307.590800000012,1308.6016000000238,1309.1015,1309.1016000000238,1311.8903000000118,2590,1311.8903000000118,5,1311.895300000012,2,28,88,0,1,0.8,0.3,Time
,,513989,001,女性,25,2025-06-04_10h09.17.693,Serial_Dependence_U,2023.2.3,Win32,93.45794392525906,,,,,,1311.8955,274,2,1311.895600000024,274,,,,1316.035100000024,1316.534800000012,1315.524,1316.035,1312.891100000024,1315.524,1316.534800000012,1317.034900000006,1317.034900000006,1319.5681000000238,2377,1319.5681000000238,5,1319.573400000006,2,29,89,29,1,1.6,0.7,Time
,,513989,001,女性,25,2025-06-04_10h09.17.693,Serial_Dependence_U,2023.2.3,Win32,93.45794392525906,,,,,,1319.5737000000179,173,3,1334.3623000000118,173,s,14.772500000000036,,1337.946300000012,1338.446,1337.435300000012,1337.9462000000178,1335.368400000006,1337.4352000000179,1338.4461000000238,1338.9459000000058,1338.9459000000058,1342.1571000000238,2966,1342.1572000000178,5,1342.1626000000238,3,0,90,11,1,1,0.3,Time
,,513989,001,女性,25,2025-06-04_10h09.17.693,Serial_Dependence_U,2023.2.3,Win32,93.45794392525906,,,,,,1342.162900000006,279,3,1342.1638000000119,279,,,,1345.7131000000238,1346.2127000000178,1345.2018000000119,1345.713,1343.1683000000119,1345.2017000000178,1346.2127000000178,1346.7127000000178,1346.712900000006,1349.7909000000059,2545,1349.791,5,1349.799200000018,3,1,91,26,1,1,0.7,Time
,,513989,001,女性,25,2025-06-04_10h09.17.693,Serial_Dependence_U,2023.2.3,Win32,93.45794392525906,,,,,,1349.7995,23,3,1349.7995,23,,,,1353.3803000000119,1353.8796000000239,1352.869,1353.3803000000119,1350.8023000000119,1352.869,1353.879700000018,1354.379700000018,1354.379700000018,1358.268200000018,2623,1358.268300000012,5,1358.273900000006,3,2,92,1,1,1,0.3,Time
,,513989,001,女性,25,2025-06-04_10h09.17.693,Serial_Dependence_U,2023.2.3,Win32,93.45794392525906,,,,,,1358.2741000000237,76,3,1358.2741000000237,76,,,,1362.046,1362.545900000006,1361.535400000006,1362.046,1359.2687000000178,1361.535400000006,1362.545900000006,1363.0457000000179,1363.045800000012,1367.602,2500,1367.602100000024,5,1367.6078000000118,3,3,93,2,1,1.2,0.3,Time
,,513989,001,女性,25,2025-06-04_10h09.17.693,Serial_Dependence_U,2023.2.3,Win32,93.45794392525906,,,,,,1367.608,64,3,1367.6081000000238,64,,,,1371.5464000000059,1372.0466000000238,1371.035800000012,1371.5463000000118,1368.602400000006,1371.035800000012,1372.0467000000178,1372.5465,1372.5465,1375.3795,2500,1375.3796000000239,5,1375.384900000006,3,4,94,18,1,1.4,0.7,Time
,,513989,001,女性,25,2025-06-04_10h09.17.693,Serial_Dependence_U,2023.2.3,Win32,93.45794392525906,,,,,,1375.385200000018,124,3,1375.385300000012,124,,,,1379.1686000000238,1379.6683000000119,1378.6575,1379.1686000000238,1376.3913000000118,1378.657400000006,1379.6683000000119,1380.1683000000119,1380.1683000000119,1382.6125,1689,1382.6126000000238,5,1382.6179000000059,3,5,95,12,1,1.2,0.3,Time
,,513989,001,女性,25,2025-06-04_10h09.17.693,Serial_Dependence_U,2023.2.3,Win32,93.45794392525906,,,,,,1382.6181000000238,277,3,1382.6182000000179,277,,,,1386.168400000006,1386.6683000000119,1385.6579000000058,1386.1683000000119,1383.623900000006,1385.657800000012,1386.668400000006,1387.168400000006,1387.168400000006,1389.9461000000238,2333,1389.9461000000238,5,1389.951,3,6,96,6,1,1,0.7,Time
,,513989,001,女性,25,2025-06-04_10h09.17.693,Serial_Dependence_U,2023.2.3,Win32,93.45794392525906,,,,,,1389.951200000018,301,3,1389.951300000012,301,,,,1393.901800000012,1394.4015,1393.3906000000238,1393.9017000000179,1390.9573000000119,1393.3906000000238,1394.4015,1394.9017000000179,1394.9017000000179,1399.146300000012,2466,1399.146300000012,5,1399.1513000000118,3,7,97,8,1,1.4,0.7,Time
,,513989,001,女性,25,2025-06-04_10h09.17.693,Serial_Dependence_U,2023.2.3,Win32,93.45794392525906,,,,,,1399.1515,6,3,1399.1516000000238,6,,,,1403.124200000018,1403.6237000000178,1402.6133000000118,1403.124200000018,1400.147,1402.613200000018,1403.6237000000178,1404.123800000012,1404.123800000012,1409.557300000012,2078,1409.557300000012,5,1409.562900000006,3,8,98,3,1,1.4,0.3,Time
,,513989,001,女性,25,2025-06-04_10h09.17.693,Serial_Dependence_U,2023.2.3,Win32,93.45794392525906,,,,,,1409.5631000000237,227,3,1409.5631000000237,227,,,,1413.724700000018,1414.2238000000118,1413.224,1413.724700000018,1410.557900000006,1413.224,1414.2239000000059,1414.7242000000178,1414.7242000000178,1432.168400000006,2310,1432.168400000006,5,1432.1737000000178,3,9,99,4,1,1.6,0.3,Time
,,513989,001,女性,25,2025-06-04_10h09.17.693,Serial_Dependence_U,2023.2.3,Win32,93.45794392525906,,,,,,1432.173900000006,190,3,1432.174,190,,,,1435.924200000018,1436.4241000000238,1435.413200000018,1435.9241000000238,1433.1797000000179,1435.413200000018,1436.4241000000238,1436.9241000000238,1436.9241000000238,1442.190900000006,2300,1442.191,5,1442.196400000006,3,10,100,17,1,1.2,0.7,Time
,,513989,001,女性,25,2025-06-04_10h09.17.693,Serial_Dependence_U,2023.2.3,Win32,93.45794392525906,,,,,,1442.1966000000239,85,3,1442.196700000018,85,,,,1446.1692000000178,1446.6685,1445.6581000000238,1446.1692000000178,1443.191200000018,1445.658,1446.6685,1447.168400000006,1447.1685,1450.812800000012,2899,1450.812900000006,5,1450.818200000018,3,11,101,23,1,1.4,0.3,Time
,,513989,001,女性,25,2025-06-04_10h09.17.693,Serial_Dependence_U,2023.2.3,Win32,93.45794392525906,,,,,,1450.818400000006,349,3,1450.818600000024,349,,,,1454.957800000012,1455.457400000006,1454.455300000012,1454.957700000018,1451.813400000006,1454.4552000000178,1455.457400000006,1455.9572000000178,1455.9572000000178,1459.054100000024,2600,1459.0542000000178,5,1459.059300000012,3,12,102,9,1,1.6,0.7,Time
,,513989,001,女性,25,2025-06-04_10h09.17.693,Serial_Dependence_U,2023.2.3,Win32,93.45794392525906,,,,,,1459.059600000024,100,3,1459.059600000024,100,,,,1462.8022000000178,1463.3016000000239,1462.292300000012,1462.802,1460.057900000006,1462.2922000000178,1463.3016000000239,1463.801700000018,1463.801700000018,1467.032,2554,1467.032,5,1467.037200000018,3,13,103,27,1,1.2,0.7,Time
,,513989,001,女性,25,2025-06-04_10h09.17.693,Serial_Dependence_U,2023.2.3,Win32,93.45794392525906,,,,,,1467.0374000000058,199,3,1467.0376000000238,199,,,,1471.1866000000239,1471.6815,1470.676300000012,1471.1865,1468.042800000012,1470.676300000012,1471.6816000000238,1472.174200000018,1472.174200000018,1475.2351000000237,2615,1475.2352000000178,5,1475.243600000024,3,14,104,29,1,1.6,0.7,Time
,,513989,001,女性,25,2025-06-04_10h09.17.693,Serial_Dependence_U,2023.2.3,Win32,93.45794392525906,,,,,,1475.2439000000059,215,3,1475.2439000000059,215,,,,1478.621,1479.1192000000178,1478.109400000006,1478.621,1476.248800000012,1478.109400000006,1479.119300000012,1479.6192000000178,1479.6192000000178,1482.176300000012,1578,1482.176300000012,5,1482.1816000000238,3,15,105,20,1,0.8,0.3,Time
,,513989,001,女性,25,2025-06-04_10h09.17.693,Serial_Dependence_U,2023.2.3,Win32,93.45794392525906,,,,,,1482.181900000006,201,3,1482.181900000006,201,,,,1486.3316000000239,1486.8311000000238,1485.8212000000178,1486.331400000006,1483.1803000000118,1485.8212000000178,1486.8312000000178,1487.3261000000239,1487.3261000000239,1489.986700000018,2289,1489.986800000012,5,1489.9921000000238,3,16,106,19,1,1.6,0.7,Time
,,513989,001,女性,25,2025-06-04_10h09.17.693,Serial_Dependence_U,2023.2.3,Win32,93.45794392525906,,,,,,1489.992400000006,26,3,1489.9925,26,,,,1493.3357000000178,1493.835300000012,1492.8245,1493.3356000000238,1490.9931000000238,1492.8244000000059,1493.835300000012,1494.34,1494.34,1495.9128000000119,1259,1495.9128000000119,5,1495.917900000006,3,17,107,15,1,0.8,0.7,Time
,,513989,001,女性,25,2025-06-04_10h09.17.693,Serial_Dependence_U,2023.2.3,Win32,93.45794392525906,,,,,,1495.9181000000237,62,3,1495.9182000000178,62,,,,1499.658400000006,1500.1571000000238,1499.1538000000119,1499.6583000000119,1496.9165,1499.1537000000178,1500.1571000000238,1500.657400000006,1500.657400000006,1503.601900000006,2489,1503.602,5,1503.6075,3,18,108,7,1,1.2,0.7,Time
,,513989,001,女性,25,2025-06-04_10h09.17.693,Serial_Dependence_U,2023.2.3,Win32,93.45794392525906,,,,,,1503.6077000000178,30,3,1503.6078000000118,30,,,,1507.3912000000178,1507.890800000012,1506.8847000000178,1507.391100000024,1504.6203000000119,1506.8846000000237,1507.890800000012,1508.3906000000238,1508.390700000018,1510.2905,1601,1510.290600000024,5,1510.296,3,19,109,22,1,1.2,0.3,Time
,,513989,001,女性,25,2025-06-04_10h09.17.693,Serial_Dependence_U,2023.2.3,Win32,93.45794392525906,,,,,,1510.296200000018,23,3,1510.2963000000118,23,,,,1514.4759999999999,1514.969100000024,1513.965900000006,1514.475900000006,1511.2974000000058,1513.965800000012,1514.969100000024,1515.475,1515.4751000000238,1518.2432000000179,2433,1518.2432000000179,5,1518.2484000000059,3,20,110,24,1,1.6,0.3,Time
,,513989,001,女性,25,2025-06-04_10h09.17.693,Serial_Dependence_U,2023.2.3,Win32,93.45794392525906,,,,,,1518.2486000000238,261,3,1518.2486000000238,261,,,,1521.643300000012,1522.1412000000178,1521.1317000000179,1521.643200000018,1519.264800000012,1521.1316000000238,1522.1412000000178,1522.6415,1522.6415,1524.599,1653,1524.5991000000238,5,1524.6045,3,21,111,0,1,0.8,0.3,Time
,,513989,001,女性,25,2025-06-04_10h09.17.693,Serial_Dependence_U,2023.2.3,Win32,93.45794392525906,,,,,,1524.6047000000178,237,3,1524.604800000012,237,,,,1528.7688000000119,1529.2684000000058,1528.264800000012,1528.7687000000178,1525.602100000024,1528.264700000018,1529.2684000000058,1529.7646000000238,1529.7646000000238,1532.9538000000118,2633,1532.954,5,1532.9596000000238,3,22,112,14,1,1.6,0.3,Time
,,513989,001,女性,25,2025-06-04_10h09.17.693,Serial_Dependence_U,2023.2.3,Win32,93.45794392525906,,,,,,1532.959800000012,89,3,1532.959900000006,89,,,,1536.925400000006,1537.429800000012,1536.421100000024,1536.925300000012,1533.976700000018,1536.421,1537.429800000012,1537.924,1537.9241000000238,1541.001900000006,2584,1541.002,5,1541.0077000000178,3,23,113,28,1,1.4,0.7,Time
,,513989,001,女性,25,2025-06-04_10h09.17.693,Serial_Dependence_U,2023.2.3,Win32,93.45794392525906,,,,,,1541.008,356,3,1541.008,356,,,,1544.3912000000178,1544.896300000012,1543.888700000018,1544.391100000024,1542.019900000006,1543.8886000000239,1544.896400000006,1545.398300000012,1545.398300000012,1546.9317000000178,1273,1546.931800000012,5,1546.9369000000058,3,24,114,10,1,0.8,0.3,Time
,,513989,001,女性,25,2025-06-04_10h09.17.693,Serial_Dependence_U,2023.2.3,Win32,93.45794392525906,,,,,,1546.9371000000237,152,3,1546.9372000000178,152,,,,1550.2866000000238,1550.7796000000237,1549.776800000012,1550.2864000000059,1547.942900000006,1549.7767000000179,1550.7797000000178,1551.2798000000118,1551.2798000000118,1553.0096000000237,1534,1553.0096000000237,5,1553.014800000012,3,25,115,5,1,0.8,0.7,Time
,,513989,001,女性,25,2025-06-04_10h09.17.693,Serial_Dependence_U,2023.2.3,Win32,93.45794392525906,,,,,,1553.015,208,3,1553.0151000000237,208,,,,1556.604800000012,1557.1085,1556.0999000000058,1556.6047000000178,1554.0302000000179,1556.0999000000058,1557.108600000024,1557.601800000012,1557.601800000012,1559.520400000006,1804,1559.5205,5,1559.5256000000238,3,26,116,21,1,1,0.3,Time
,,513989,001,女性,25,2025-06-04_10h09.17.693,Serial_Dependence_U,2023.2.3,Win32,93.45794392525906,,,,,,1559.525900000006,49,3,1559.525900000006,49,,,,1562.8715,1563.3685,1562.365200000018,1562.871400000006,1560.5297000000178,1562.365200000018,1563.3685,1563.8726000000238,1563.8727000000179,1565.965300000012,1889,1565.965400000006,5,1565.9707000000178,3,27,117,25,1,0.8,0.7,Time
,,513989,001,女性,25,2025-06-04_10h09.17.693,Serial_Dependence_U,2023.2.3,Win32,93.45794392525906,,,,,,1565.971,260,3,1565.971,260,,,,1569.948900000006,1570.4462000000178,1569.4431000000238,1569.948800000012,1566.9725,1569.443,1570.4462000000178,1570.946400000006,1570.946400000006,1574.143900000006,2745,1574.144,5,1574.1492000000178,3,28,118,13,1,1.4,0.3,Time
,,513989,001,女性,25,2025-06-04_10h09.17.693,Serial_Dependence_U,2023.2.3,Win32,93.45794392525906,,,,,,1574.149400000006,76,3,1574.1495,76,,,,1577.704300000012,1578.197700000018,1577.1983000000118,1577.7042000000179,1575.1579000000058,1577.1982000000178,1578.197700000018,1578.690800000012,1578.690900000006,1580.1759000000059,1277,1580.1759000000059,4,1580.181,3,29,119,16,1,1,0.7,Time
,,513989,001,女性,25,2025-06-04_10h09.17.693,Serial_Dependence_U,2023.2.3,Win32,93.45794392525906,,,,,,1580.181200000018,312,4,1618.8633000000118,312,s,38.66859999999383,,1622.8322000000178,1623.3287000000178,1622.3313000000119,1622.8321000000237,1619.865300000012,1622.3312000000178,1623.3288000000118,1623.823900000006,1623.824,1626.854300000012,2879,1626.854300000012,5,1626.859800000012,4,0,120,23,1,1.4,0.3,Time
,,513989,001,女性,25,2025-06-04_10h09.17.693,Serial_Dependence_U,2023.2.3,Win32,93.45794392525906,,,,,,1626.8601000000237,209,4,1626.861400000006,209,,,,1630.2135,1630.7132000000179,1629.709900000006,1630.213300000012,1627.869300000012,1629.709900000006,1630.7132000000179,1631.2131000000238,1631.2131000000238,1634.3575,2700,1634.3575,5,1634.363200000018,4,1,121,5,1,0.8,0.7,Time
,,513989,001,女性,25,2025-06-04_10h09.17.693,Serial_Dependence_U,2023.2.3,Win32,93.45794392525906,,,,,,1634.3634000000059,255,4,1634.3634000000059,255,,,,1637.913200000018,1638.413,1637.4026000000238,1637.913200000018,1635.368700000018,1637.4025,1638.4131000000239,1638.9131000000239,1638.913200000018,1640.902200000018,1867,1640.902200000018,5,1640.907400000006,4,2,122,6,1,1,0.7,Time
,,513989,001,女性,25,2025-06-04_10h09.17.693,Serial_Dependence_U,2023.2.3,Win32,93.45794392525906,,,,,,1640.907700000018,191,4,1640.907700000018,191,,,,1644.680100000024,1645.1795,1644.168900000006,1644.68,1641.902300000012,1644.168800000012,1645.1795,1645.680100000024,1645.680200000018,1648.2574000000059,2368,1648.2574000000059,5,1648.263,4,3,123,22,1,1.2,0.3,Time
,,513989,001,女性,25,2025-06-04_10h09.17.693,Serial_Dependence_U,2023.2.3,Win32,93.45794392525906,,,,,,1648.2632000000178,253,4,1648.2632000000178,253,,,,1651.8355,1652.3355,1651.3246000000238,1651.8355,1649.258200000018,1651.3245,1652.3355,1652.835300000012,1652.835300000012,1654.824100000024,1833,1654.824200000018,5,1654.8346000000238,4,4,124,21,1,1,0.3,Time
,,513989,001,女性,25,2025-06-04_10h09.17.693,Serial_Dependence_U,2023.2.3,Win32,93.45794392525906,,,,,,1654.835,351,4,1654.835200000018,351,,,,1658.580400000006,1659.08,1658.08,1658.580400000006,1655.8467000000178,1658.0799000000059,1659.08,1659.5798000000118,1659.5799000000059,1661.4686000000238,1678,1661.4687000000179,5,1661.4761000000237,4,5,125,17,1,1.2,0.7,Time
,,513989,001,女性,25,2025-06-04_10h09.17.693,Serial_Dependence_U,2023.2.3,Win32,93.45794392525906,,,,,,1661.4766000000238,200,4,1661.476700000018,200,,,,1665.258300000012,1665.7576000000238,1664.746800000012,1665.258200000018,1662.4801000000239,1664.746800000012,1665.7577000000178,1666.2575,1666.2575,1669.1691000000237,1888,1669.1691000000237,5,1669.175300000012,4,6,126,2,1,1.2,0.3,Time
,,513989,001,女性,25,2025-06-04_10h09.17.693,Serial_Dependence_U,2023.2.3,Win32,93.45794392525906,,,,,,1669.1759000000059,264,4,1669.1761000000238,264,,,,1673.1133000000118,1673.6133000000118,1672.602400000006,1673.1133000000118,1670.169400000006,1672.602400000006,1673.6133000000118,1674.113200000018,1674.113200000018,1676.924300000012,2433,1676.924400000006,5,1676.933300000012,4,7,127,8,1,1.4,0.7,Time
,,513989,001,女性,25,2025-06-04_10h09.17.693,Serial_Dependence_U,2023.2.3,Win32,93.45794392525906,,,,,,1676.9335,287,4,1676.9337000000178,287,,,,1681.1135,1681.613,1680.602800000012,1681.1135,1677.9362000000178,1680.602800000012,1681.613,1682.1133000000118,1682.1133000000118,1685.28,2757,1685.2801000000238,5,1685.2855,4,8,128,4,1,1.6,0.3,Time
,,513989,001,女性,25,2025-06-04_10h09.17.693,Serial_Dependence_U,2023.2.3,Win32,93.45794392525906,,,,,,1685.286100000024,109,4,1685.286100000024,109,,,,1688.8582000000179,1689.3577000000178,1688.3577000000178,1688.8581000000238,1686.291700000018,1688.3577000000178,1689.3577000000178,1689.8575,1689.8575,1691.869,2000,1691.869,5,1691.8746000000237,4,9,129,11,1,1,0.3,Time
,,513989,001,女性,25,2025-06-04_10h09.17.693,Serial_Dependence_U,2023.2.3,Win32,93.45794392525906,,,,,,1691.8748000000119,235,4,1691.874900000006,235,,,,1695.424400000006,1695.924400000006,1694.913400000006,1695.424400000006,1692.879800000012,1694.913300000012,1695.924400000006,1696.424300000012,1696.424300000012,1698.3245,1767,1698.3245,5,1698.334200000018,4,10,130,26,1,1,0.7,Time
,,513989,001,女性,25,2025-06-04_10h09.17.693,Serial_Dependence_U,2023.2.3,Win32,93.45794392525906,,,,,,1698.3344000000059,45,4,1698.3345,45,,,,1701.9136000000237,1702.4134999999999,1701.4027000000178,1701.9136000000237,1699.336,1701.4026000000238,1702.4134999999999,1702.913400000006,1702.9134999999999,1704.9131000000239,1634,1704.9131000000239,5,1704.9185,4,11,131,1,1,1,0.3,Time
,,513989,001,女性,25,2025-06-04_10h09.17.693,Serial_Dependence_U,2023.2.3,Win32,93.45794392525906,,,,,,1704.918700000018,113,4,1704.918700000018,113,,,,1708.691900000006,1709.191200000018,1708.1807000000179,1708.6918000000119,1705.9136000000237,1708.1806000000238,1709.191200000018,1709.691300000012,1709.691300000012,1711.6472000000178,1934,1711.6472000000178,5,1711.6535,4,12,132,12,1,1.2,0.3,Time
,,513989,001,女性,25,2025-06-04_10h09.17.693,Serial_Dependence_U,2023.2.3,Win32,93.45794392525906,,,,,,1711.6537000000178,152,4,1711.6538000000119,152,,,,1715.003,1715.5021000000238,1714.491600000024,1715.003,1712.6579000000058,1714.491600000024,1715.5021000000238,1716.0022000000179,1716.002300000012,1717.702,1444,1717.7021000000238,5,1717.7069999999999,4,13,133,15,1,0.8,0.7,Time
,,513989,001,女性,25,2025-06-04_10h09.17.693,Serial_Dependence_U,2023.2.3,Win32,93.45794392525906,,,,,,1717.7072000000178,252,4,1717.7073000000119,252,,,,1721.68,1722.180200000018,1721.1691000000237,1721.68,1718.7025,1721.169,1722.180200000018,1722.679900000006,1722.679900000006,1725.365200000018,2209,1725.365200000018,5,1725.370700000018,4,14,134,13,1,1.4,0.3,Time
,,513989,001,女性,25,2025-06-04_10h09.17.693,Serial_Dependence_U,2023.2.3,Win32,93.45794392525906,,,,,,1725.371,77,4,1725.3711000000237,77,,,,1729.335800000012,1729.835300000012,1728.8246000000238,1729.3356000000238,1726.387600000024,1728.8245,1729.8354000000058,1730.3354000000058,1730.3355,1732.9102000000178,2312,1732.9103000000118,5,1732.9151000000238,4,15,135,18,1,1.4,0.7,Time
,,513989,001,女性,25,2025-06-04_10h09.17.693,Serial_Dependence_U,2023.2.3,Win32,93.45794392525906,,,,,,1732.9155,65,4,1732.9155,65,,,,1737.098600000024,1737.598,1736.5885,1737.0985,1733.9215,1736.5885,1737.598,1738.0922000000178,1738.0923000000118,1740.776900000006,2256,1740.776900000006,5,1740.7826000000239,4,16,136,14,1,1.6,0.3,Time
,,513989,001,女性,25,2025-06-04_10h09.17.693,Serial_Dependence_U,2023.2.3,Win32,93.45794392525906,,,,,,1740.7829000000058,93,4,1740.7829000000058,93,,,,1744.527200000018,1745.0243000000119,1744.021,1744.527100000024,1741.7829000000058,1744.020900000006,1745.024400000006,1745.5246000000238,1745.5246000000238,1748.677,2616,1748.6771000000238,5,1748.6831000000238,4,17,137,7,1,1.2,0.7,Time
,,513989,001,女性,25,2025-06-04_10h09.17.693,Serial_Dependence_U,2023.2.3,Win32,93.45794392525906,,,,,,1748.683300000012,83,4,1748.6835,83,,,,1752.030300000012,1752.5315,1751.5162000000178,1752.0302000000179,1749.684,1751.5162000000178,1752.531600000024,1753.0319000000059,1753.0319000000059,1755.0577000000178,1936,1755.0577000000178,5,1755.062900000006,4,18,138,25,1,0.8,0.7,Time
,,513989,001,女性,25,2025-06-04_10h09.17.693,Serial_Dependence_U,2023.2.3,Win32,93.45794392525906,,,,,,1755.0631000000237,95,4,1755.0631000000237,95,,,,1758.4466000000239,1758.946900000006,1757.9359000000059,1758.4466000000239,1756.0692000000179,1757.9358000000118,1758.946900000006,1759.4465,1759.4465,1761.5688000000118,2044,1761.5688000000118,5,1761.5743000000118,4,19,139,0,1,0.8,0.3,Time
,,513989,001,女性,25,2025-06-04_10h09.17.693,Serial_Dependence_U,2023.2.3,Win32,93.45794392525906,,,,,,1761.5746000000238,136,4,1761.5746000000238,136,,,,1765.713700000018,1766.213400000006,1765.2026000000237,1765.713600000024,1762.569300000012,1765.2025,1766.213400000006,1766.7135,1766.7135,1769.3243000000118,1801,1769.3244000000059,4,1769.3298000000118,4,20,140,19,1,1.6,0.7,Time
,,513989,001,女性,25,2025-06-04_10h09.17.693,Serial_Dependence_U,2023.2.3,Win32,93.45794392525906,,,,,,1769.3301000000238,103,4,1769.3301000000238,103,,,,1772.8806000000238,1773.3799999999999,1772.3692000000178,1772.8805,1770.336,1772.3691000000238,1773.3799999999999,1773.8803000000119,1773.8803000000119,1776.5245,2566,1776.5245,5,1776.529300000012,4,21,141,16,1,1,0.7,Time
,,513989,001,女性,25,2025-06-04_10h09.17.693,Serial_Dependence_U,2023.2.3,Win32,93.45794392525906,,,,,,1776.5296000000237,79,4,1776.5297000000178,79,,,,1780.2691000000239,1780.769,1779.758200000018,1780.2691000000239,1777.5252000000178,1779.758200000018,1780.7691000000239,1781.2691000000239,1781.2691000000239,1783.1245,1412,1783.1245,4,1783.129700000018,4,22,142,27,1,1.2,0.7,Time
,,513989,001,女性,25,2025-06-04_10h09.17.693,Serial_Dependence_U,2023.2.3,Win32,93.45794392525906,,,,,,1783.1299999999999,255,4,1783.1301000000237,255,,,,1786.502600000024,1787.0021000000238,1786.002300000012,1786.502600000024,1784.135600000024,1786.0022000000179,1787.0021000000238,1787.5021000000238,1787.5021000000238,1789.591,1910,1789.591,5,1789.596200000018,4,23,143,10,1,0.8,0.3,Time
,,513989,001,女性,25,2025-06-04_10h09.17.693,Serial_Dependence_U,2023.2.3,Win32,93.45794392525906,,,,,,1789.5964999999999,171,4,1789.5966000000237,171,,,,1793.7473000000118,1794.2467000000179,1793.2365,1793.747100000024,1790.6026000000238,1793.236400000006,1794.2467000000179,1794.7466000000238,1794.7466000000238,1797.3579000000059,2300,1797.3579000000059,5,1797.3637000000178,4,24,144,29,1,1.6,0.7,Time
,,513989,001,女性,25,2025-06-04_10h09.17.693,Serial_Dependence_U,2023.2.3,Win32,93.45794392525906,,,,,,1797.363900000006,147,4,1797.364,147,,,,1801.535800000012,1802.0357000000179,1801.024800000012,1801.5357000000179,1798.3585,1801.024800000012,1802.0357000000179,1802.535800000012,1802.535800000012,1804.7801000000238,2011,1804.7801000000238,4,1804.7856000000238,4,25,145,24,1,1.6,0.3,Time
,,513989,001,女性,25,2025-06-04_10h09.17.693,Serial_Dependence_U,2023.2.3,Win32,93.45794392525906,,,,,,1804.785800000012,293,4,1804.785900000006,293,,,,1808.1692000000178,1808.669,1807.657800000012,1808.1691000000237,1805.791300000012,1807.657800000012,1808.6691000000237,1809.1692000000178,1809.1692000000178,1811.191200000018,1567,1811.191300000012,5,1811.1961000000238,4,26,146,20,1,0.8,0.3,Time
,,513989,001,女性,25,2025-06-04_10h09.17.693,Serial_Dependence_U,2023.2.3,Win32,93.45794392525906,,,,,,1811.196400000006,10,4,1811.1965,10,,,,1815.147,1815.6468000000118,1814.6358000000118,1815.1469000000059,1812.202400000006,1814.6358000000118,1815.6469000000059,1816.1469000000059,1816.1469000000059,1818.5912000000178,2166,1818.5913000000119,5,1818.596400000006,4,27,147,28,1,1.4,0.7,Time
,,513989,001,女性,25,2025-06-04_10h09.17.693,Serial_Dependence_U,2023.2.3,Win32,93.45794392525906,,,,,,1818.5966000000237,4,4,1818.5967000000178,4,,,,1822.747,1823.2467000000179,1822.2356000000239,1822.746900000006,1819.603,1822.2356000000239,1823.2467000000179,1823.7466000000238,1823.7467000000179,1827.1248000000119,2709,1827.124900000006,5,1827.1301000000237,4,28,148,9,1,1.6,0.7,Time
,,513989,001,女性,25,2025-06-04_10h09.17.693,Serial_Dependence_U,2023.2.3,Win32,93.45794392525906,,,,,,1827.1303000000119,152,4,1827.130400000006,152,,,,1831.102800000012,1831.6025,1830.591800000012,1831.1027000000179,1828.125,1830.5916000000238,1831.6025,1832.1023000000118,1832.102400000006,1834.269200000018,1856,1834.269300000012,5,1834.274400000006,4,29,149,3,1,1.4,0.3,Time
,,513989,001,女性,25,2025-06-04_10h09.17.693,Serial_Dependence_U,2023.2.3,Win32,93.45794392525906,,,,,,1834.2746000000238,334,5,1841.086900000006,334,s,6.794299999982286,,1845.2697000000178,1845.768900000006,1844.758,1845.2696000000237,1842.0912000000178,1844.757900000006,1845.768900000006,1846.2691000000239,1846.2691000000239,1849.2246000000239,2912,1849.2246000000239,5,1849.2301000000239,5,0,150,4,1,1.6,0.3,Time
,,513989,001,女性,25,2025-06-04_10h09.17.693,Serial_Dependence_U,2023.2.3,Win32,93.45794392525906,,,,,,1849.230300000012,143,5,1849.231200000018,143,,,,1852.780400000006,1853.2805,1852.2694999999999,1852.780300000012,1850.2356000000239,1852.269400000006,1853.2805,1853.779900000006,1853.779900000006,1856.191300000012,2389,1856.191300000012,5,1856.1966000000239,5,1,151,6,1,1,0.7,Time
,,513989,001,女性,25,2025-06-04_10h09.17.693,Serial_Dependence_U,2023.2.3,Win32,93.45794392525906,,,,,,1856.196900000006,353,5,1856.197,353,,,,1859.9473000000119,1860.447,1859.436400000006,1859.9473000000119,1857.202900000006,1859.436300000012,1860.447,1860.946800000012,1860.946800000012,1863.3913000000118,2233,1863.3913000000118,5,1863.396700000018,5,2,152,17,1,1.2,0.7,Time
,,513989,001,女性,25,2025-06-04_10h09.17.693,Serial_Dependence_U,2023.2.3,Win32,93.45794392525906,,,,,,1863.397,114,5,1863.3971000000238,114,,,,1867.3806000000238,1867.8803000000119,1866.869700000018,1867.3805,1864.4024000000059,1866.8696000000239,1867.8803000000119,1868.3801000000237,1868.3802000000178,1871.08,2690,1871.0801000000238,5,1871.0851000000239,5,3,153,3,1,1.4,0.3,Time
,,513989,001,女性,25,2025-06-04_10h09.17.693,Serial_Dependence_U,2023.2.3,Win32,93.45794392525906,,,,,,1871.085300000012,115,5,1871.0854000000058,115,,,,1874.825200000018,1875.3245,1874.3247000000179,1874.825200000018,1872.0916000000238,1874.3246000000238,1875.3245,1875.8243000000118,1875.8244000000059,1878.235700000018,2022,1878.235800000012,5,1878.242,5,4,154,7,1,1.2,0.7,Time
,,513989,001,女性,25,2025-06-04_10h09.17.693,Serial_Dependence_U,2023.2.3,Win32,93.45794392525906,,,,,,1878.242300000012,282,5,1878.242300000012,282,,,,1882.191900000006,1882.6911000000239,1881.6806000000238,1882.1918000000119,1879.2474000000059,1881.6806000000238,1882.6911000000239,1883.1914000000058,1883.1914000000058,1885.9911000000238,2745,1885.9911000000238,5,1885.996800000012,5,5,155,18,1,1.4,0.7,Time
,,513989,001,女性,25,2025-06-04_10h09.17.693,Serial_Dependence_U,2023.2.3,Win32,93.45794392525906,,,,,,1885.997,132,5,1885.997100000024,132,,,,1889.569400000006,1890.069,1889.058200000018,1889.569300000012,1886.992,1889.058200000018,1890.069,1890.568900000006,1890.568900000006,1892.9694000000059,2144,1892.9694000000059,5,1892.9753000000119,5,6,156,21,1,1,0.3,Time
,,513989,001,女性,25,2025-06-04_10h09.17.693,Serial_Dependence_U,2023.2.3,Win32,93.45794392525906,,,,,,1892.9756000000239,198,5,1892.9756000000239,198,,,,1897.1246000000237,1897.6248000000119,1896.613900000006,1897.1245,1893.980300000012,1896.613800000012,1897.6248000000119,1898.1246000000237,1898.1246000000237,1901.3801000000237,2856,1901.3802000000178,5,1901.3857000000178,5,7,157,29,1,1.6,0.7,Time
,,513989,001,女性,25,2025-06-04_10h09.17.693,Serial_Dependence_U,2023.2.3,Win32,93.45794392525906,,,,,,1901.385900000006,257,5,1901.386,257,,,,1904.924600000024,1905.424900000006,1904.413900000006,1904.924600000024,1902.380700000018,1904.4138000000119,1905.424900000006,1905.924900000006,1905.924900000006,1908.0912000000178,2012,1908.0913000000119,5,1908.0967000000178,5,8,158,26,1,1,0.7,Time
,,513989,001,女性,25,2025-06-04_10h09.17.693,Serial_Dependence_U,2023.2.3,Win32,93.45794392525906,,,,,,1908.096900000006,249,5,1908.097,249,,,,1912.258900000006,1912.757800000012,1911.758300000012,1912.2587000000178,1909.0915,1911.758300000012,1912.757800000012,1913.257800000012,1913.257800000012,1920.465700000018,2519,1920.465700000018,5,1920.471300000012,5,9,159,14,1,1.6,0.3,Time
,,513989,001,女性,25,2025-06-04_10h09.17.693,Serial_Dependence_U,2023.2.3,Win32,93.45794392525906,,,,,,1920.4714999999999,33,5,1920.4716000000237,33,,,,1923.8641000000239,1924.3577000000178,1923.3534000000059,1923.8641000000239,1921.484,1923.3533000000118,1924.3577000000178,1924.860800000012,1924.860800000012,1927.432300000012,2267,1927.432400000006,5,1927.4376000000238,5,10,160,0,1,0.8,0.3,Time
,,513989,001,女性,25,2025-06-04_10h09.17.693,Serial_Dependence_U,2023.2.3,Win32,93.45794392525906,,,,,,1927.437900000006,323,5,1927.4379999999999,323,,,,1931.386700000018,1931.879900000006,1930.8765,1931.386600000024,1928.443400000006,1930.876400000006,1931.8799999999999,1932.374,1932.374,1935.119800000012,2700,1935.119800000012,5,1935.1258000000118,5,11,161,8,1,1.4,0.7,Time
,,513989,001,女性,25,2025-06-04_10h09.17.693,Serial_Dependence_U,2023.2.3,Win32,93.45794392525906,,,,,,1935.1261000000238,238,5,1935.1261000000238,238,,,,1938.465700000018,1938.9617000000178,1937.962,1938.4656000000239,1936.1306000000238,1937.961900000006,1938.9617000000178,1939.465400000006,1939.4655,1942.424900000006,2556,1942.424900000006,5,1942.4303000000118,5,12,162,25,1,0.8,0.7,Time
,,513989,001,女性,25,2025-06-04_10h09.17.693,Serial_Dependence_U,2023.2.3,Win32,93.45794392525906,,,,,,1942.4305,352,5,1942.4305,352,,,,1946.2139000000059,1946.7139000000059,1945.7028000000118,1946.2139000000059,1943.4359000000059,1945.7027000000178,1946.7139000000059,1947.213600000024,1947.213600000024,1949.7025,2365,1949.7026000000237,5,1949.707900000006,5,13,163,2,1,1.2,0.3,Time
,,513989,001,女性,25,2025-06-04_10h09.17.693,Serial_Dependence_U,2023.2.3,Win32,93.45794392525906,,,,,,1949.7082000000178,248,5,1949.7082000000178,248,,,,1953.2809000000059,1953.7801000000238,1952.780400000006,1953.2808000000118,1950.714,1952.780300000012,1953.7801000000238,1954.280400000006,1954.2805,1956.724800000012,1968,1956.724800000012,5,1956.729900000006,5,14,164,1,1,1,0.3,Time
,,513989,001,女性,25,2025-06-04_10h09.17.693,Serial_Dependence_U,2023.2.3,Win32,93.45794392525906,,,,,,1956.7301000000239,247,5,1956.730200000018,247,,,,1960.7138000000118,1961.2135,1960.2031000000238,1960.713700000018,1957.7359999999999,1960.203,1961.2135,1961.7135,1961.713600000024,1964.635600000024,2587,1964.635600000024,5,1964.641100000024,5,15,165,23,1,1.4,0.3,Time
,,513989,001,女性,25,2025-06-04_10h09.17.693,Serial_Dependence_U,2023.2.3,Win32,93.45794392525906,,,,,,1964.6413000000118,284,5,1964.641400000006,284,,,,1968.613800000012,1969.1136000000238,1968.102800000012,1968.6137000000178,1965.6361000000238,1968.1026000000238,1969.1136000000238,1969.6137000000178,1969.6137000000178,1973.1803000000118,3122,1973.1804000000059,5,1973.185300000012,5,16,166,13,1,1.4,0.3,Time
,,513989,001,女性,25,2025-06-04_10h09.17.693,Serial_Dependence_U,2023.2.3,Win32,93.45794392525906,,,,,,1973.1855,349,5,1973.185600000024,349,,,,1976.9582000000178,1977.458100000024,1976.4473000000119,1976.9582000000178,1974.181,1976.4473000000119,1977.458100000024,1977.9582000000178,1977.9582000000178,1980.7025,2144,1980.7025,5,1980.707800000012,5,17,167,22,1,1.2,0.3,Time
,,513989,001,女性,25,2025-06-04_10h09.17.693,Serial_Dependence_U,2023.2.3,Win32,93.45794392525906,,,,,,1980.708,82,5,1980.708100000024,82,,,,1984.0916000000238,1984.591800000012,1983.5805,1984.0915,1981.714300000012,1983.580400000006,1984.591800000012,1985.0912000000178,1985.0913000000119,1987.6027000000179,2033,1987.602800000012,5,1987.6075,5,18,168,10,1,0.8,0.3,Time
,,513989,001,女性,25,2025-06-04_10h09.17.693,Serial_Dependence_U,2023.2.3,Win32,93.45794392525906,,,,,,1987.6077000000178,187,5,1987.6078000000118,187,,,,1991.558,1992.057900000006,1991.0474000000058,1991.558,1988.614,1991.047300000012,1992.058,1992.558200000018,1992.558200000018,1995.3803000000119,2244,1995.380400000006,5,1995.3858000000118,5,19,169,28,1,1.4,0.7,Time
,,513989,001,女性,25,2025-06-04_10h09.17.693,Serial_Dependence_U,2023.2.3,Win32,93.45794392525906,,,,,,1995.386,223,5,1995.3862000000179,223,,,,1999.5252000000178,2000.024700000018,1999.0142000000178,1999.5252000000178,1996.380800000012,1999.0142000000178,2000.024800000012,2000.5246000000238,2000.5246000000238,2003.5692000000179,2822,2003.5692000000179,5,2003.5746000000238,5,20,170,19,1,1.6,0.7,Time
,,513989,001,女性,25,2025-06-04_10h09.17.693,Serial_Dependence_U,2023.2.3,Win32,93.45794392525906,,,,,,2003.574800000012,12,5,2003.574900000006,12,,,,2007.313800000012,2007.8136000000238,2006.802800000012,2007.3136000000238,2004.5695,2006.802700000018,2007.8136000000238,2008.313700000018,2008.313700000018,2011.036,2388,2011.036100000024,5,2011.0415,5,21,171,27,1,1.2,0.7,Time
,,513989,001,女性,25,2025-06-04_10h09.17.693,Serial_Dependence_U,2023.2.3,Win32,93.45794392525906,,,,,,2011.041700000018,48,5,2011.0419000000059,48,,,,2014.3809000000058,2014.8804000000061,2013.8805,2014.3809000000058,2012.0473000000118,2013.8804000000061,2014.8804000000061,2015.3806000000238,2015.3806000000238,2017.635900000006,1877,2017.6360000000002,5,2017.6414000000061,5,22,172,15,1,0.8,0.7,Time
,,513989,001,女性,25,2025-06-04_10h09.17.693,Serial_Dependence_U,2023.2.3,Win32,93.45794392525906,,,,,,2017.6416000000238,321,5,2017.641700000018,321,,,,2020.991800000012,2021.4915,2020.481100000024,2020.991800000012,2018.6471000000242,2020.481100000024,2021.491600000024,2021.991600000024,2021.9917000000182,2023.8915000000002,1554,2023.891600000024,5,2023.8968000000123,5,23,173,5,1,0.8,0.7,Time
,,513989,001,女性,25,2025-06-04_10h09.17.693,Serial_Dependence_U,2023.2.3,Win32,93.45794392525906,,,,,,2023.896900000006,340,5,2023.8971000000242,340,,,,2027.669700000018,2028.169200000018,2027.1585,2027.669700000018,2024.891900000006,2027.1584000000062,2028.169200000018,2028.669200000018,2028.669200000018,2031.1025000000004,2154,2031.1025000000004,5,2031.1074000000062,5,24,174,12,1,1.2,0.3,Time
,,513989,001,女性,25,2025-06-04_10h09.17.693,Serial_Dependence_U,2023.2.3,Win32,93.45794392525906,,,,,,2031.107600000024,80,5,2031.107600000024,80,,,,2034.480800000012,2034.9802000000182,2033.969600000024,2034.480800000012,2032.102800000012,2033.969600000024,2034.9802000000182,2035.480300000012,2035.480300000012,2037.5804000000062,1724,2037.5804000000062,5,2037.5855000000001,5,25,175,20,1,0.8,0.3,Time
,,513989,001,女性,25,2025-06-04_10h09.17.693,Serial_Dependence_U,2023.2.3,Win32,93.45794392525906,,,,,,2037.5857000000183,96,5,2037.5858000000121,96,,,,2041.169800000012,2041.6693000000123,2040.6586000000239,2041.169700000018,2038.5916000000238,2040.6585,2041.6693000000123,2042.1693000000123,2042.1694000000061,2044.9249000000063,2400,2044.9249000000063,5,2044.930400000006,5,26,176,11,1,1,0.3,Time
,,513989,001,女性,25,2025-06-04_10h09.17.693,Serial_Dependence_U,2023.2.3,Win32,93.45794392525906,,,,,,2044.930700000018,97,5,2044.930800000012,97,,,,2049.103100000024,2049.602400000006,2048.602700000018,2049.103100000024,2045.9359000000063,2048.602700000018,2049.602400000006,2050.1025000000004,2050.1025000000004,2052.7470000000003,2255,2052.7470000000003,5,2052.752600000024,5,27,177,24,1,1.6,0.3,Time
,,513989,001,女性,25,2025-06-04_10h09.17.693,Serial_Dependence_U,2023.2.3,Win32,93.45794392525906,,,,,,2052.7529000000063,40,5,2052.7529000000063,40,,,,2056.2920000000004,2056.7918000000122,2055.780900000006,2056.2918000000122,2053.747200000018,2055.7808000000123,2056.7918000000122,2057.291400000006,2057.291400000006,2059.6138000000124,1888,2059.6138000000124,5,2059.6192000000183,5,28,178,16,1,1,0.7,Time
,,513989,001,女性,25,2025-06-04_10h09.17.693,Serial_Dependence_U,2023.2.3,Win32,93.45794392525906,,,,,,2059.619400000006,75,5,2059.6195000000002,75,,,,2063.7698000000123,2064.269300000012,2063.2585000000004,2063.7698000000123,2060.625300000012,2063.2585000000004,2064.269300000012,2064.769400000006,2064.7695000000003,2067.369400000006,2111,2067.369400000006,5,2067.3748000000123,5,29,179,9,1,1.6,0.7,Time
,,513989,001,女性,25,2025-06-04_10h09.17.693,Serial_Dependence_U,2023.2.3,Win32,93.45794392525906,,,,,,2067.375,152,6,2600.608600000024,152,s,533.2163000000123,,2604.566400000006,2605.066200000018,2604.055100000024,2604.5663000000122,2601.620800000012,2604.055100000024,2605.066200000018,2605.558600000024,2605.558600000024,2608.5665000000004,2568,2608.5665000000004,5,2608.572,6,0,180,18,1,1.4,0.7,Time
,,513989,001,女性,25,2025-06-04_10h09.17.693,Serial_Dependence_U,2023.2.3,Win32,93.45794392525906,,,,,,2608.5722000000183,170,6,2608.574,170,,,,2611.918900000006,2612.4207000000183,2611.411,2611.918700000018,2609.574200000018,2611.410800000012,2612.420800000012,2612.9215000000004,2612.9215000000004,2615.255700000018,2322,2615.255700000018,5,2615.261300000012,6,1,181,5,1,0.8,0.7,Time
,,513989,001,女性,25,2025-06-04_10h09.17.693,Serial_Dependence_U,2023.2.3,Win32,93.45794392525906,,,,,,2615.2615,238,6,2615.261700000018,238,,,,2618.603300000012,2619.103,2618.099900000006,2618.603200000018,2616.266600000024,2618.099900000006,2619.103100000024,2619.610100000024,2619.610100000024,2629.132200000018,1800,2629.132300000012,5,2629.137900000006,6,2,182,15,1,0.8,0.7,Time
,,513989,001,女性,25,2025-06-04_10h09.17.693,Serial_Dependence_U,2023.2.3,Win32,93.45794392525906,,,,,,2629.1383000000124,256,6,2629.1383000000124,256,,,,2633.321400000006,2633.813900000006,2632.810700000018,2633.3213000000123,2630.1448000000123,2632.810600000024,2633.813900000006,2634.314100000024,2634.314100000024,2637.188800000012,2533,2637.188800000012,5,2637.194600000024,6,3,183,14,1,1.6,0.3,Time
,,513989,001,女性,25,2025-06-04_10h09.17.693,Serial_Dependence_U,2023.2.3,Win32,93.45794392525906,,,,,,2637.1949000000063,287,6,2637.1949000000063,287,,,,2641.1592000000182,2641.658600000024,2640.6558000000123,2641.1592000000182,2638.192100000024,2640.655700000018,2641.658600000024,2642.158700000018,2642.158700000018,2645.687200000018,2487,2645.6873000000123,5,2645.693,6,4,184,3,1,1.4,0.3,Time
,,513989,001,女性,25,2025-06-04_10h09.17.693,Serial_Dependence_U,2023.2.3,Win32,93.45794392525906,,,,,,2645.693300000012,287,6,2645.693400000006,287,,,,2649.2743000000123,2649.7695000000003,2648.766200000018,2649.2743000000123,2646.696700000018,2648.766,2649.7695000000003,2650.264300000012,2650.2644000000064,2653.5885000000003,2534,2653.5885000000003,5,2653.5945,6,5,185,1,1,1,0.3,Time
,,513989,001,女性,25,2025-06-04_10h09.17.693,Serial_Dependence_U,2023.2.3,Win32,93.45794392525906,,,,,,2653.5947000000183,283,6,2653.594900000006,283,,,,2657.158800000012,2657.6645000000003,2656.652300000012,2657.158700000018,2654.610600000024,2656.652200000018,2657.6645000000003,2658.162200000018,2658.162200000018,2661.1558000000123,2578,2661.1558000000123,5,2661.161300000012,6,6,186,16,1,1,0.7,Time
,,513989,001,女性,25,2025-06-04_10h09.17.693,Serial_Dependence_U,2023.2.3,Win32,93.45794392525906,,,,,,2661.161600000024,50,6,2661.161600000024,50,,,,2664.955200000018,2665.454700000018,2664.445100000024,2664.955200000018,2662.177800000012,2664.445,2665.454700000018,2665.947700000018,2665.947800000012,2669.056,2690,2669.056,5,2669.061300000012,6,7,187,22,1,1.2,0.3,Time
,,513989,001,女性,25,2025-06-04_10h09.17.693,Serial_Dependence_U,2023.2.3,Win32,93.45794392525906,,,,,,2669.0615000000003,22,6,2669.061600000024,22,,,,2672.814900000006,2673.3140000000003,2672.3101000000242,2672.814800000012,2670.070400000006,2672.3100000000004,2673.314100000024,2673.820900000006,2673.820900000006,2676.9669000000063,2701,2676.9669000000063,5,2676.972600000024,6,8,188,7,1,1.2,0.7,Time
,,513989,001,女性,25,2025-06-04_10h09.17.693,Serial_Dependence_U,2023.2.3,Win32,93.45794392525906,,,,,,2676.9730000000004,274,6,2676.9731000000243,274,,,,2680.7324000000062,2681.230300000012,2680.222200000018,2680.732200000018,2677.987,2680.222100000024,2681.230300000012,2681.725600000024,2681.725600000024,2683.711400000006,1934,2683.7115000000003,5,2683.7169000000063,6,9,189,27,1,1.2,0.7,Time
,,513989,001,女性,25,2025-06-04_10h09.17.693,Serial_Dependence_U,2023.2.3,Win32,93.45794392525906,,,,,,2683.717100000024,168,6,2683.7172000000182,168,,,,2687.8595,2688.365400000006,2687.352200000018,2687.8593000000124,2684.7208000000123,2687.352200000018,2688.365400000006,2688.8585000000003,2688.858600000024,2692.089300000012,3079,2692.089300000012,5,2692.0947000000183,6,10,190,9,1,1.6,0.7,Time
,,513989,001,女性,25,2025-06-04_10h09.17.693,Serial_Dependence_U,2023.2.3,Win32,93.45794392525906,,,,,,2692.0950000000003,98,6,2692.0950000000003,98,,,,2696.2780000000002,2696.7700000000004,2695.767200000018,2696.277900000006,2693.0992000000183,2695.767200000018,2696.7700000000004,2697.265200000018,2697.265200000018,2700.0595000000003,2759,2700.059600000024,5,2700.065,6,11,191,4,1,1.6,0.3,Time
,,513989,001,女性,25,2025-06-04_10h09.17.693,Serial_Dependence_U,2023.2.3,Win32,93.45794392525906,,,,,,2700.065200000018,175,6,2700.065300000012,175,,,,2703.6425000000004,2704.1364000000062,2703.1327000000183,2703.642400000006,2701.065900000006,2703.132600000024,2704.1364000000062,2704.636200000018,2704.636300000012,2707.067300000012,1934,2707.067300000012,5,2707.072600000024,6,12,192,11,1,1,0.3,Time
,,513989,001,女性,25,2025-06-04_10h09.17.693,Serial_Dependence_U,2023.2.3,Win32,93.45794392525906,,,,,,2707.072800000012,26,6,2707.072800000012,26,,,,2711.2485,2711.7476000000242,2710.744400000006,2711.2485,2708.0764000000063,2710.744400000006,2711.7476000000242,2712.247900000006,2712.248,2715.5220000000004,2635,2715.5220000000004,5,2715.5274000000063,6,13,193,24,1,1.6,0.3,Time
,,513989,001,女性,25,2025-06-04_10h09.17.693,Serial_Dependence_U,2023.2.3,Win32,93.45794392525906,,,,,,2715.527600000024,183,6,2715.5277000000183,183,,,,2719.4703000000122,2719.9700000000003,2718.9607000000183,2719.470200000018,2716.525900000006,2718.960600000024,2719.9700000000003,2720.473300000012,2720.473400000006,2723.6215,2669,2723.621600000024,5,2723.627200000018,6,14,194,8,1,1.4,0.7,Time
,,513989,001,女性,25,2025-06-04_10h09.17.693,Serial_Dependence_U,2023.2.3,Win32,93.45794392525906,,,,,,2723.6275,244,6,2723.627600000024,244,,,,2727.374700000018,2727.869600000024,2726.866700000018,2727.374700000018,2724.632600000024,2726.866700000018,2727.869600000024,2728.369800000012,2728.369900000006,2731.3555,2656,2731.355600000024,5,2731.360900000006,6,15,195,17,1,1.2,0.7,Time
,,513989,001,女性,25,2025-06-04_10h09.17.693,Serial_Dependence_U,2023.2.3,Win32,93.45794392525906,,,,,,2731.361200000018,267,6,2731.3613000000123,267,,,,2735.305400000006,2735.803100000024,2734.800100000024,2735.305200000018,2732.3660000000004,2734.800100000024,2735.803100000024,2736.303100000024,2736.303100000024,2739.3215,2346,2739.3215,5,2739.327100000024,6,16,196,28,1,1.4,0.7,Time
,,513989,001,女性,25,2025-06-04_10h09.17.693,Serial_Dependence_U,2023.2.3,Win32,93.45794392525906,,,,,,2739.327400000006,1,6,2739.327400000006,1,,,,2743.4784000000063,2743.9866000000243,2742.966800000012,2743.478300000012,2740.3325000000004,2742.966700000018,2743.9866000000243,2744.481100000024,2744.481200000018,2748.211300000012,2731,2748.211300000012,5,2748.216800000012,6,17,197,19,1,1.6,0.7,Time
,,513989,001,女性,25,2025-06-04_10h09.17.693,Serial_Dependence_U,2023.2.3,Win32,93.45794392525906,,,,,,2748.217,13,6,2748.217100000024,13,,,,2751.599300000012,2752.0919000000063,2751.089600000024,2751.5992000000183,2749.221800000012,2751.089600000024,2752.0919000000063,2752.5865000000003,2752.5865000000003,2755.191900000006,2191,2755.192,5,2755.197,6,18,198,10,1,0.8,0.3,Time
,,513989,001,女性,25,2025-06-04_10h09.17.693,Serial_Dependence_U,2023.2.3,Win32,93.45794392525906,,,,,,2755.1972000000183,175,6,2755.197300000012,175,,,,2758.559700000018,2759.051700000018,2758.056100000024,2758.5595000000003,2756.1896000000243,2758.056,2759.051700000018,2759.5440000000003,2759.5440000000003,2763.779,2745,2763.779100000024,5,2763.7844000000064,6,19,199,0,1,0.8,0.3,Time
,,513989,001,女性,25,2025-06-04_10h09.17.693,Serial_Dependence_U,2023.2.3,Win32,93.45794392525906,,,,,,2763.784700000018,303,6,2763.784800000012,303,,,,2767.570700000018,2768.069800000012,2767.067100000024,2767.570600000024,2764.799700000018,2767.067,2768.069800000012,2768.5663000000122,2768.5663000000122,2770.889800000012,2013,2770.889800000012,5,2770.895300000012,6,20,200,2,1,1.2,0.3,Time
,,513989,001,女性,25,2025-06-04_10h09.17.693,Serial_Dependence_U,2023.2.3,Win32,93.45794392525906,,,,,,2770.8955,290,6,2770.895600000024,290,,,,2774.8705,2775.365400000006,2774.3669000000064,2774.870400000006,2771.899600000024,2774.366800000012,2775.3655000000003,2775.858700000018,2775.858700000018,2778.810600000024,2666,2778.810600000024,5,2778.816200000018,6,21,201,23,1,1.4,0.3,Time
,,513989,001,女性,25,2025-06-04_10h09.17.693,Serial_Dependence_U,2023.2.3,Win32,93.45794392525906,,,,,,2778.8165000000004,129,6,2778.8165000000004,129,,,,2782.177300000012,2782.6699000000062,2781.666900000006,2782.1772000000183,2779.825600000024,2781.6668000000122,2782.6699000000062,2783.1696000000243,2783.1696000000243,2785.163200000018,1697,2785.163300000012,5,2785.170200000018,6,22,202,25,1,0.8,0.7,Time
,,513989,001,女性,25,2025-06-04_10h09.17.693,Serial_Dependence_U,2023.2.3,Win32,93.45794392525906,,,,,,2785.1704000000063,14,6,2785.170600000024,14,,,,2788.5370000000003,2789.036900000006,2788.032900000006,2788.536900000006,2786.172200000018,2788.0328000000122,2789.036900000006,2789.5364000000063,2789.5365,2792.400300000012,2477,2792.4004000000064,5,2792.405600000024,6,23,203,20,1,0.8,0.3,Time
,,513989,001,女性,25,2025-06-04_10h09.17.693,Serial_Dependence_U,2023.2.3,Win32,93.45794392525906,,,,,,2792.405900000006,37,6,2792.4060000000004,37,,,,2796.548100000024,2797.0480000000002,2796.0455,2796.5480000000002,2793.4038000000123,2796.0454000000063,2797.0480000000002,2797.5480000000002,2797.5480000000002,2800.6558000000123,2789,2800.6558000000123,5,2800.6615,6,24,204,29,1,1.6,0.7,Time
,,513989,001,女性,25,2025-06-04_10h09.17.693,Serial_Dependence_U,2023.2.3,Win32,93.45794392525906,,,,,,2800.661800000012,250,6,2800.661800000012,250,,,,2804.633400000006,2805.1255,2804.132900000006,2804.6333000000122,2801.661,2804.132800000012,2805.1255,2805.6254000000063,2805.6254000000063,2808.101100000024,2224,2808.101100000024,5,2808.106400000006,6,25,205,13,1,1.4,0.3,Time
,,513989,001,女性,25,2025-06-04_10h09.17.693,Serial_Dependence_U,2023.2.3,Win32,93.45794392525906,,,,,,2808.106700000018,170,6,2808.1068000000123,170,,,,2811.8815000000004,2812.381100000024,2811.378100000024,2811.881400000006,2809.103200000018,2811.378,2812.381100000024,2812.888400000006,2812.888400000006,2815.743400000006,2521,2815.743400000006,5,2815.749100000024,6,26,206,12,1,1.2,0.3,Time
,,513989,001,女性,25,2025-06-04_10h09.17.693,Serial_Dependence_U,2023.2.3,Win32,93.45794392525906,,,,,,2815.749300000012,336,6,2815.749300000012,336,,,,2819.318700000018,2819.814400000006,2818.810600000024,2819.318600000024,2816.749600000024,2818.8105,2819.8145000000004,2820.3146000000243,2820.3146000000243,2823.072100000024,2333,2823.072100000024,5,2823.0775000000003,6,27,207,21,1,1,0.3,Time
,,513989,001,女性,25,2025-06-04_10h09.17.693,Serial_Dependence_U,2023.2.3,Win32,93.45794392525906,,,,,,2823.0778000000123,205,6,2823.077900000006,205,,,,2826.6175000000003,2827.1105000000002,2826.112200000018,2826.617400000006,2824.077300000012,2826.112200000018,2827.1105000000002,2827.603200000018,2827.603300000012,2829.832600000024,1822,2829.832600000024,5,2829.838400000006,6,28,208,6,1,1,0.7,Time
,,513989,001,女性,25,2025-06-04_10h09.17.693,Serial_Dependence_U,2023.2.3,Win32,93.45794392525906,,,,,,2829.838700000018,190,6,2829.8388000000123,190,,,,2833.3880000000004,2833.882600000024,2832.8785000000003,2833.387900000006,2830.841200000018,2832.878400000006,2833.8827000000183,2834.381200000018,2834.381200000018,2837.1330000000003,2280,2837.1330000000003,5,2837.138400000006,6,29,209,26,1,1,0.7,Time
,,513989,001,女性,25,2025-06-04_10h09.17.693,Serial_Dependence_U,2023.2.3,Win32,93.45794392525906,,,,,,2837.138600000024,258,7,2858.208700000018,258,s,21.054900000006,,2862.3928000000124,2862.8923000000123,2861.8813000000123,2862.392700000018,2859.214600000024,2861.881200000018,2862.8923000000123,2863.3926000000242,2863.3926000000242,2866.8035000000004,2933,2866.8035000000004,5,2866.8087000000182,7,0,210,24,1,1.6,0.3,Time
,,513989,001,女性,25,2025-06-04_10h09.17.693,Serial_Dependence_U,2023.2.3,Win32,93.45794392525906,,,,,,2866.809,196,7,2866.809900000006,196,,,,2870.3593000000124,2870.858700000018,2869.847900000006,2870.359200000018,2867.815,2869.8478000000123,2870.8588000000123,2871.359200000018,2871.3593000000124,2874.325900000006,2699,2874.325900000006,5,2874.331100000024,7,1,211,26,1,1,0.7,Time
,,513989,001,女性,25,2025-06-04_10h09.17.693,Serial_Dependence_U,2023.2.3,Win32,93.45794392525906,,,,,,2874.331300000012,31,7,2874.3314000000064,31,,,,2878.0705000000003,2878.5702000000183,2877.559400000006,2878.070400000006,2875.326200000018,2877.559400000006,2878.570300000012,2879.0702000000183,2879.070300000012,2881.6482000000183,2255,2881.6482000000183,5,2881.652800000012,7,2,212,27,1,1.2,0.7,Time
,,513989,001,女性,25,2025-06-04_10h09.17.693,Serial_Dependence_U,2023.2.3,Win32,93.45794392525906,,,,,,2881.653100000024,33,7,2881.653200000018,33,,,,2885.6372000000183,2886.1369000000063,2885.126200000018,2885.6372000000183,2882.6592000000182,2885.126100000024,2886.137,2886.636800000012,2886.636800000012,2889.281300000012,2179,2889.281300000012,5,2889.2867000000183,7,3,213,13,1,1.4,0.3,Time
,,513989,001,女性,25,2025-06-04_10h09.17.693,Serial_Dependence_U,2023.2.3,Win32,93.45794392525906,,,,,,2889.286900000006,149,7,2889.2870000000003,149,,,,2893.059600000024,2893.559300000012,2892.548600000024,2893.0595000000003,2890.281700000018,2892.548600000024,2893.559400000006,2894.059300000012,2894.059400000006,2896.6815,2245,2896.681600000024,5,2896.686700000018,7,4,214,12,1,1.2,0.3,Time
,,513989,001,女性,25,2025-06-04_10h09.17.693,Serial_Dependence_U,2023.2.3,Win32,93.45794392525906,,,,,,2896.6870000000004,28,7,2896.6870000000004,28,,,,2900.637300000012,2901.137300000012,2900.126400000006,2900.637300000012,2897.6927000000182,2900.126400000006,2901.137300000012,2901.637,2901.637,2904.4700000000003,2432,2904.470100000024,5,2904.475200000018,7,5,215,28,1,1.4,0.7,Time
,,513989,001,女性,25,2025-06-04_10h09.17.693,Serial_Dependence_U,2023.2.3,Win32,93.45794392525906,,,,,,2904.4755,180,7,2904.475600000024,180,,,,2908.059700000018,2908.559200000018,2907.548600000024,2908.059600000024,2905.481600000024,2907.548600000024,2908.559200000018,2909.059300000012,2909.059300000012,2911.481100000024,2079,2911.481200000018,5,2911.4863000000123,7,6,216,11,1,1,0.3,Time
,,513989,001,女性,25,2025-06-04_10h09.17.693,Serial_Dependence_U,2023.2.3,Win32,93.45794392525906,,,,,,2911.489100000024,10,7,2911.489200000018,10,,,,2915.226,2915.7259000000063,2914.715,2915.226,2912.481700000018,2914.7149000000063,2915.7259000000063,2916.2259000000063,2916.2259000000063,2918.6259000000064,2066,2918.6259000000064,5,2918.631200000018,7,7,217,7,1,1.2,0.7,Time
,,513989,001,女性,25,2025-06-04_10h09.17.693,Serial_Dependence_U,2023.2.3,Win32,93.45794392525906,,,,,,2918.631400000006,78,7,2918.6315000000004,78,,,,2921.9815000000003,2922.481300000012,2921.470700000018,2921.981400000006,2919.6372000000183,2921.4705000000004,2922.481300000012,2922.9815000000003,2922.981600000024,2925.5924000000064,2255,2925.5924000000064,5,2925.597100000024,7,8,218,15,1,0.8,0.7,Time
,,513989,001,女性,25,2025-06-04_10h09.17.693,Serial_Dependence_U,2023.2.3,Win32,93.45794392525906,,,,,,2925.597400000006,144,7,2925.5975000000003,144,,,,2928.981700000018,2929.4815000000003,2928.472,2928.981600000024,2926.6037000000183,2928.4719000000064,2929.4815000000003,2929.981400000006,2929.9815000000003,2932.414700000018,2133,2932.414700000018,5,2932.420200000018,7,9,219,0,1,0.8,0.3,Time
,,513989,001,女性,25,2025-06-04_10h09.17.693,Serial_Dependence_U,2023.2.3,Win32,93.45794392525906,,,,,,2932.4204000000063,16,7,2932.420600000024,16,,,,2935.8039000000063,2936.303700000018,2935.293100000024,2935.8039000000063,2933.4261000000242,2935.293,2936.303800000012,2936.803400000006,2936.803400000006,2939.559400000006,2233,2939.559400000006,5,2939.564400000006,7,10,220,20,1,0.8,0.3,Time
,,513989,001,女性,25,2025-06-04_10h09.17.693,Serial_Dependence_U,2023.2.3,Win32,93.45794392525906,,,,,,2939.5646000000243,248,7,2939.564700000018,248,,,,2943.5153000000123,2944.014700000018,2943.004100000024,2943.515200000018,2940.570700000018,2943.0040000000004,2944.014700000018,2944.514800000012,2944.514800000012,2947.092600000024,2144,2947.092700000018,5,2947.098600000024,7,11,221,8,1,1.4,0.7,Time
,,513989,001,女性,25,2025-06-04_10h09.17.693,Serial_Dependence_U,2023.2.3,Win32,93.45794392525906,,,,,,2947.0989000000063,252,7,2947.0989000000063,252,,,,2951.2374000000063,2951.737,2950.726300000012,2951.237300000012,2948.093200000018,2950.726300000012,2951.737,2952.237100000024,2952.237100000024,2954.892700000018,2313,2954.892700000018,5,2954.898,7,12,222,29,1,1.6,0.7,Time
,,513989,001,女性,25,2025-06-04_10h09.17.693,Serial_Dependence_U,2023.2.3,Win32,93.45794392525906,,,,,,2954.898300000012,46,7,2954.898400000006,46,,,,2958.470600000024,2958.9705000000004,2957.9595000000004,2958.470600000024,2955.893,2957.959400000006,2958.9705000000004,2959.470400000006,2959.470400000006,2961.7595,1933,2961.7595,5,2961.7650000000003,7,13,223,21,1,1,0.3,Time
,,513989,001,女性,25,2025-06-04_10h09.17.693,Serial_Dependence_U,2023.2.3,Win32,93.45794392525906,,,,,,2961.765200000018,290,7,2961.765400000006,290,,,,2965.548200000018,2966.048400000006,2965.0375000000004,2965.548100000024,2962.7705,2965.0375000000004,2966.048400000006,2966.5480000000002,2966.548200000018,2968.936800000012,1879,2968.936800000012,5,2968.942100000024,7,14,224,22,1,1.2,0.3,Time
,,513989,001,女性,25,2025-06-04_10h09.17.693,Serial_Dependence_U,2023.2.3,Win32,93.45794392525906,,,,,,2968.942300000012,60,7,2968.9424000000063,60,,,,2973.081800000012,2973.581700000018,2972.5710000000004,2973.081700000018,2969.9375,2972.5710000000004,2973.581700000018,2974.0814000000064,2974.0814000000064,2976.959100000024,2511,2976.959100000024,5,2976.964400000006,7,15,225,9,1,1.6,0.7,Time
,,513989,001,女性,25,2025-06-04_10h09.17.693,Serial_Dependence_U,2023.2.3,Win32,93.45794392525906,,,,,,2976.964700000018,109,7,2976.964700000018,109,,,,2980.314700000018,2980.8145000000004,2979.803700000018,2980.314700000018,2977.971300000012,2979.803700000018,2980.8145000000004,2981.314900000006,2981.315,2983.4815000000003,1422,2983.481600000024,5,2983.4865000000004,7,16,226,25,1,0.8,0.7,Time
,,513989,001,女性,25,2025-06-04_10h09.17.693,Serial_Dependence_U,2023.2.3,Win32,93.45794392525906,,,,,,2983.486700000018,82,7,2983.486800000012,82,,,,2987.6372000000183,2988.136800000012,2987.126200000018,2987.6372000000183,2984.493300000012,2987.126100000024,2988.136800000012,2988.636800000012,2988.6369000000063,2991.059100000024,2055,2991.059200000018,4,2991.064800000012,7,17,227,19,1,1.6,0.7,Time
,,513989,001,女性,25,2025-06-04_10h09.17.693,Serial_Dependence_U,2023.2.3,Win32,93.45794392525906,,,,,,2991.065,124,7,2991.065100000024,124,,,,2994.437100000024,2994.937100000024,2993.9261000000242,2994.4370000000004,2992.059700000018,2993.9260000000004,2994.937100000024,2995.4370000000004,2995.437100000024,2997.537200000018,1778,2997.5373000000122,5,2997.5423000000123,7,18,228,10,1,0.8,0.3,Time
,,513989,001,女性,25,2025-06-04_10h09.17.693,Serial_Dependence_U,2023.2.3,Win32,93.45794392525906,,,,,,2997.542600000024,32,7,2997.542600000024,32,,,,3001.126400000006,3001.625800000012,3000.6150000000002,3001.126300000012,2998.548400000006,3000.6150000000002,3001.625800000012,3002.126100000024,3002.126200000018,3004.592600000024,2100,3004.592600000024,5,3004.597700000018,7,19,229,1,1,1,0.3,Time
,,513989,001,女性,25,2025-06-04_10h09.17.693,Serial_Dependence_U,2023.2.3,Win32,93.45794392525906,,,,,,3004.5980000000004,348,7,3004.5981000000243,348,,,,3008.770700000018,3009.270600000024,3008.259800000012,3008.770700000018,3005.5930000000003,3008.2597000000183,3009.270600000024,3009.770600000024,3009.770600000024,3012.159300000012,1990,3012.159300000012,4,3012.164900000006,7,20,230,4,1,1.6,0.3,Time
,,513989,001,女性,25,2025-06-04_10h09.17.693,Serial_Dependence_U,2023.2.3,Win32,93.45794392525906,,,,,,3012.1651000000243,255,7,3012.165200000018,255,,,,3015.9485000000004,3016.448100000024,3015.4373000000123,3015.9485000000004,3013.170900000006,3015.4373000000123,3016.448100000024,3016.948400000006,3016.948400000006,3019.470200000018,2165,3019.4703000000122,5,3019.475700000018,7,21,231,2,1,1.2,0.3,Time
,,513989,001,女性,25,2025-06-04_10h09.17.693,Serial_Dependence_U,2023.2.3,Win32,93.45794392525906,,,,,,3019.476,209,7,3019.476100000024,209,,,,3023.46,3023.9593000000123,3022.9489000000062,3023.459800000012,3020.4818000000123,3022.948700000018,3023.9593000000123,3024.459400000006,3024.459400000006,3027.259300000012,2400,3027.259300000012,5,3027.264700000018,7,22,232,3,1,1.4,0.3,Time
,,513989,001,女性,25,2025-06-04_10h09.17.693,Serial_Dependence_U,2023.2.3,Win32,93.45794392525906,,,,,,3027.2650000000003,94,7,3027.265100000024,94,,,,3031.215400000006,3031.714700000018,3030.703800000012,3031.215400000006,3028.2705,3030.703700000018,3031.714700000018,3032.2149000000063,3032.215,3035.059400000006,2356,3035.0595000000003,5,3035.065200000018,7,23,233,18,1,1.4,0.7,Time
,,513989,001,女性,25,2025-06-04_10h09.17.693,Serial_Dependence_U,2023.2.3,Win32,93.45794392525906,,,,,,3035.0655,310,7,3035.065600000024,310,,,,3038.404,3038.9035000000003,3037.892700000018,3038.404,3036.059700000018,3037.8926000000242,3038.9035000000003,3039.4038000000123,3039.4038000000123,3042.471100000024,2547,3042.471200000018,5,3042.4765,7,24,234,5,1,0.8,0.7,Time
,,513989,001,女性,25,2025-06-04_10h09.17.693,Serial_Dependence_U,2023.2.3,Win32,93.45794392525906,,,,,,3042.476700000018,205,7,3042.476800000012,205,,,,3046.448200000018,3046.947900000006,3045.9375,3046.448100000024,3043.4705000000004,3045.9375,3046.947900000006,3047.447800000012,3047.447800000012,3050.0370000000003,2067,3050.037100000024,5,3050.042400000006,7,25,235,23,1,1.4,0.3,Time
,,513989,001,女性,25,2025-06-04_10h09.17.693,Serial_Dependence_U,2023.2.3,Win32,93.45794392525906,,,,,,3050.042700000018,11,7,3050.042700000018,11,,,,3053.582600000024,3054.081700000018,3053.071200000018,3053.5825000000004,3051.0378000000123,3053.071100000024,3054.081700000018,3054.581800000012,3054.581900000006,3056.6040000000003,1966,3056.6040000000003,5,3056.610900000006,7,26,236,6,1,1,0.7,Time
,,513989,001,女性,25,2025-06-04_10h09.17.693,Serial_Dependence_U,2023.2.3,Win32,93.45794392525906,,,,,,3056.611100000024,346,7,3056.611200000018,346,,,,3060.782100000024,3061.282100000024,3060.271,3060.782,3057.604900000006,3060.271,3061.282100000024,3061.7822000000183,3061.7822000000183,3065.5040000000004,2899,3065.5040000000004,5,3065.509200000018,7,27,237,14,1,1.6,0.3,Time
,,513989,001,女性,25,2025-06-04_10h09.17.693,Serial_Dependence_U,2023.2.3,Win32,93.45794392525906,,,,,,3065.5094000000063,282,7,3065.5095,282,,,,3069.260600000024,3069.759600000024,3068.749100000024,3069.260400000006,3066.515400000006,3068.748900000006,3069.759600000024,3070.2594000000063,3070.2594000000063,3072.9375,2235,3072.9375,5,3072.943,7,28,238,17,1,1.2,0.7,Time
,,513989,001,女性,25,2025-06-04_10h09.17.693,Serial_Dependence_U,2023.2.3,Win32,93.45794392525906,,,,,,3072.943300000012,131,7,3072.943300000012,131,,,,3076.493300000012,3076.9930000000004,3075.9824000000062,3076.493300000012,3073.950600000024,3075.982300000012,3076.9931000000242,3077.492700000018,3077.4928000000123,3079.748300000012,1866,3079.7484000000063,5,3079.753600000024,7,29,239,16,1,1,0.7,Time
,,513989,001,女性,25,2025-06-04_10h09.17.693,Serial_Dependence_U,2023.2.3,Win32,93.45794392525906,,,,,,3079.753900000006,215,8,3087.898600000024,215,s,8.127199999988079,,3092.0823000000123,3092.581600000024,3091.5713000000123,3092.0823000000123,3088.9044000000063,3091.571200000018,3092.581600000024,3093.081900000006,3093.081900000006,3095.825900000006,2689,3095.825900000006,5,3095.8320000000003,8,0,240,14,1,1.6,0.3,Time
,,513989,001,女性,25,2025-06-04_10h09.17.693,Serial_Dependence_U,2023.2.3,Win32,93.45794392525906,,,,,,3095.8323000000123,84,8,3095.833200000018,84,,,,3099.370800000012,3099.871300000012,3098.86,3099.370800000012,3096.8265,3098.8599000000063,3099.871300000012,3100.3705,3100.370600000024,3102.448200000018,2000,3102.448200000018,5,3102.4535,8,1,241,6,1,1,0.7,Time
,,513989,001,女性,25,2025-06-04_10h09.17.693,Serial_Dependence_U,2023.2.3,Win32,93.45794392525906,,,,,,3102.453700000018,200,8,3102.453800000012,200,,,,3105.8377000000182,3106.337300000012,3105.3269000000064,3105.8375,3103.460300000012,3105.3269000000064,3106.337300000012,3106.8377000000182,3106.8377000000182,3108.826200000018,1601,3108.826200000018,5,3108.8315000000002,8,2,242,20,1,0.8,0.3,Time
,,513989,001,女性,25,2025-06-04_10h09.17.693,Serial_Dependence_U,2023.2.3,Win32,93.45794392525906,,,,,,3108.831700000018,318,8,3108.831800000012,318,,,,3112.604600000024,3113.1045000000004,3112.104100000024,3112.6045000000004,3109.837800000012,3112.1040000000003,3113.1045000000004,3113.604100000024,3113.604100000024,3116.4370000000004,2510,3116.4370000000004,5,3116.442100000024,8,3,243,2,1,1.2,0.3,Time
,,513989,001,女性,25,2025-06-04_10h09.17.693,Serial_Dependence_U,2023.2.3,Win32,93.45794392525906,,,,,,3116.442300000012,283,8,3116.4424000000063,283,,,,3120.626400000006,3121.126,3120.115700000018,3120.626300000012,3117.449100000024,3120.115600000024,3121.126,3121.6265000000003,3121.626600000024,3124.648300000012,2587,3124.648400000006,5,3124.6538000000123,8,4,244,4,1,1.6,0.3,Time
,,513989,001,女性,25,2025-06-04_10h09.17.693,Serial_Dependence_U,2023.2.3,Win32,93.45794392525906,,,,,,3124.654100000024,10,8,3124.654100000024,10,,,,3128.7935,3129.292800000012,3128.2828000000122,3128.7934000000064,3125.649200000018,3128.282700000018,3129.292800000012,3129.793100000024,3129.7932000000183,3132.303800000012,2178,3132.303800000012,5,3132.3087000000182,8,5,245,19,1,1.6,0.7,Time
,,513989,001,女性,25,2025-06-04_10h09.17.693,Serial_Dependence_U,2023.2.3,Win32,93.45794392525906,,,,,,3132.309,180,8,3132.309100000024,180,,,,3136.057900000006,3136.556200000018,3135.5460000000003,3136.057700000018,3133.307300000012,3135.5460000000003,3136.556300000012,3137.0556000000242,3137.0556000000242,3139.469,2066,3139.469,5,3139.474600000024,8,6,246,7,1,1.2,0.7,Time
,,513989,001,女性,25,2025-06-04_10h09.17.693,Serial_Dependence_U,2023.2.3,Win32,93.45794392525906,,,,,,3139.4748000000122,205,8,3139.474900000006,205,,,,3143.2217000000182,3143.7230000000004,3142.712600000024,3143.2217000000182,3140.478600000024,3142.7124000000063,3143.7230000000004,3144.215400000006,3144.2155000000002,3146.2307000000183,1957,3146.2307000000183,5,3146.235800000012,8,7,247,27,1,1.2,0.7,Time
,,513989,001,女性,25,2025-06-04_10h09.17.693,Serial_Dependence_U,2023.2.3,Win32,93.45794392525906,,,,,,3146.2360000000003,268,8,3146.2360000000003,268,,,,3149.789400000006,3150.287600000024,3149.278900000006,3149.789200000018,3147.2465,3149.278700000018,3150.287600000024,3150.789100000024,3150.789100000024,3153.213100000024,2090,3153.213200000018,5,3153.219,8,8,248,26,1,1,0.7,Time
,,513989,001,女性,25,2025-06-04_10h09.17.693,Serial_Dependence_U,2023.2.3,Win32,93.45794392525906,,,,,,3153.219200000018,67,8,3153.219200000018,67,,,,3156.5668000000123,3157.061400000006,3156.0567000000183,3156.5668000000123,3154.222400000006,3156.0567000000183,3157.0615000000003,3157.5598000000123,3157.559900000006,3160.179300000012,2302,3160.1794000000064,5,3160.1851000000242,8,9,249,15,1,0.8,0.7,Time
,,513989,001,女性,25,2025-06-04_10h09.17.693,Serial_Dependence_U,2023.2.3,Win32,93.45794392525906,,,,,,3160.185300000012,311,8,3160.185400000006,311,,,,3163.7678000000124,3164.2599000000064,3163.257200000018,3163.767700000018,3161.189100000024,3163.257100000024,3164.2599000000064,3164.7595,3164.7595,3166.770700000018,1678,3166.770800000012,5,3166.776700000018,8,10,250,1,1,1,0.3,Time
,,513989,001,女性,25,2025-06-04_10h09.17.693,Serial_Dependence_U,2023.2.3,Win32,93.45794392525906,,,,,,3166.777,163,8,3166.777,163,,,,3170.7152000000183,3171.215,3170.204700000018,3170.7152000000183,3167.7715000000003,3170.204600000024,3171.215,3171.715700000018,3171.715800000012,3174.293,2289,3174.293100000024,5,3174.2980000000002,8,11,251,18,1,1.4,0.7,Time
,,513989,001,女性,25,2025-06-04_10h09.17.693,Serial_Dependence_U,2023.2.3,Win32,93.45794392525906,,,,,,3174.298200000018,355,8,3174.298300000012,355,,,,3178.082200000018,3178.5820000000003,3177.5710000000004,3178.082100000024,3175.304300000012,3177.5710000000004,3178.5820000000003,3179.082600000024,3179.082600000024,3181.6149000000064,2156,3181.6149000000064,5,3181.6205,8,12,252,22,1,1.2,0.3,Time
,,513989,001,女性,25,2025-06-04_10h09.17.693,Serial_Dependence_U,2023.2.3,Win32,93.45794392525906,,,,,,3181.620700000018,20,8,3181.620800000012,20,,,,3185.004400000006,3185.504200000018,3184.493300000012,3185.0043000000123,3182.6268000000123,3184.493200000018,3185.504200000018,3186.004400000006,3186.0045,3188.637400000006,2256,3188.6375000000003,5,3188.642400000006,8,13,253,10,1,0.8,0.3,Time
,,513989,001,女性,25,2025-06-04_10h09.17.693,Serial_Dependence_U,2023.2.3,Win32,93.45794392525906,,,,,,3188.6426000000242,308,8,3188.642700000018,308,,,,3191.971600000024,3192.471,3191.471,3191.9715,3189.638200000018,3191.4708000000123,3192.471,3192.971200000018,3192.971200000018,3195.648400000006,2089,3195.648400000006,5,3195.6538000000123,8,14,254,25,1,0.8,0.7,Time
,,513989,001,女性,25,2025-06-04_10h09.17.693,Serial_Dependence_U,2023.2.3,Win32,93.45794392525906,,,,,,3195.654,61,8,3195.654100000024,61,,,,3199.8045,3200.304300000012,3199.293700000018,3199.8045,3196.660200000018,3199.293600000024,3200.304300000012,3200.804200000018,3200.804200000018,3204.070700000018,2746,3204.070700000018,5,3204.076100000024,8,15,255,9,1,1.6,0.7,Time
,,513989,001,女性,25,2025-06-04_10h09.17.693,Serial_Dependence_U,2023.2.3,Win32,93.45794392525906,,,,,,3204.0764000000063,214,8,3204.0765,214,,,,3208.015800000012,3208.515200000018,3207.515400000006,3208.015800000012,3205.082600000024,3207.515400000006,3208.515200000018,3209.015100000024,3209.015200000018,3211.7374000000063,2291,3211.737600000024,5,3211.743400000006,8,16,256,8,1,1.4,0.7,Time
