Scale_setup.started,Scale_setup.stopped,participant,session,sex,age,date,expName,psychopyVersion,OS,frameRate,Intro.started,Intro.stopped,key_resp_2.keys,key_resp_2.rt,key_resp_2.duration,block.started,direction,Block_id,block.stopped,trial_direction,Block_resp_2.keys,Block_resp_2.rt,Block_resp_2.duration,ITI.started,ITI.stopped,Mask_2.started,Mask_2.stopped,encoding.started,encoding.stopped,Cue.started,Cue.stopped,Response.started,Response.stopped,keyDuration,Feedback_Time.started,FeedbackID_T,Feedback_Time.stopped,trials.thisRepN,trials.thisTrialN,trials.thisN,trials.thisIndex,trials.ran,TimeDur,Coherence1,TrialType
0.0000999999045916411,0.00020000004764142432,573583,001,男,24,2025-06-04_21h02.08.848,Serial_Dependence_U,2023.2.3,Win32,185.18518518438674,,,,,,,,,,,,,,,,,,,,,,,,,,,,,,,,,,,
,,573583,001,男,24,2025-06-04_21h02.08.848,Serial_Dependence_U,2023.2.3,Win32,185.18518518438674,76.12529999995229,179.9422000000477,space,103.79949999999997,,,,,,,,,,,,,,,,,,,,,,,,,,,,,,,
,,573583,001,男,24,2025-06-04_21h02.08.848,Serial_Dependence_U,2023.2.3,Win32,185.18518518438674,,,,,,179.95349999999996,36,0,215.69600000000003,36,s,35.73369999980923,,219.27199999999993,219.77199999999993,218.76729999995234,219.27199999999993,216.70270000004768,218.76709999990464,219.77229999995234,220.27209999990464,220.27259999990463,227.10370000004764,3104,227.10379999995234,5,228.10370000004764,0,0,0,21,1,1,0.3,Time
,,573583,001,男,24,2025-06-04_21h02.08.848,Serial_Dependence_U,2023.2.3,Win32,185.18518518438674,,,,,,228.10439999985692,54,0,228.1057000000477,54,,,,231.84389999985694,232.34239999985698,231.33879999995224,231.84389999985694,229.10439999985692,231.33870000004765,232.34239999985698,232.8413999998569,232.8417999999523,237.84299999999996,3710,237.84309999990467,5,238.84009999990462,0,1,1,17,1,1.2,0.7,Time
,,573583,001,男,24,2025-06-04_21h02.08.848,Serial_Dependence_U,2023.2.3,Win32,185.18518518438674,,,,,,238.8405999999046,242,0,238.8407999999523,242,,,,242.18059999990464,242.6782000000477,241.67529999995224,242.18029999995235,239.84209999990458,241.67520000004765,242.6782000000477,243.1780999999046,243.1780999999046,244.0235999999046,11,244.0235999999046,1,245.02229999995234,0,2,2,25,1,0.8,0.7,Time
,,573583,001,男,24,2025-06-04_21h02.08.848,Serial_Dependence_U,2023.2.3,Win32,185.18518518438674,,,,,,245.02250000000004,219,0,245.02259999990463,219,,,,248.9655999999046,249.4655999999046,248.46029999995233,248.9655999999046,246.02779999995232,248.46029999995233,249.46570000004772,249.96570000004772,249.96570000004772,253.65489999985698,2904,253.65499999999997,5,254.6535999999046,0,3,3,18,1,1.4,0.7,Time
,,573583,001,男,24,2025-06-04_21h02.08.848,Serial_Dependence_U,2023.2.3,Win32,185.18518518438674,,,,,,254.6542000000477,208,0,254.65449999999998,208,,,,258.81949999999995,259.31949999999995,258.3162000000476,258.81939999985696,255.65459999990458,258.3160999999046,259.31959999990465,259.81909999990467,259.81909999990467,263.3035999999046,3243,263.3037000000477,5,264.30120000004763,0,4,4,4,1,1.6,0.3,Time
,,573583,001,男,24,2025-06-04_21h02.08.848,Serial_Dependence_U,2023.2.3,Win32,185.18518518438674,,,,,,264.3013999998569,19,0,264.30150000000003,19,,,,267.8418999998569,268.33920000004764,267.3357000000476,267.8417999999523,265.3028999998569,267.3355999999046,268.33929999995235,268.83929999995235,268.83939999985694,273.72370000004764,3717,273.72370000004764,5,274.7215999999046,0,5,5,6,1,1,0.7,Time
,,573583,001,男,24,2025-06-04_21h02.08.848,Serial_Dependence_U,2023.2.3,Win32,185.18518518438674,,,,,,274.7220999999046,106,0,274.722399999857,106,,,,278.68399999999997,279.1815,278.1832000000477,278.68379999995227,275.72229999995227,278.1832000000477,279.1815999999046,279.6813999998569,279.6815,284.84859999990465,4087,284.84870000004764,5,285.8467000000477,0,6,6,13,1,1.4,0.3,Time
,,573583,001,男,24,2025-06-04_21h02.08.848,Serial_Dependence_U,2023.2.3,Win32,185.18518518438674,,,,,,285.84749999999997,200,0,285.84770000004767,200,,,,289.9812999999523,290.47909999990463,289.4805999999046,289.9812000000477,286.84839999985695,289.4805,290.4792000000476,290.9803999998569,290.9805,296.46359999990466,4810,296.46370000004765,5,297.462,0,7,7,9,1,1.6,0.7,Time
,,573583,001,男,24,2025-06-04_21h02.08.848,Serial_Dependence_U,2023.2.3,Win32,185.18518518438674,,,,,,297.4625,71,0,297.46259999990457,71,,,,301.40089999985696,301.8987999999523,300.900399999857,301.40089999985696,298.46759999990456,300.90029999995227,301.8987999999523,302.3987999999523,302.3988999998569,307.18109999990463,3649,307.1812000000476,5,308.18079999995234,0,8,8,28,1,1.4,0.7,Time
,,573583,001,男,24,2025-06-04_21h02.08.848,Serial_Dependence_U,2023.2.3,Win32,185.18518518438674,,,,,,308.1812000000476,178,0,308.1813999998569,178,,,,311.749,312.24659999990456,311.24799999999993,311.7488999998569,309.1872999999523,311.24789999985694,312.24670000004767,312.74649999999997,312.74649999999997,319.4512000000477,3543,319.4513999998569,5,320.4503999998569,0,9,9,11,1,1,0.3,Time
,,573583,001,男,24,2025-06-04_21h02.08.848,Serial_Dependence_U,2023.2.3,Win32,185.18518518438674,,,,,,320.4507000000476,169,0,320.4507999999523,169,,,,324.21879999995235,324.7160999999046,323.71759999990456,324.21870000004765,321.4518999998569,323.7175,324.7160999999046,325.216,325.2160999999046,328.94449999999995,2948,328.94449999999995,5,329.94429999995225,0,10,10,2,1,1.2,0.3,Time
,,573583,001,男,24,2025-06-04_21h02.08.848,Serial_Dependence_U,2023.2.3,Win32,185.18518518438674,,,,,,329.94489999985694,305,0,329.94520000004763,305,,,,333.3157000000476,333.81429999995225,332.81070000004763,333.31559999990463,330.94959999990465,332.81059999990464,333.81429999995225,334.31449999999995,334.31459999990466,338.270399999857,3527,338.27049999999997,5,339.2685,0,11,11,10,1,0.8,0.3,Time
,,573583,001,男,24,2025-06-04_21h02.08.848,Serial_Dependence_U,2023.2.3,Win32,185.18518518438674,,,,,,339.2692999999523,33,0,339.2693999998569,33,,,,342.8035999999046,343.30120000004763,342.3028999998569,342.8035,340.2693999998569,342.3027000000477,343.30120000004763,343.80120000004763,343.80120000004763,348.0397000000477,3448,348.0397000000477,5,349.0387999999523,0,12,12,26,1,1,0.7,Time
,,573583,001,男,24,2025-06-04_21h02.08.848,Serial_Dependence_U,2023.2.3,Win32,185.18518518438674,,,,,,349.03959999990457,24,0,349.0397000000477,24,,,,353.00670000004766,353.5045,352.500899999857,353.00649999999996,350.04009999990467,352.5007999999523,353.5045999999046,354.005899999857,354.005899999857,357.66039999985696,2733,357.66039999985696,5,358.6588999998569,0,13,13,23,1,1.4,0.3,Time
,,573583,001,男,24,2025-06-04_21h02.08.848,Serial_Dependence_U,2023.2.3,Win32,185.18518518438674,,,,,,358.6592999999523,23,0,358.6595,23,,,,362.3992000000477,362.89679999995235,361.8985,362.3992000000477,359.66509999990467,361.8985,362.89679999995235,363.39670000004764,363.39679999995235,367.3082000000477,2888,367.3082999999523,5,368.3067999999523,0,14,14,27,1,1.2,0.7,Time
,,573583,001,男,24,2025-06-04_21h02.08.848,Serial_Dependence_U,2023.2.3,Win32,185.18518518438674,,,,,,368.3072000000477,22,0,368.3075,22,,,,372.24709999990466,372.7445999999046,371.7412000000477,372.24699999999996,369.3077999999523,371.7410999999046,372.7447000000477,373.2443999998569,373.2445,376.78999999999996,3354,376.79009999990467,5,377.78979999995227,0,15,15,8,1,1.4,0.7,Time
,,573583,001,男,24,2025-06-04_21h02.08.848,Serial_Dependence_U,2023.2.3,Win32,185.18518518438674,,,,,,377.79020000004766,28,0,377.79039999985696,28,,,,381.9328999998569,382.4315999999046,381.4275999999046,381.9328999998569,378.7940999999046,381.4275,382.4315999999046,382.9313999998569,382.9315,387.3890999999046,3561,387.3890999999046,5,388.3857000000477,0,16,16,29,1,1.6,0.7,Time
,,573583,001,男,24,2025-06-04_21h02.08.848,Serial_Dependence_U,2023.2.3,Win32,185.18518518438674,,,,,,388.38609999990456,29,0,388.38629999995226,29,,,,391.7297000000476,392.2293999998569,391.22450000000003,391.7297000000476,389.39139999985696,391.2243999998569,392.2293999998569,392.72929999995233,392.72929999995233,396.351,2897,396.351,5,397.3505999999046,0,17,17,5,1,0.8,0.7,Time
,,573583,001,男,24,2025-06-04_21h02.08.848,Serial_Dependence_U,2023.2.3,Win32,185.18518518438674,,,,,,397.3508999998569,152,0,397.3510999999046,152,,,,400.72229999995227,401.22359999990465,400.2170999999046,400.72229999995227,398.3562000000477,400.217,401.22359999990465,401.72299999999996,401.72309999990466,405.11829999995234,2478,405.11829999995234,5,406.1155999999046,0,18,18,0,1,0.8,0.3,Time
,,573583,001,男,24,2025-06-04_21h02.08.848,Serial_Dependence_U,2023.2.3,Win32,185.18518518438674,,,,,,406.1158999998569,94,0,406.116,94,,,,410.2927999999523,410.7922999999523,409.7873999998569,410.2927000000477,407.12129999995227,409.7872999999523,410.7922999999523,411.2920999999046,411.2920999999046,415.9078999998569,3735,415.908,5,416.9075999999046,0,19,19,24,1,1.6,0.3,Time
,,573583,001,男,24,2025-06-04_21h02.08.848,Serial_Dependence_U,2023.2.3,Win32,185.18518518438674,,,,,,416.9082000000477,52,0,416.9083999998569,52,,,,420.67929999995226,421.1787000000477,420.17429999995227,420.6792000000477,417.9133999998569,420.17409999990457,421.1787000000477,421.6787000000477,421.678899999857,426.2112000000477,3774,426.2112999999523,5,427.2107999999523,0,20,20,22,1,1.2,0.3,Time
,,573583,001,男,24,2025-06-04_21h02.08.848,Serial_Dependence_U,2023.2.3,Win32,185.18518518438674,,,,,,427.2115,73,0,427.2117000000477,73,,,,431.3547999999523,431.8542000000476,430.84929999995234,431.3547000000476,428.2163999998569,430.84929999995234,431.8542000000476,432.35409999990463,432.35409999990463,436.70339999985697,3792,436.70339999985697,5,437.70309999990457,0,21,21,19,1,1.6,0.7,Time
,,573583,001,男,24,2025-06-04_21h02.08.848,Serial_Dependence_U,2023.2.3,Win32,185.18518518438674,,,,,,437.70359999990467,0,0,437.70389999985696,0,,,,441.274899999857,441.7743999998569,440.7693999998569,441.2747999999523,438.70829999995226,440.7692999999523,441.7743999998569,442.2745,442.2745,445.57929999995235,2760,445.57939999985695,5,446.57879999995225,0,22,22,1,1,1,0.3,Time
,,573583,001,男,24,2025-06-04_21h02.08.848,Serial_Dependence_U,2023.2.3,Win32,185.18518518438674,,,,,,446.57939999985695,184,0,446.57949999999994,184,,,,450.3227999999523,450.8225,449.8173999998569,450.3227000000477,447.58479999995234,449.8173999998569,450.8225,451.3222999999523,451.3223999998569,454.716,2645,454.716,5,455.7155999999046,0,23,23,7,1,1.2,0.7,Time
,,573583,001,男,24,2025-06-04_21h02.08.848,Serial_Dependence_U,2023.2.3,Win32,185.18518518438674,,,,,,455.7157999999523,342,0,455.7157999999523,342,,,,459.05449999999996,459.5537999999523,458.5485999999046,459.05429999995226,456.716,458.5485,459.553899999857,460.0537000000477,460.0537000000477,462.8308999998569,2487,462.831,5,463.83050000000003,0,24,24,15,1,0.8,0.7,Time
,,573583,001,男,24,2025-06-04_21h02.08.848,Serial_Dependence_U,2023.2.3,Win32,185.18518518438674,,,,,,463.8307000000476,323,0,463.8307000000476,323,,,,467.8020999999046,468.3017999999523,467.2967000000476,467.8020999999046,464.8360999999046,467.29659999990463,468.3017999999523,468.8017000000476,468.8017999999523,473.04529999995225,3752,473.04529999995225,5,474.04509999990466,0,25,25,3,1,1.4,0.3,Time
,,573583,001,男,24,2025-06-04_21h02.08.848,Serial_Dependence_U,2023.2.3,Win32,185.18518518438674,,,,,,474.04529999995225,329,0,474.04539999985695,329,,,,477.4172999999523,477.9167000000476,476.91179999995234,477.4170999999046,475.05059999990465,476.91170000004763,477.9167000000476,478.41659999990463,478.41659999990463,481.34920000004763,2360,481.34920000004763,5,482.34870000004764,0,26,26,20,1,0.8,0.3,Time
,,573583,001,男,24,2025-06-04_21h02.08.848,Serial_Dependence_U,2023.2.3,Win32,185.18518518438674,,,,,,482.34889999985694,214,0,482.34899999999993,214,,,,485.8932000000476,486.3927000000476,485.38770000004763,485.8930999999046,483.3543999998569,485.38770000004763,486.3928999998569,486.8924999999999,486.89259999990463,490.9028999998569,3657,490.9028999998569,5,491.9025999999046,0,27,27,16,1,1,0.7,Time
,,573583,001,男,24,2025-06-04_21h02.08.848,Serial_Dependence_U,2023.2.3,Win32,185.18518518438674,,,,,,491.9030999999046,317,0,491.9032999999523,317,,,,495.67979999995225,496.17939999985697,495.17459999990456,495.67979999995225,492.9082999999523,495.17449999999997,496.17939999985697,496.67929999995226,496.67939999985697,500.73409999990463,3360,500.73409999990463,5,501.73370000004763,0,28,28,12,1,1.2,0.3,Time
,,573583,001,男,24,2025-06-04_21h02.08.848,Serial_Dependence_U,2023.2.3,Win32,185.18518518438674,,,,,,501.7342999999523,203,0,501.7343999998569,203,,,,505.91109999990465,506.41049999999996,505.40579999995225,505.91099999999994,502.7395,505.40579999995225,506.41049999999996,506.91049999999996,506.91049999999996,511.45970000004763,3888,511.45970000004763,5,512.4592000000476,0,29,29,14,1,1.6,0.3,Time
,,573583,001,男,24,2025-06-04_21h02.08.848,Serial_Dependence_U,2023.2.3,Win32,185.18518518438674,,,,,,512.4595999999046,218,1,679.8497000000476,218,s,167.37570000004757,,683.2282999999521,683.7277999999523,682.7232000000475,683.2282999999521,680.8567000000475,682.7230999999045,683.7278999998567,684.2275999999046,684.2275999999046,688.7882000000476,4320,688.7882000000476,5,688.7939999999998,1,0,30,10,1,0.8,0.3,Time
,,573583,001,男,24,2025-06-04_21h02.08.848,Serial_Dependence_U,2023.2.3,Win32,185.18518518438674,,,,,,688.7940999999045,79,1,688.7945999999046,79,,,,692.1618999998569,692.6607000000475,691.6602000000474,692.1617000000475,689.7990999999046,691.6602000000474,692.6607999999522,693.1592000000475,693.1592999999522,696.3147999999522,2735,696.3147999999522,5,696.3208999998568,1,1,31,0,1,0.8,0.3,Time
,,573583,001,男,24,2025-06-04_21h02.08.848,Serial_Dependence_U,2023.2.3,Win32,185.18518518438674,,,,,,696.3209999999998,295,1,696.3209999999998,295,,,,700.0633999998569,700.5630999999045,699.5595,700.0632999999522,697.3252000000476,699.5593999998567,700.5630999999045,701.0629999999998,701.0629999999998,705.8473999998567,4138,705.8475,5,705.8530999999044,1,2,32,27,1,1.2,0.7,Time
,,573583,001,男,24,2025-06-04_21h02.08.848,Serial_Dependence_U,2023.2.3,Win32,185.18518518438674,,,,,,705.8532999999521,179,1,705.8532999999521,179,,,,709.4245,709.9222999999521,708.9185999999046,709.4245,706.8530999999044,708.9185999999046,709.9222999999521,710.4222000000476,710.4222999999521,714.5953999998568,3174,714.5954999999998,5,714.6015999999046,1,3,33,11,1,1,0.3,Time
,,573583,001,男,24,2025-06-04_21h02.08.848,Serial_Dependence_U,2023.2.3,Win32,185.18518518438674,,,,,,714.6017999999523,114,1,714.6017999999523,114,,,,718.7449999999998,719.2425999999044,718.2395999999045,718.7448999998568,715.6059999999999,718.2395999999045,719.2425999999044,719.7425,719.7425,724.7327999999521,3950,724.7328999998568,5,724.7394999999998,1,4,34,9,1,1.6,0.7,Time
,,573583,001,男,24,2025-06-04_21h02.08.848,Serial_Dependence_U,2023.2.3,Win32,185.18518518438674,,,,,,724.7397999999522,135,1,724.7398999998569,135,,,,728.5130999999045,729.0127000000476,728.0077000000475,728.5129999999998,725.7415999999045,728.0077000000475,729.0127999999521,729.5125999999044,729.5125999999044,733.3972000000475,3227,733.3972999999522,5,733.4044999999998,1,5,35,2,1,1.2,0.3,Time
,,573583,001,男,24,2025-06-04_21h02.08.848,Serial_Dependence_U,2023.2.3,Win32,185.18518518438674,,,,,,733.4047000000475,116,1,733.4047999999522,116,,,,736.9802000000476,737.4774999999998,736.4782999999521,736.9802000000476,734.4118999998569,736.4782000000477,737.4775999999046,737.9773999998569,737.9773999998569,742.4987999999522,3813,742.4988999998569,5,742.5043999998569,1,6,36,21,1,1,0.3,Time
,,573583,001,男,24,2025-06-04_21h02.08.848,Serial_Dependence_U,2023.2.3,Win32,185.18518518438674,,,,,,742.5044999999999,97,1,742.5044999999999,97,,,,746.4725,746.9714999999998,745.9715999999045,746.4725,743.5062000000474,745.9715999999045,746.9714999999998,747.4698999998569,747.4698999998569,750.9485999999046,3054,750.9485999999046,5,750.9543999998567,1,7,37,13,1,1.4,0.3,Time
,,573583,001,男,24,2025-06-04_21h02.08.848,Serial_Dependence_U,2023.2.3,Win32,185.18518518438674,,,,,,750.9544999999999,8,1,750.9545999999044,8,,,,754.9207000000475,755.4180999999045,754.4152999999523,754.9207000000475,751.9545999999044,754.4152000000475,755.4180999999045,755.9179999999998,755.9179999999998,759.5638999998567,3321,759.5638999998567,5,759.5687999999521,1,8,38,3,1,1.4,0.3,Time
,,573583,001,男,24,2025-06-04_21h02.08.848,Serial_Dependence_U,2023.2.3,Win32,185.18518518438674,,,,,,759.5688999998569,175,1,759.5688999998569,175,,,,763.7353999998569,764.2340999999045,763.2343999998569,763.7353999998569,760.5689999999998,763.2342999999522,764.2340999999045,764.7327999999521,764.7328999998568,768.9730999999045,3631,768.9730999999045,5,768.9807000000475,1,9,39,24,1,1.6,0.3,Time
,,573583,001,男,24,2025-06-04_21h02.08.848,Serial_Dependence_U,2023.2.3,Win32,185.18518518438674,,,,,,768.9807999999522,190,1,768.9807999999522,190,,,,773.1590999999045,773.6587999999523,772.6537999999522,773.1589999999998,769.9877999999522,772.6537999999522,773.6588999998568,774.1585999999046,774.1587000000476,779.2298999998569,4182,779.2298999998569,5,779.2362000000475,1,10,40,4,1,1.6,0.3,Time
,,573583,001,男,24,2025-06-04_21h02.08.848,Serial_Dependence_U,2023.2.3,Win32,185.18518518438674,,,,,,779.2364999999999,281,1,779.2364999999999,281,,,,783.3793999998569,783.8787000000476,782.8738999998569,783.3792000000475,780.2412000000476,782.8737999999522,783.8787000000476,784.3787999999521,784.3787999999521,787.3003999998567,2704,787.3003999998567,5,787.3090999999046,1,11,41,19,1,1.6,0.7,Time
,,573583,001,男,24,2025-06-04_21h02.08.848,Serial_Dependence_U,2023.2.3,Win32,185.18518518438674,,,,,,787.3092000000476,305,1,787.3092999999523,305,,,,790.8498999998568,791.3493999998569,790.3443999998568,790.8497999999521,788.3113999998569,790.3443999998568,791.3493999998569,791.8492999999522,791.8493999998569,795.9152000000475,3406,795.9152000000475,5,795.9230999999046,1,12,42,26,1,1,0.7,Time
,,573583,001,男,24,2025-06-04_21h02.08.848,Serial_Dependence_U,2023.2.3,Win32,185.18518518438674,,,,,,795.9232999999523,128,1,795.9233999998568,128,,,,799.4647999999521,799.9640999999045,798.9590999999044,799.4647000000476,796.9260999999045,798.9590999999044,799.9642000000475,800.4640999999045,800.4640999999045,803.6747000000477,2999,803.6747000000477,5,803.6809999999999,1,13,43,16,1,1,0.7,Time
,,573583,001,男,24,2025-06-04_21h02.08.848,Serial_Dependence_U,2023.2.3,Win32,185.18518518438674,,,,,,803.6810999999044,98,1,803.6810999999044,98,,,,807.2517000000477,807.7513999998567,806.7464999999999,807.2517000000477,804.6802000000476,806.7464999999999,807.7513999998567,808.2512000000476,808.2512999999523,812.5792999999522,3807,812.5793999998567,5,812.5857999999522,1,14,44,1,1,1,0.3,Time
,,573583,001,男,24,2025-06-04_21h02.08.848,Serial_Dependence_U,2023.2.3,Win32,185.18518518438674,,,,,,812.5859999999999,19,1,812.5859999999999,19,,,,816.3277000000475,816.8272000000476,815.8222999999522,816.3275999999045,813.5894999999999,815.8222000000475,816.8272000000476,817.3272000000476,817.3272000000476,821.8150999999044,4215,821.8152000000476,5,821.8222000000475,1,15,45,7,1,1.2,0.7,Time
,,573583,001,男,24,2025-06-04_21h02.08.848,Serial_Dependence_U,2023.2.3,Win32,185.18518518438674,,,,,,821.8223999998569,224,1,821.8224999999999,224,,,,825.1643999998568,825.6640999999046,824.6592000000475,825.1642999999523,822.8262999999521,824.6592000000475,825.6642000000476,826.1639999999999,826.1640999999046,831.1463999998567,4173,831.1463999998567,5,831.1527999999522,1,16,46,15,1,0.8,0.7,Time
,,573583,001,男,24,2025-06-04_21h02.08.848,Serial_Dependence_U,2023.2.3,Win32,185.18518518438674,,,,,,831.1529999999999,328,1,831.1529999999999,328,,,,835.2957999999522,835.7952999999521,834.7903999998567,835.2957000000475,832.1577000000476,834.7902999999523,835.7952999999521,836.2952000000477,836.2952000000477,840.8110999999045,4189,840.8110999999045,5,840.8177000000475,1,17,47,29,1,1.6,0.7,Time
,,573583,001,男,24,2025-06-04_21h02.08.848,Serial_Dependence_U,2023.2.3,Win32,185.18518518438674,,,,,,840.8178999998569,22,1,840.8178999998569,22,,,,844.7939999999998,845.2933999998569,844.2883999998568,844.7938999998568,841.8222000000475,844.2883999998568,845.2933999998569,845.7932000000475,845.7932000000475,849.5424999999999,3633,849.5425999999046,5,849.5482999999523,1,18,48,23,1,1.4,0.3,Time
,,573583,001,男,24,2025-06-04_21h02.08.848,Serial_Dependence_U,2023.2.3,Win32,185.18518518438674,,,,,,849.5484999999998,312,1,849.5484999999998,312,,,,853.3198999998568,853.8190999999046,852.8144999999998,853.3197999999521,850.5535999999046,852.8142999999521,853.8190999999046,854.3188999998569,854.3188999998569,858.6128999998567,4209,858.6129999999999,5,858.6197999999521,1,19,49,12,1,1.2,0.3,Time
,,573583,001,男,24,2025-06-04_21h02.08.848,Serial_Dependence_U,2023.2.3,Win32,185.18518518438674,,,,,,858.6198999998568,217,1,858.6199999999998,217,,,,862.3622000000477,862.8617999999523,861.8568999998569,862.3622000000477,859.6240999999044,861.8567999999522,862.8618999998567,863.3614999999999,863.3614999999999,867.4998999998569,4016,867.4998999998569,5,867.5060999999044,1,20,50,17,1,1.2,0.7,Time
,,573583,001,男,24,2025-06-04_21h02.08.848,Serial_Dependence_U,2023.2.3,Win32,185.18518518438674,,,,,,867.5062000000474,154,1,867.5062999999521,154,,,,871.6824999999998,872.1819999999999,871.1772999999522,871.6823999998568,868.5110999999046,871.1772000000475,872.1819999999999,872.6817999999522,872.6817999999522,876.5312000000475,3589,876.5312000000475,5,876.5379999999999,1,21,51,14,1,1.6,0.3,Time
,,573583,001,男,24,2025-06-04_21h02.08.848,Serial_Dependence_U,2023.2.3,Win32,185.18518518438674,,,,,,876.5380999999046,29,1,876.5380999999046,29,,,,880.0750999999044,880.5745999999045,879.5698999998568,880.0749999999999,877.5367999999522,879.5697999999521,880.5745999999045,881.0744999999998,881.0744999999998,884.4295999999046,3209,884.4295999999046,5,884.4362000000475,1,22,52,6,1,1,0.7,Time
,,573583,001,男,24,2025-06-04_21h02.08.848,Serial_Dependence_U,2023.2.3,Win32,185.18518518438674,,,,,,884.4362999999522,232,1,884.4362999999522,232,,,,887.8122999999522,888.3119999999998,887.3069999999999,887.8122000000475,885.4405999999045,887.3068999998569,888.3119999999998,888.8118999998568,888.8118999998568,892.1330999999044,3198,892.1332000000476,5,892.1370999999045,1,23,53,20,1,0.8,0.3,Time
,,573583,001,男,24,2025-06-04_21h02.08.848,Serial_Dependence_U,2023.2.3,Win32,185.18518518438674,,,,,,892.1372000000475,266,1,892.1372999999522,266,,,,896.083,896.5822999999522,895.5772000000476,896.0828999998567,893.1445999999045,895.5772000000476,896.5823999998569,897.0820999999045,897.0822000000475,901.7312000000476,4150,901.7312000000476,5,901.737,1,24,54,28,1,1.4,0.7,Time
,,573583,001,男,24,2025-06-04_21h02.08.848,Serial_Dependence_U,2023.2.3,Win32,185.18518518438674,,,,,,901.7370999999044,124,1,901.7372000000477,124,,,,905.5087000000475,906.0079999999999,905.0032999999522,905.5085999999045,902.7422999999523,905.0032000000475,906.0079999999999,906.5078999998567,906.5078999998567,910.9632000000476,3501,910.9632000000476,5,910.9705999999045,1,25,55,22,1,1.2,0.3,Time
,,573583,001,男,24,2025-06-04_21h02.08.848,Serial_Dependence_U,2023.2.3,Win32,185.18518518438674,,,,,,910.9707999999522,356,1,910.9707999999522,356,,,,914.9122000000476,915.4114999999998,914.4067000000476,914.9120999999044,911.9737000000476,914.4065999999044,915.4114999999998,915.9114999999998,915.9114999999998,920.1552000000476,4095,920.1552000000476,5,920.1614999999998,1,26,56,18,1,1.4,0.7,Time
,,573583,001,男,24,2025-06-04_21h02.08.848,Serial_Dependence_U,2023.2.3,Win32,185.18518518438674,,,,,,920.1617000000475,153,1,920.1617000000475,153,,,,923.5044999999999,924.0042999999522,922.9992000000476,923.5043999998569,921.1662999999522,922.9990999999044,924.0042999999522,924.5040999999045,924.5042000000475,927.6702999999521,2914,927.6702999999521,5,927.6769999999998,1,27,57,5,1,0.8,0.7,Time
,,573583,001,男,24,2025-06-04_21h02.08.848,Serial_Dependence_U,2023.2.3,Win32,185.18518518438674,,,,,,927.6772000000475,135,1,927.6772000000475,135,,,,931.6197000000476,932.1190999999045,931.1140999999044,931.6197000000476,928.6812000000476,931.1139999999999,932.1192000000475,932.6190999999045,932.6190999999045,937.0293999998568,4254,937.0293999998568,5,937.0362000000476,1,28,58,8,1,1.4,0.7,Time
,,573583,001,男,24,2025-06-04_21h02.08.848,Serial_Dependence_U,2023.2.3,Win32,185.18518518438674,,,,,,937.0362999999521,348,1,937.0363999998568,348,,,,940.3733999998568,940.8729999999999,939.8680999999045,940.3733999998568,938.035,939.8679999999998,940.8729999999999,941.3727000000475,941.3727000000475,944.3943999998568,2815,944.3943999998568,5,944.3998999998568,1,29,59,25,1,0.8,0.7,Time
,,573583,001,男,24,2025-06-04_21h02.08.848,Serial_Dependence_U,2023.2.3,Win32,185.18518518438674,,,,,,944.4,171,2,1110.2947999999524,171,s,165.87979999995218,,1113.8328999998566,1114.331299999952,1113.3307000000477,1113.8327999999524,1111.2977000000474,1113.3305999999043,1114.3313999998568,1114.830799999952,1114.830799999952,1119.8955999999043,4377,1119.8955999999043,5,1119.901399999857,2,0,60,6,1,1,0.7,Time
,,573583,001,男,24,2025-06-04_21h02.08.848,Serial_Dependence_U,2023.2.3,Win32,185.18518518438674,,,,,,1119.9015999999046,82,2,1119.9022000000477,82,,,,1123.8783999998568,1124.377799999952,1123.373,1123.8783999998568,1120.9067000000477,1123.373,1124.3778999998567,1124.877799999952,1124.877799999952,1129.3380999999044,3887,1129.3380999999044,5,1129.3442000000477,2,1,61,3,1,1.4,0.3,Time
,,573583,001,男,24,2025-06-04_21h02.08.848,Serial_Dependence_U,2023.2.3,Win32,185.18518518438674,,,,,,1129.344299999952,181,2,1129.3443999998567,181,,,,1133.4873999998567,1133.9867999999524,1132.9822000000477,1133.487299999952,1130.3492000000474,1132.982,1133.9868999998566,1134.4868999998566,1134.487,1138.875,4292,1138.875,5,1138.882299999952,2,2,62,29,1,1.6,0.7,Time
,,573583,001,男,24,2025-06-04_21h02.08.848,Serial_Dependence_U,2023.2.3,Win32,185.18518518438674,,,,,,1138.8823999998567,168,2,1138.8824999999997,168,,,,1142.257799999952,1142.7572000000478,1141.7525999999043,1142.2577000000474,1139.8860999999047,1141.7525,1142.7572000000478,1143.2570999999043,1143.2570999999043,1146.708299999952,2965,1146.7083999998567,5,1146.714,2,3,63,20,1,0.8,0.3,Time
,,573583,001,男,24,2025-06-04_21h02.08.848,Serial_Dependence_U,2023.2.3,Win32,185.18518518438674,,,,,,1146.7140999999046,52,2,1146.7142000000476,52,,,,1150.2469999999998,1150.7458999998566,1149.7458999998566,1150.2468999998569,1147.7128999998567,1149.7458999998566,1150.7458999998566,1151.2440999999044,1151.2442000000474,1154.6509999999998,3204,1154.6510999999045,5,1154.6557000000475,2,4,64,16,1,1,0.7,Time
,,573583,001,男,24,2025-06-04_21h02.08.848,Serial_Dependence_U,2023.2.3,Win32,185.18518518438674,,,,,,1154.655899999857,33,2,1154.655899999857,33,,,,1158.8229999999999,1159.3202000000474,1158.316899999857,1158.8228999998569,1155.6562999999524,1158.316899999857,1159.3202000000474,1159.8215,1159.8215999999047,1163.5992000000474,3293,1163.5992000000474,5,1163.6062999999522,2,5,65,14,1,1.6,0.3,Time
,,573583,001,男,24,2025-06-04_21h02.08.848,Serial_Dependence_U,2023.2.3,Win32,185.18518518438674,,,,,,1163.6064999999999,222,2,1163.6067000000476,222,,,,1167.1375999999045,1167.6352000000475,1166.6369999999997,1167.1375999999045,1164.6045,1166.6369999999997,1167.6353999998569,1168.1352000000475,1168.1352000000475,1172.5417999999522,3865,1172.5417999999522,5,1172.547299999952,2,6,66,26,1,1,0.7,Time
,,573583,001,男,24,2025-06-04_21h02.08.848,Serial_Dependence_U,2023.2.3,Win32,185.18518518438674,,,,,,1172.5473999998567,80,2,1172.5473999998567,80,,,,1176.4810999999045,1176.9775999999047,1175.979399999857,1176.4810999999045,1173.5462000000475,1175.979399999857,1176.9775999999047,1177.4775,1177.4775999999047,1181.1568999998567,3649,1181.1570999999044,5,1181.1622000000475,2,7,67,8,1,1.4,0.7,Time
,,573583,001,男,24,2025-06-04_21h02.08.848,Serial_Dependence_U,2023.2.3,Win32,185.18518518438674,,,,,,1181.1622999999522,222,2,1181.1622999999522,222,,,,1184.5285999999046,1185.0257999999521,1184.0277000000474,1184.5285,1182.1615999999044,1184.0275999999044,1185.0257999999521,1185.5257999999521,1185.5257999999521,1188.9822999999524,3010,1188.9822999999524,5,1188.9882999999522,2,8,68,0,1,0.8,0.3,Time
,,573583,001,男,24,2025-06-04_21h02.08.848,Serial_Dependence_U,2023.2.3,Win32,185.18518518438674,,,,,,1188.9885,190,2,1188.9885999999046,190,,,,1192.5542000000473,1193.0519999999997,1192.0487999999523,1192.5542000000473,1189.9870999999043,1192.0487999999523,1193.0520999999044,1193.5518999998567,1193.5518999998567,1197.5422999999523,3866,1197.5422999999523,5,1197.5490999999047,2,9,69,1,1,1,0.3,Time
,,573583,001,男,24,2025-06-04_21h02.08.848,Serial_Dependence_U,2023.2.3,Win32,185.18518518438674,,,,,,1197.5492999999524,316,2,1197.5493999998566,316,,,,1200.9229999999998,1201.4223999998567,1200.4175,1200.9228999998568,1198.5512000000476,1200.417399999857,1201.4223999998567,1201.922299999952,1201.9223999998567,1206.4825999999043,4072,1206.4827000000478,5,1206.489299999952,2,10,70,10,1,0.8,0.3,Time
,,573583,001,男,24,2025-06-04_21h02.08.848,Serial_Dependence_U,2023.2.3,Win32,185.18518518438674,,,,,,1206.489299999952,285,2,1206.4893999998567,285,,,,1210.4653999998568,1210.964799999952,1209.9600999999043,1210.465299999952,1207.4938999998567,1209.9600999999043,1210.964799999952,1211.4647000000477,1211.464799999952,1216.3139999999999,4216,1216.3139999999999,5,1216.3210999999046,2,11,71,13,1,1.4,0.3,Time
,,573583,001,男,24,2025-06-04_21h02.08.848,Serial_Dependence_U,2023.2.3,Win32,185.18518518438674,,,,,,1216.3212999999523,263,2,1216.3212999999523,263,,,,1220.091,1220.5903999998568,1219.5855999999044,1220.090899999857,1217.3195,1219.5855999999044,1220.5903999998568,1221.0903999998568,1221.0904999999998,1225.0340999999044,3773,1225.0342000000473,5,1225.0415999999045,2,12,72,12,1,1.2,0.3,Time
,,573583,001,男,24,2025-06-04_21h02.08.848,Serial_Dependence_U,2023.2.3,Win32,185.18518518438674,,,,,,1225.0417999999522,127,2,1225.0417999999522,127,,,,1228.811299999952,1229.310799999952,1228.3058999998566,1228.8112000000474,1226.0450999999043,1228.3057999999523,1229.3108999998567,1229.810799999952,1229.8108999998567,1234.1988999998566,3930,1234.1988999998566,5,1234.2052999999523,2,13,73,2,1,1.2,0.3,Time
,,573583,001,男,24,2025-06-04_21h02.08.848,Serial_Dependence_U,2023.2.3,Win32,185.18518518438674,,,,,,1234.2055,259,2,1234.2055999999043,259,,,,1237.5425999999047,1238.0422000000476,1237.0372000000475,1237.5425,1235.2042999999521,1237.0372000000475,1238.0422999999523,1238.5422000000476,1238.5422999999523,1242.0360999999043,3055,1242.0362000000478,5,1242.0438999998569,2,14,74,5,1,0.8,0.7,Time
,,573583,001,男,24,2025-06-04_21h02.08.848,Serial_Dependence_U,2023.2.3,Win32,185.18518518438674,,,,,,1242.0440999999046,156,2,1242.0440999999046,156,,,,1245.6132999999522,1246.1128999998568,1245.1078999998567,1245.6132000000475,1243.0470999999043,1245.1078999998567,1246.1128999998568,1246.6127000000474,1246.6127000000474,1250.4842000000476,3364,1250.4842000000476,5,1250.4895999999044,2,15,75,11,1,1,0.3,Time
,,573583,001,男,24,2025-06-04_21h02.08.848,Serial_Dependence_U,2023.2.3,Win32,185.18518518438674,,,,,,1250.489799999952,354,2,1250.4902999999522,354,,,,1254.2337000000475,1254.7332000000474,1253.7283999998567,1254.2335999999045,1251.495399999857,1253.7283999998567,1254.7332999999521,1255.2330999999044,1255.2330999999044,1259.5544999999997,3600,1259.5544999999997,5,1259.560799999952,2,16,76,27,1,1.2,0.7,Time
,,573583,001,男,24,2025-06-04_21h02.08.848,Serial_Dependence_U,2023.2.3,Win32,185.18518518438674,,,,,,1259.5609999999997,76,2,1259.5609999999997,76,,,,1263.503899999857,1264.003299999952,1262.998299999952,1263.503899999857,1260.5655999999044,1262.998299999952,1264.003299999952,1264.503299999952,1264.503299999952,1269.2300999999047,4042,1269.2300999999047,5,1269.2357999999522,2,17,77,28,1,1.4,0.7,Time
,,573583,001,男,24,2025-06-04_21h02.08.848,Serial_Dependence_U,2023.2.3,Win32,185.18518518438674,,,,,,1269.2359999999999,106,2,1269.2360999999046,106,,,,1272.8075,1273.3068999998568,1272.301799999952,1272.807399999857,1270.2412000000477,1272.301799999952,1273.3068999998568,1273.8068999998568,1273.8068999998568,1278.6948999998567,4010,1278.6948999998567,5,1278.701799999952,2,18,78,21,1,1,0.3,Time
,,573583,001,男,24,2025-06-04_21h02.08.848,Serial_Dependence_U,2023.2.3,Win32,185.18518518438674,,,,,,1278.7018999998568,356,2,1278.7019999999998,356,,,,1282.6775999999045,1283.1772000000474,1282.1720999999043,1282.6775999999045,1279.705799999952,1282.1720999999043,1283.1772000000474,1283.6770999999044,1283.6772000000474,1288.0428999998567,3877,1288.0430999999044,5,1288.0495,2,19,79,23,1,1.4,0.3,Time
,,573583,001,男,24,2025-06-04_21h02.08.848,Serial_Dependence_U,2023.2.3,Win32,185.18518518438674,,,,,,1288.0495999999043,10,2,1288.0497000000478,10,,,,1291.7922000000476,1292.2917999999522,1291.286799999952,1291.7922000000476,1289.0538999998566,1291.286799999952,1292.291899999857,1292.7917000000475,1292.7917000000475,1297.6462999999521,4376,1297.6462999999521,5,1297.654,2,20,80,17,1,1.2,0.7,Time
,,573583,001,男,24,2025-06-04_21h02.08.848,Serial_Dependence_U,2023.2.3,Win32,185.18518518438674,,,,,,1297.6542999999524,174,2,1297.6542999999524,174,,,,1301.4292000000473,1301.9285,1300.9237999999523,1301.4290999999043,1298.6574999999998,1300.9237999999523,1301.9285999999047,1302.4285,1302.4285999999047,1307.2497000000476,4272,1307.2497999999523,5,1307.2558999998569,2,21,81,22,1,1.2,0.3,Time
,,573583,001,男,24,2025-06-04_21h02.08.848,Serial_Dependence_U,2023.2.3,Win32,185.18518518438674,,,,,,1307.2559999999999,276,2,1307.2562000000476,276,,,,1311.3935999999044,1311.893,1310.8882999999523,1311.3935999999044,1308.2554999999998,1310.8882000000476,1311.893,1312.393,1312.393,1317.1864999999998,4576,1317.1865999999045,5,1317.1925999999044,2,22,82,19,1,1.6,0.7,Time
,,573583,001,男,24,2025-06-04_21h02.08.848,Serial_Dependence_U,2023.2.3,Win32,185.18518518438674,,,,,,1317.1927000000474,286,2,1317.1927000000474,286,,,,1321.3690999999044,1321.868799999952,1320.8637999999523,1321.3690999999044,1318.1977000000475,1320.8637999999523,1321.868799999952,1322.3687000000477,1322.3687000000477,1326.629,4137,1326.6290999999046,5,1326.635899999857,2,23,83,24,1,1.6,0.3,Time
,,573583,001,男,24,2025-06-04_21h02.08.848,Serial_Dependence_U,2023.2.3,Win32,185.18518518438674,,,,,,1326.636,187,2,1326.6360999999047,187,,,,1329.972899999857,1330.4724999999999,1329.4673999998568,1329.9727999999523,1327.6343999998567,1329.467299999952,1330.4724999999999,1330.9722999999522,1330.9722999999522,1335.7325,4254,1335.7325,5,1335.738399999857,2,24,84,25,1,0.8,0.7,Time
,,573583,001,男,24,2025-06-04_21h02.08.848,Serial_Dependence_U,2023.2.3,Win32,185.18518518438674,,,,,,1335.7385999999046,227,2,1335.7385999999046,227,,,,1339.6820999999045,1340.1814999999997,1339.1765999999043,1339.6819999999998,1336.743799999952,1339.1765,1340.1814999999997,1340.681299999952,1340.6813999998567,1345.674799999952,4471,1345.6748999998567,5,1345.6810999999043,2,25,85,18,1,1.4,0.7,Time
,,573583,001,男,24,2025-06-04_21h02.08.848,Serial_Dependence_U,2023.2.3,Win32,185.18518518438674,,,,,,1345.6812000000477,141,2,1345.681299999952,141,,,,1349.824299999952,1350.3237000000477,1349.3187999999523,1349.824299999952,1346.6859999999997,1349.3187000000476,1350.3237000000477,1350.8237000000477,1350.8237999999524,1355.1228999998566,4077,1355.123,5,1355.1299999999997,2,26,86,9,1,1.6,0.7,Time
,,573583,001,男,24,2025-06-04_21h02.08.848,Serial_Dependence_U,2023.2.3,Win32,185.18518518438674,,,,,,1355.1302000000474,261,2,1355.1302000000474,261,,,,1358.872399999857,1359.3717999999521,1358.3669999999997,1358.8722999999522,1356.133899999857,1358.366799999952,1359.3717999999521,1359.8717000000474,1359.8717999999521,1363.665799999952,3223,1363.665799999952,5,1363.6723999998567,2,27,87,7,1,1.2,0.7,Time
,,573583,001,男,24,2025-06-04_21h02.08.848,Serial_Dependence_U,2023.2.3,Win32,185.18518518438674,,,,,,1363.6725999999044,205,2,1363.6725999999044,205,,,,1367.0150999999046,1367.5143999998568,1366.5093999998567,1367.0150999999046,1364.676399999857,1366.5093999998567,1367.5144999999998,1368.014299999952,1368.0143999998568,1371.3860999999047,2728,1371.3860999999047,5,1371.3927000000476,2,28,88,15,1,0.8,0.7,Time
,,573583,001,男,24,2025-06-04_21h02.08.848,Serial_Dependence_U,2023.2.3,Win32,185.18518518438674,,,,,,1371.3927999999523,143,2,1371.392899999857,143,,,,1375.5629999999996,1376.0625999999047,1375.0575999999046,1375.5629999999996,1372.396899999857,1375.0575999999046,1376.0625999999047,1376.5625,1376.5625,1379.8175999999044,2719,1379.8177000000474,5,1379.8245999999044,2,29,89,4,1,1.6,0.3,Time
,,573583,001,男,24,2025-06-04_21h02.08.848,Serial_Dependence_U,2023.2.3,Win32,185.18518518438674,,,,,,1379.8247000000474,166,3,1527.8058999998566,166,s,147.9664000000953,,1531.5797000000475,1532.0792000000474,1531.074299999952,1531.5795999999045,1528.8080999999047,1531.0742000000478,1532.0792000000474,1532.5790999999044,1532.5792000000474,1538.1724999999997,5037,1538.1724999999997,5,1538.1802000000475,3,0,90,22,1,1.2,0.3,Time
,,573583,001,男,24,2025-06-04_21h02.08.848,Serial_Dependence_U,2023.2.3,Win32,185.18518518438674,,,,,,1538.1802999999522,251,3,1538.1808999998566,251,,,,1542.15,1542.6492000000476,1541.6495,1542.1498999998566,1539.1837000000473,1541.649399999857,1542.6492000000476,1543.149,1543.149,1546.8983999998568,3600,1546.8984999999998,5,1546.9044999999996,3,1,91,3,1,1.4,0.3,Time
,,573583,001,男,24,2025-06-04_21h02.08.848,Serial_Dependence_U,2023.2.3,Win32,185.18518518438674,,,,,,1546.9045999999043,306,3,1546.9045999999043,306,,,,1550.2757999999521,1550.7752000000473,1549.7702000000477,1550.2757000000474,1547.9095999999045,1549.7702000000477,1550.7752000000473,1551.2750999999043,1551.2750999999043,1554.1633999998567,2783,1554.1634999999997,5,1554.1695,3,2,92,0,1,0.8,0.3,Time
,,573583,001,男,24,2025-06-04_21h02.08.848,Serial_Dependence_U,2023.2.3,Win32,185.18518518438674,,,,,,1554.1695999999047,27,3,1554.1695999999047,27,,,,1558.1460999999044,1558.6457000000473,1557.6405,1558.1459999999997,1555.1743999998566,1557.6405,1558.645799999952,1559.1455,1559.1455,1562.9615,3759,1562.9615,5,1562.9673999998568,3,3,93,13,1,1.4,0.3,Time
,,573583,001,男,24,2025-06-04_21h02.08.848,Serial_Dependence_U,2023.2.3,Win32,185.18518518438674,,,,,,1562.9674999999997,314,3,1562.9675999999045,314,,,,1566.5110999999047,1567.0104999999999,1566.0057999999522,1566.511,1563.9727999999523,1566.0057000000475,1567.0104999999999,1567.5104999999999,1567.5104999999999,1571.309899999857,3610,1571.3100999999047,5,1571.3192000000477,3,4,94,26,1,1,0.7,Time
,,573583,001,男,24,2025-06-04_21h02.08.848,Serial_Dependence_U,2023.2.3,Win32,185.18518518438674,,,,,,1571.3192999999524,235,3,1571.3192999999524,235,,,,1575.0648999998566,1575.5642999999523,1574.5593999998569,1575.0648999998566,1572.3264999999997,1574.5592999999521,1575.5642999999523,1576.0642000000475,1576.0642000000475,1580.2022999999522,3916,1580.2023999998569,5,1580.2080999999043,3,5,95,17,1,1.2,0.7,Time
,,573583,001,男,24,2025-06-04_21h02.08.848,Serial_Dependence_U,2023.2.3,Win32,185.18518518438674,,,,,,1580.208299999952,279,3,1580.2083999998567,279,,,,1583.7849999999999,1584.2844999999998,1583.2799999999997,1583.7848999998569,1581.2134999999998,1583.279799999952,1584.2845999999045,1584.7844999999998,1584.7844999999998,1588.0838999998568,3152,1588.0838999998568,5,1588.0900999999044,3,6,96,1,1,1,0.3,Time
,,573583,001,男,24,2025-06-04_21h02.08.848,Serial_Dependence_U,2023.2.3,Win32,185.18518518438674,,,,,,1588.090299999952,141,3,1588.090299999952,141,,,,1591.6667000000475,1592.1662000000474,1591.161299999952,1591.6665999999045,1589.0952000000475,1591.1612000000478,1592.1662999999521,1592.6660999999044,1592.6660999999044,1596.5875999999043,3438,1596.5875999999043,5,1596.593399999857,3,7,97,11,1,1,0.3,Time
,,573583,001,男,24,2025-06-04_21h02.08.848,Serial_Dependence_U,2023.2.3,Win32,185.18518518438674,,,,,,1596.5935999999047,50,3,1596.5935999999047,50,,,,1600.7705999999043,1601.2697999999523,1600.2648999998569,1600.7705,1597.5988999998567,1600.2647999999522,1601.2697999999523,1601.769899999857,1601.77,1605.1413999998567,3199,1605.1413999998567,5,1605.1465999999045,3,8,98,4,1,1.6,0.3,Time
,,573583,001,男,24,2025-06-04_21h02.08.848,Serial_Dependence_U,2023.2.3,Win32,185.18518518438674,,,,,,1605.1467999999522,74,3,1605.1467999999522,74,,,,1609.290799999952,1609.7902999999524,1608.7852000000476,1609.2907000000478,1606.1524999999997,1608.7850999999046,1609.7902999999524,1610.2900999999047,1610.2900999999047,1614.5613999998568,3599,1614.5614999999998,5,1614.567799999952,3,9,99,19,1,1.6,0.7,Time
,,573583,001,男,24,2025-06-04_21h02.08.848,Serial_Dependence_U,2023.2.3,Win32,185.18518518438674,,,,,,1614.5679999999998,265,3,1614.5679999999998,265,,,,1617.9388999998569,1618.4383999998568,1617.4332999999524,1617.9388999998569,1615.5725999999045,1617.4332999999524,1618.4383999998568,1618.9383999998568,1618.9383999998568,1623.049,3662,1623.0492000000477,5,1623.0550999999045,3,10,100,10,1,0.8,0.3,Time
,,573583,001,男,24,2025-06-04_21h02.08.848,Serial_Dependence_U,2023.2.3,Win32,185.18518518438674,,,,,,1623.0552000000475,268,3,1623.0552000000475,268,,,,1626.8257999999523,1627.325399999857,1626.3205999999045,1626.8257999999523,1624.0595999999045,1626.3204999999998,1627.325399999857,1627.8252999999522,1627.8252999999522,1631.8857000000476,3553,1631.8857000000476,5,1631.8934999999997,3,11,101,2,1,1.2,0.3,Time
,,573583,001,男,24,2025-06-04_21h02.08.848,Serial_Dependence_U,2023.2.3,Win32,185.18518518438674,,,,,,1631.8937000000474,298,3,1631.893799999952,298,,,,1635.2352000000474,1635.7345999999043,1634.73,1635.2350999999044,1632.8964999999998,1634.729899999857,1635.7345999999043,1636.2345,1636.2345,1639.6839999999997,2864,1639.6839999999997,5,1639.691399999857,3,12,102,15,1,0.8,0.7,Time
,,573583,001,男,24,2025-06-04_21h02.08.848,Serial_Dependence_U,2023.2.3,Win32,185.18518518438674,,,,,,1639.6915,24,3,1639.6915999999046,24,,,,1643.6332000000475,1644.1328999998568,1643.1279999999997,1643.6332000000475,1640.6949999999997,1643.1278999998567,1644.1329999999998,1644.6328999998568,1644.6328999998568,1649.0763999998567,3888,1649.0763999998567,5,1649.0842999999522,3,13,103,28,1,1.4,0.7,Time
,,573583,001,男,24,2025-06-04_21h02.08.848,Serial_Dependence_U,2023.2.3,Win32,185.18518518438674,,,,,,1649.084399999857,338,3,1649.084399999857,338,,,,1652.4257999999522,1652.9253999998568,1651.9204999999997,1652.4257999999522,1650.0875999999043,1651.9204999999997,1652.9253999998568,1653.4252999999521,1653.4253999998568,1657.6190999999044,3583,1657.6190999999044,5,1657.6257999999525,3,14,104,25,1,0.8,0.7,Time
,,573583,001,男,24,2025-06-04_21h02.08.848,Serial_Dependence_U,2023.2.3,Win32,185.18518518438674,,,,,,1657.6260000000002,132,3,1657.6260000000002,132,,,,1661.8020000000001,1662.3012000000476,1661.2962999999522,1661.8018999998571,1658.6302000000478,1661.2962999999522,1662.3012000000476,1662.801,1662.8010999999046,1667.1945999999048,3877,1667.1947000000478,5,1667.200399999857,3,15,105,24,1,1.6,0.3,Time
,,573583,001,男,24,2025-06-04_21h02.08.848,Serial_Dependence_U,2023.2.3,Win32,185.18518518438674,,,,,,1667.2005999999046,41,3,1667.2005999999046,41,,,,1671.3772999999524,1671.8767999999523,1670.8718999998569,1671.3772999999524,1668.2058999998571,1670.8718999998569,1671.876899999857,1672.3767999999523,1672.3767999999523,1676.3815,3482,1676.3815,5,1676.3862999999524,3,16,106,14,1,1.6,0.3,Time
,,573583,001,男,24,2025-06-04_21h02.08.848,Serial_Dependence_U,2023.2.3,Win32,185.18518518438674,,,,,,1676.3867000000478,316,3,1676.3867999999525,316,,,,1680.1308999998569,1680.6305999999045,1679.625399999857,1680.1307999999522,1677.3925,1679.625399999857,1680.6305999999045,1681.1303999998568,1681.1303999998568,1685.5295999999048,3845,1685.5295999999048,5,1685.5345000000002,3,17,107,27,1,1.2,0.7,Time
,,573583,001,男,24,2025-06-04_21h02.08.848,Serial_Dependence_U,2023.2.3,Win32,185.18518518438674,,,,,,1685.5345999999045,232,3,1685.5347000000475,232,,,,1689.678899999857,1690.178399999857,1689.1734999999999,1689.6787999999524,1686.5407000000478,1689.1733999998569,1690.1785,1690.678399999857,1690.678399999857,1694.9612000000475,3760,1694.9612000000475,5,1694.966899999857,3,18,108,29,1,1.6,0.7,Time
,,573583,001,男,24,2025-06-04_21h02.08.848,Serial_Dependence_U,2023.2.3,Win32,185.18518518438674,,,,,,1694.9670999999048,237,3,1694.9670999999048,237,,,,1698.7378999998568,1699.2377000000479,1698.2330000000002,1698.7378999998568,1695.9720999999045,1698.2328999998567,1699.2377000000479,1699.7375999999044,1699.7377000000479,1703.586899999857,3288,1703.586899999857,5,1703.5929999999998,3,19,109,12,1,1.2,0.3,Time
,,573583,001,男,24,2025-06-04_21h02.08.848,Serial_Dependence_U,2023.2.3,Win32,185.18518518438674,,,,,,1703.5932000000475,16,3,1703.5932000000475,16,,,,1707.5360999999048,1708.0355999999047,1707.0307999999523,1707.5360999999048,1704.597899999857,1707.0307999999523,1708.0355999999047,1708.5357000000477,1708.5357000000477,1712.5737999999524,3471,1712.574,5,1712.58,3,20,110,8,1,1.4,0.7,Time
,,573583,001,男,24,2025-06-04_21h02.08.848,Serial_Dependence_U,2023.2.3,Win32,185.18518518438674,,,,,,1712.5800999999046,131,3,1712.5800999999046,131,,,,1715.9178999998571,1716.417399999857,1715.412399999857,1715.9177999999524,1713.5797000000475,1715.4122999999522,1716.417399999857,1716.9172000000476,1716.9172999999523,1721.2665999999044,3766,1721.2665999999044,5,1721.274,3,21,111,5,1,0.8,0.7,Time
,,573583,001,男,24,2025-06-04_21h02.08.848,Serial_Dependence_U,2023.2.3,Win32,185.18518518438674,,,,,,1721.2742000000476,223,3,1721.2742000000476,223,,,,1724.8157000000479,1725.3153999998567,1724.3102999999523,1724.8157000000479,1722.2775000000001,1724.3102000000476,1725.3153999998567,1725.8153999998567,1725.8155000000002,1729.881399999857,3528,1729.8815,5,1729.8867999999525,3,22,112,16,1,1,0.7,Time
,,573583,001,男,24,2025-06-04_21h02.08.848,Serial_Dependence_U,2023.2.3,Win32,185.18518518438674,,,,,,1729.8868999998567,215,3,1729.8870000000002,215,,,,1733.4305999999046,1733.9302000000475,1732.9252000000479,1733.4305999999046,1730.8925,1732.9252000000479,1733.9302000000475,1734.430399999857,1734.430399999857,1739.195899999857,4025,1739.195899999857,5,1739.2022000000475,3,23,113,6,1,1,0.7,Time
,,573583,001,男,24,2025-06-04_21h02.08.848,Serial_Dependence_U,2023.2.3,Win32,185.18518518438674,,,,,,1739.2023999998569,262,3,1739.2023999998569,262,,,,1743.1728999998568,1743.6725000000001,1742.6678999998571,1743.172799999952,1740.2015000000001,1742.6677999999524,1743.6725999999048,1744.1725000000001,1744.1725999999048,1748.7775999999044,4104,1748.7775999999044,5,1748.785399999857,3,24,114,23,1,1.4,0.3,Time
,,573583,001,男,24,2025-06-04_21h02.08.848,Serial_Dependence_U,2023.2.3,Win32,185.18518518438674,,,,,,1748.7855,179,3,1748.7855999999047,179,,,,1752.9265,1753.426,1752.4208999998568,1752.926399999857,1749.7882999999524,1752.4208999998568,1753.426,1753.925899999857,1753.926,1758.652799999952,4159,1758.652799999952,5,1758.6590999999048,3,25,115,9,1,1.6,0.7,Time
,,573583,001,男,24,2025-06-04_21h02.08.848,Serial_Dependence_U,2023.2.3,Win32,185.18518518438674,,,,,,1758.6590999999048,165,3,1758.6592000000478,165,,,,1762.23,1762.7295,1761.7245999999045,1762.23,1759.6585999999047,1761.7244999999998,1762.7295,1763.2295,1763.2295,1767.1065999999046,3160,1767.1065999999046,5,1767.1132999999522,3,26,116,21,1,1,0.3,Time
,,573583,001,男,24,2025-06-04_21h02.08.848,Serial_Dependence_U,2023.2.3,Win32,185.18518518438674,,,,,,1767.113399999857,252,3,1767.1135,252,,,,1771.0560999999047,1771.555399999857,1770.5507000000475,1771.056,1768.1175999999045,1770.5505999999045,1771.555399999857,1772.0552999999522,1772.0552999999522,1776.6602000000476,4081,1776.6602999999523,5,1776.666899999857,3,27,117,18,1,1.4,0.7,Time
,,573583,001,男,24,2025-06-04_21h02.08.848,Serial_Dependence_U,2023.2.3,Win32,185.18518518438674,,,,,,1776.667,84,3,1776.6670999999046,84,,,,1780.403899999857,1780.9035,1779.8987000000475,1780.403899999857,1777.6657999999525,1779.8984999999998,1780.9035,1781.4032999999522,1781.403399999857,1786.0414999999998,4022,1786.0415999999045,5,1786.0473999998571,3,28,118,7,1,1.2,0.7,Time
,,573583,001,男,24,2025-06-04_21h02.08.848,Serial_Dependence_U,2023.2.3,Win32,185.18518518438674,,,,,,1786.0473999998571,66,3,1786.0475000000001,66,,,,1789.4187000000475,1789.9182999999525,1788.9132999999524,1789.4187000000475,1787.046899999857,1788.9132999999524,1789.9182999999525,1790.4178999998571,1790.4178999998571,1794.0122000000479,2998,1794.0122999999521,5,1794.0217000000475,3,29,119,20,1,0.8,0.3,Time
,,573583,001,男,24,2025-06-04_21h02.08.848,Serial_Dependence_U,2023.2.3,Win32,185.18518518438674,,,,,,1794.022,293,4,1959.2668999998568,293,s,165.23079999995207,,1963.2032999999524,1963.702899999857,1962.698399999857,1963.2032000000477,1960.2672000000475,1962.6982999999523,1963.703,1964.202899999857,1964.203,1970.3522000000476,5295,1970.3522000000476,5,1970.3585999999045,4,0,120,8,1,1.4,0.7,Time
,,573583,001,男,24,2025-06-04_21h02.08.848,Serial_Dependence_U,2023.2.3,Win32,185.18518518438674,,,,,,1970.3587000000475,332,4,1970.3592000000476,332,,,,1974.5343999998568,1975.0337999999524,1974.029,1974.5342999999525,1971.3627999999521,1974.028899999857,1975.0337999999524,1975.5337999999524,1975.5337999999524,1979.7297000000476,3710,1979.7297000000476,5,1979.7353999998568,4,1,121,24,1,1.6,0.3,Time
,,573583,001,男,24,2025-06-04_21h02.08.848,Serial_Dependence_U,2023.2.3,Win32,185.18518518438674,,,,,,1979.7354999999998,289,4,1979.7355999999045,289,,,,1983.3047999999521,1983.8042999999525,1982.799399999857,1983.304700000048,1980.7347999999524,1982.7992999999524,1983.8042999999525,1984.3040999999048,1984.3040999999048,1987.7612999999524,2965,1987.761399999857,5,1987.767399999857,4,2,122,11,1,1,0.3,Time
,,573583,001,男,24,2025-06-04_21h02.08.848,Serial_Dependence_U,2023.2.3,Win32,185.18518518438674,,,,,,1987.7675999999046,100,4,1987.7677000000476,100,,,,1991.7027000000476,1992.2023999998569,1991.1973999998568,1991.7027000000476,1988.7662999999525,1991.1973999998568,1992.2023999998569,1992.7023999998569,1992.7023999998569,1996.979399999857,3806,1996.979399999857,5,1996.9862999999523,4,3,123,18,1,1.4,0.7,Time
,,573583,001,男,24,2025-06-04_21h02.08.848,Serial_Dependence_U,2023.2.3,Win32,185.18518518438674,,,,,,1996.9865,119,4,1996.9865,119,,,,2000.9472999999525,2001.4448999998567,2000.4467000000477,2000.9472999999525,1997.9855999999045,2000.4465,2001.4448999998567,2001.946,2001.946,2005.2852999999523,2884,2005.285399999857,5,2005.2907999999525,4,4,124,13,1,1.4,0.3,Time
,,573583,001,男,24,2025-06-04_21h02.08.848,Serial_Dependence_U,2023.2.3,Win32,185.18518518438674,,,,,,2005.2910000000002,227,4,2005.2910000000002,227,,,,2008.8235,2009.321,2008.3227999999522,2008.8235,2006.2905999999048,2008.3227000000475,2009.321,2009.8222999999525,2009.8223999998568,2013.1889999999999,2938,2013.1889999999999,5,2013.1942000000477,4,5,125,26,1,1,0.7,Time
,,573583,001,男,24,2025-06-04_21h02.08.848,Serial_Dependence_U,2023.2.3,Win32,185.18518518438674,,,,,,2013.194399999857,49,4,2013.1945,49,,,,2016.5317000000477,2017.0305999999046,2016.026899999857,2016.5315999999048,2014.1933999998569,2016.026899999857,2017.0305999999046,2017.5304999999998,2017.5305999999046,2021.3252000000475,3364,2021.3252999999522,5,2021.3310999999048,4,6,126,25,1,0.8,0.7,Time
,,573583,001,男,24,2025-06-04_21h02.08.848,Serial_Dependence_U,2023.2.3,Win32,185.18518518438674,,,,,,2021.331299999952,126,4,2021.331299999952,126,,,,2024.6680000000001,2025.1675,2024.1637999999525,2024.6680000000001,2022.330399999857,2024.1637000000478,2025.1675,2025.6680999999048,2025.6682000000478,2028.813,2722,2028.813,5,2028.8200000000002,4,7,127,5,1,0.8,0.7,Time
,,573583,001,男,24,2025-06-04_21h02.08.848,Serial_Dependence_U,2023.2.3,Win32,185.18518518438674,,,,,,2028.8202000000479,262,4,2028.820299999952,262,,,,2032.3572000000477,2032.8558999998568,2031.8512999999525,2032.3570999999047,2029.8180999999045,2031.8512999999525,2032.8558999998568,2033.3547000000476,2033.3552999999524,2037.3395,3456,2037.3395999999047,5,2037.346,4,8,128,6,1,1,0.7,Time
,,573583,001,男,24,2025-06-04_21h02.08.848,Serial_Dependence_U,2023.2.3,Win32,185.18518518438674,,,,,,2037.3460999999047,309,4,2037.3462999999524,309,,,,2041.2772999999524,2041.7750999999048,2040.7765999999046,2041.2772000000477,2038.3445000000002,2040.7765999999046,2041.7750999999048,2042.275,2042.2755000000002,2046.715899999857,3883,2046.716,5,2046.7227000000476,4,9,129,28,1,1.4,0.7,Time
,,573583,001,男,24,2025-06-04_21h02.08.848,Serial_Dependence_U,2023.2.3,Win32,185.18518518438674,,,,,,2046.722899999857,291,4,2046.7230999999047,291,,,,2050.27,2050.7675999999046,2049.7644999999998,2050.269899999857,2047.7297999999523,2049.7644999999998,2050.7675999999046,2051.2675,2051.2675,2055.411799999952,3543,2055.411799999952,5,2055.415399999857,4,10,130,16,1,1,0.7,Time
,,573583,001,男,24,2025-06-04_21h02.08.848,Serial_Dependence_U,2023.2.3,Win32,185.18518518438674,,,,,,2055.4155,14,4,2055.4155,14,,,,2058.979299999952,2059.476899999857,2058.4783999998567,2058.979299999952,2056.4177000000477,2058.4783999998567,2059.476899999857,2059.977899999857,2059.977899999857,2063.7047000000475,3132,2063.7047000000475,5,2063.7105,4,11,131,1,1,1,0.3,Time
,,573583,001,男,24,2025-06-04_21h02.08.848,Serial_Dependence_U,2023.2.3,Win32,185.18518518438674,,,,,,2063.710700000048,67,4,2063.710799999952,67,,,,2067.2775999999044,2067.775099999905,2066.7715,2067.2775,2064.7095999999046,2066.771399999857,2067.775200000048,2068.275099999905,2068.275099999905,2072.4372000000476,3609,2072.4372000000476,5,2072.4432000000475,4,12,132,21,1,1,0.3,Time
,,573583,001,男,24,2025-06-04_21h02.08.848,Serial_Dependence_U,2023.2.3,Win32,185.18518518438674,,,,,,2072.443399999857,148,4,2072.4435,148,,,,2076.4139999999998,2076.9120999999045,2075.9092999999525,2076.4138999998568,2073.446899999857,2075.909200000048,2076.9122000000475,2077.4132000000477,2077.4132999999524,2081.4680999999046,3538,2081.4680999999046,5,2081.4737999999525,4,13,133,23,1,1.4,0.3,Time
,,573583,001,男,24,2025-06-04_21h02.08.848,Serial_Dependence_U,2023.2.3,Win32,185.18518518438674,,,,,,2081.4738999998567,99,4,2081.474,99,,,,2084.843899999857,2085.3445999999044,2084.340799999952,2084.843899999857,2082.477899999857,2084.3405999999045,2085.344700000048,2085.8435,2085.8435,2089.9767000000475,3659,2089.976799999952,5,2089.9828999998567,4,14,134,0,1,0.8,0.3,Time
,,573583,001,男,24,2025-06-04_21h02.08.848,Serial_Dependence_U,2023.2.3,Win32,185.18518518438674,,,,,,2089.983,247,4,2089.983,247,,,,2094.153,2094.652700000048,2093.6497999999524,2094.153,2090.987099999905,2093.6497000000477,2094.652700000048,2095.1530999999045,2095.1530999999045,2099.418399999857,3745,2099.4184999999998,5,2099.424599999905,4,15,135,4,1,1.6,0.3,Time
,,573583,001,男,24,2025-06-04_21h02.08.848,Serial_Dependence_U,2023.2.3,Win32,185.18518518438674,,,,,,2099.424700000048,159,4,2099.4247999999525,159,,,,2103.5635,2104.061799999952,2103.0622000000476,2103.5633999998568,2100.4295999999044,2103.0622000000476,2104.061799999952,2104.5617000000475,2104.5617000000475,2108.972399999857,3974,2108.972399999857,5,2108.9783999998567,4,16,136,9,1,1.6,0.7,Time
,,573583,001,男,24,2025-06-04_21h02.08.848,Serial_Dependence_U,2023.2.3,Win32,185.18518518438674,,,,,,2108.9785,53,4,2108.9785,53,,,,2112.7490999999045,2113.248700000048,2112.2455999999047,2112.7490999999045,2109.9842000000476,2112.2455,2113.248700000048,2113.7485999999044,2113.7485999999044,2117.4102000000476,3254,2117.4102000000476,5,2117.4155,4,17,137,12,1,1.2,0.3,Time
,,573583,001,男,24,2025-06-04_21h02.08.848,Serial_Dependence_U,2023.2.3,Win32,185.18518518438674,,,,,,2117.4155999999048,264,4,2117.4155999999048,264,,,,2121.154700000048,2121.652399999857,2120.6487000000475,2121.154599999905,2118.415399999857,2120.6487000000475,2121.652399999857,2122.153399999857,2122.153399999857,2126.7237999999525,4117,2126.7237999999525,5,2126.7300999999047,4,18,138,27,1,1.2,0.7,Time
,,573583,001,男,24,2025-06-04_21h02.08.848,Serial_Dependence_U,2023.2.3,Win32,185.18518518438674,,,,,,2126.7302999999524,83,4,2126.730399999857,83,,,,2130.0695999999048,2130.5672000000477,2129.5635999999045,2130.0695,2127.7290999999045,2129.5635999999045,2130.5672000000477,2131.0685,2131.0685,2134.178399999857,2703,2134.178399999857,5,2134.1842000000474,4,19,139,15,1,0.8,0.7,Time
,,573583,001,男,24,2025-06-04_21h02.08.848,Serial_Dependence_U,2023.2.3,Win32,185.18518518438674,,,,,,2134.184399999857,169,4,2134.184399999857,169,,,,2137.9512000000477,2138.450399999857,2137.4505999999046,2137.9512000000477,2135.188899999857,2137.4505999999046,2138.450399999857,2138.9487999999524,2138.9487999999524,2142.7055,3316,2142.7055,5,2142.710700000048,4,20,140,22,1,1.2,0.3,Time
,,573583,001,男,24,2025-06-04_21h02.08.848,Serial_Dependence_U,2023.2.3,Win32,185.18518518438674,,,,,,2142.710799999952,60,4,2142.710799999952,60,,,,2146.0827000000477,2146.580399999857,2145.5822999999523,2146.0825999999047,2143.7167000000477,2145.5822000000476,2146.580399999857,2147.080399999857,2147.080399999857,2150.779700000048,3297,2150.779700000048,5,2150.7852000000476,4,21,141,10,1,0.8,0.3,Time
,,573583,001,男,24,2025-06-04_21h02.08.848,Serial_Dependence_U,2023.2.3,Win32,185.18518518438674,,,,,,2150.7852999999523,321,4,2150.785399999857,321,,,,2154.957,2155.456200000048,2154.451599999905,2154.956899999857,2151.7907999999525,2154.4515,2155.456200000048,2155.956099999905,2155.956200000048,2160.3387999999522,3920,2160.338899999857,5,2160.344700000048,4,22,142,14,1,1.6,0.3,Time
,,573583,001,男,24,2025-06-04_21h02.08.848,Serial_Dependence_U,2023.2.3,Win32,185.18518518438674,,,,,,2160.344899999857,173,4,2160.345,173,,,,2163.721700000048,2164.2210999999047,2163.2162000000476,2163.721700000048,2161.35,2163.2160999999046,2164.2210999999047,2164.721,2164.7210999999047,2168.442599999905,3207,2168.442700000048,5,2168.449,4,23,143,20,1,0.8,0.3,Time
,,573583,001,男,24,2025-06-04_21h02.08.848,Serial_Dependence_U,2023.2.3,Win32,185.18518518438674,,,,,,2168.449099999905,324,4,2168.449099999905,324,,,,2172.1920999999047,2172.6915,2171.6865999999045,2172.191899999857,2169.4538999998567,2171.6865999999045,2172.6915,2173.1915999999046,2173.1915999999046,2177.4737000000478,3815,2177.4737000000478,5,2177.477899999857,4,24,144,7,1,1.2,0.7,Time
,,573583,001,男,24,2025-06-04_21h02.08.848,Serial_Dependence_U,2023.2.3,Win32,185.18518518438674,,,,,,2177.478,136,4,2177.4780999999048,136,,,,2181.6230999999048,2182.122899999857,2181.117899999857,2181.623,2178.485200000048,2181.1177999999522,2182.122899999857,2182.6227999999523,2182.6227999999523,2186.5165,3409,2186.5165999999044,5,2186.525799999952,4,25,145,29,1,1.6,0.7,Time
,,573583,001,男,24,2025-06-04_21h02.08.848,Serial_Dependence_U,2023.2.3,Win32,185.18518518438674,,,,,,2186.526,249,4,2186.5260999999045,249,,,,2190.6658999998567,2191.165399999857,2190.1605,2190.6658999998567,2187.527899999857,2190.160399999857,2191.165399999857,2191.6652000000477,2191.6652999999524,2196.0588999998567,3831,2196.0588999998567,5,2196.0647000000477,4,26,146,19,1,1.6,0.7,Time
,,573583,001,男,24,2025-06-04_21h02.08.848,Serial_Dependence_U,2023.2.3,Win32,185.18518518438674,,,,,,2196.0647999999524,4,4,2196.064899999857,4,,,,2199.8085,2200.3077999999523,2199.302899999857,2199.808399999857,2197.0697999999525,2199.302799999952,2200.3077999999523,2200.8077000000476,2200.8077999999523,2204.5525999999045,3119,2204.5527000000475,5,2204.558599999905,4,27,147,17,1,1.2,0.7,Time
,,573583,001,男,24,2025-06-04_21h02.08.848,Serial_Dependence_U,2023.2.3,Win32,185.18518518438674,,,,,,2204.5587999999525,226,4,2204.5587999999525,226,,,,2208.3342999999522,2208.833799999952,2207.8287999999525,2208.3342000000475,2205.5627000000477,2207.828700000048,2208.833799999952,2209.333799999952,2209.333799999952,2213.177399999857,3120,2213.177399999857,5,2213.183700000048,4,28,148,2,1,1.2,0.3,Time
,,573583,001,男,24,2025-06-04_21h02.08.848,Serial_Dependence_U,2023.2.3,Win32,185.18518518438674,,,,,,2213.1837999999525,52,4,2213.1838999998567,52,,,,2217.1547999999525,2217.6540999999047,2216.6490999999046,2217.154700000048,2214.1830999999047,2216.649,2217.6540999999047,2218.153899999857,2218.153899999857,2222.4087999999524,3389,2222.408899999857,5,2222.4167000000475,4,29,149,3,1,1.4,0.3,Time
,,573583,001,男,24,2025-06-04_21h02.08.848,Serial_Dependence_U,2023.2.3,Win32,185.18518518438674,,,,,,2222.416899999857,325,5,2369.351200000048,325,s,146.92450000000008,,2372.6932000000475,2373.1927999999525,2372.1882999999525,2372.6932000000475,2370.3552000000477,2372.188099999905,2373.1927999999525,2373.692599999905,2373.692599999905,2378.248700000048,4101,2378.248799999952,5,2378.256,5,0,150,5,1,0.8,0.7,Time
,,573583,001,男,24,2025-06-04_21h02.08.848,Serial_Dependence_U,2023.2.3,Win32,185.18518518438674,,,,,,2378.2560999999046,296,5,2378.2567000000477,296,,,,2382.1932000000475,2382.690799999952,2381.687,2382.1930999999045,2379.255200000048,2381.686899999857,2382.690799999952,2383.190700000048,2383.190700000048,2387.8642999999524,4198,2387.8642999999524,5,2387.8715,5,1,151,8,1,1.4,0.7,Time
,,573583,001,男,24,2025-06-04_21h02.08.848,Serial_Dependence_U,2023.2.3,Win32,185.18518518438674,,,,,,2387.8715999999044,260,5,2387.8717000000474,260,,,,2391.8407000000475,2392.339399999857,2391.3392000000476,2391.8407000000475,2388.8785999999045,2391.3390999999046,2392.339399999857,2392.8385999999045,2392.8390999999046,2396.545099999905,3239,2396.545099999905,5,2396.550299999952,5,2,152,23,1,1.4,0.3,Time
,,573583,001,男,24,2025-06-04_21h02.08.848,Serial_Dependence_U,2023.2.3,Win32,185.18518518438674,,,,,,2396.5505,146,5,2396.5505,146,,,,2399.887399999857,2400.3868999998567,2399.382899999857,2399.887399999857,2397.5498999998567,2399.382899999857,2400.3868999998567,2400.8867999999525,2400.8867999999525,2404.9082999999523,3632,2404.908399999857,5,2404.9145,5,3,153,25,1,0.8,0.7,Time
,,573583,001,男,24,2025-06-04_21h02.08.848,Serial_Dependence_U,2023.2.3,Win32,185.18518518438674,,,,,,2404.9147000000476,348,5,2404.9147999999523,348,,,,2408.8520999999046,2409.3515999999045,2408.3468999998568,2408.8520999999046,2405.9138999998568,2408.3467999999525,2409.3517000000475,2409.8517000000475,2409.851799999952,2414.1140999999047,3815,2414.1142000000477,5,2414.120399999857,5,4,154,28,1,1.4,0.7,Time
,,573583,001,男,24,2025-06-04_21h02.08.848,Serial_Dependence_U,2023.2.3,Win32,185.18518518438674,,,,,,2414.1205999999047,150,5,2414.1207000000477,150,,,,2418.251899999857,2418.75,2417.7512000000474,2418.251899999857,2415.118399999857,2417.7510999999045,2418.75,2419.2495999999046,2419.2497000000476,2424.027899999857,4226,2424.027899999857,5,2424.0337999999524,5,5,155,29,1,1.6,0.7,Time
,,573583,001,男,24,2025-06-04_21h02.08.848,Serial_Dependence_U,2023.2.3,Win32,185.18518518438674,,,,,,2424.033899999857,177,5,2424.033899999857,177,,,,2427.766899999857,2428.264399999857,2427.266,2427.766700000048,2425.0335,2427.266,2428.264399999857,2428.764200000048,2428.764299999952,2432.827299999952,3634,2432.827299999952,5,2432.833,5,6,156,7,1,1.2,0.7,Time
,,573583,001,男,24,2025-06-04_21h02.08.848,Serial_Dependence_U,2023.2.3,Win32,185.18518518438674,,,,,,2432.833099999905,255,5,2432.833200000048,255,,,,2436.369899999857,2436.868399999857,2435.865399999857,2436.369899999857,2433.831799999952,2435.865299999952,2436.868399999857,2437.3680999999046,2437.3680999999046,2441.625399999857,3838,2441.6255,5,2441.6322999999525,5,7,157,6,1,1,0.7,Time
,,573583,001,男,24,2025-06-04_21h02.08.848,Serial_Dependence_U,2023.2.3,Win32,185.18518518438674,,,,,,2441.6323999998567,165,5,2441.6325999999044,165,,,,2445.610899999857,2446.110399999857,2445.105399999857,2445.610899999857,2442.6395999999045,2445.1052999999524,2446.110399999857,2446.610299999952,2446.610399999857,2450.4817999999523,3471,2450.4817999999523,5,2450.4860999999046,5,8,158,13,1,1.4,0.3,Time
,,573583,001,男,24,2025-06-04_21h02.08.848,Serial_Dependence_U,2023.2.3,Win32,185.18518518438674,,,,,,2450.4862000000476,94,5,2450.4862999999523,94,,,,2454.2310999999045,2454.730899999857,2453.7257000000477,2454.2309999999998,2451.492899999857,2453.7257000000477,2454.730899999857,2455.230700000048,2455.230700000048,2459.768799999952,4127,2459.768799999952,5,2459.774899999857,5,9,159,27,1,1.2,0.7,Time
,,573583,001,男,24,2025-06-04_21h02.08.848,Serial_Dependence_U,2023.2.3,Win32,185.18518518438674,,,,,,2459.775,269,5,2459.775099999905,269,,,,2463.945899999857,2464.445399999857,2463.4403999998567,2463.945799999952,2460.779700000048,2463.4403999998567,2464.445399999857,2464.945299999952,2464.945299999952,2468.866700000048,3504,2468.8668999998567,5,2468.8722999999522,5,10,160,24,1,1.6,0.3,Time
,,573583,001,男,24,2025-06-04_21h02.08.848,Serial_Dependence_U,2023.2.3,Win32,185.18518518438674,,,,,,2468.872399999857,87,5,2468.872399999857,87,,,,2472.816299999952,2473.3155999999044,2472.3105,2472.8162000000475,2469.8775999999048,2472.3105,2473.3155999999044,2473.8155,2473.8155999999044,2478.137200000048,3749,2478.137200000048,5,2478.143799999952,5,11,161,18,1,1.4,0.7,Time
,,573583,001,男,24,2025-06-04_21h02.08.848,Serial_Dependence_U,2023.2.3,Win32,185.18518518438674,,,,,,2478.143799999952,327,5,2478.144,327,,,,2481.683,2482.1805999999046,2481.1812000000477,2481.6827999999523,2479.1480999999044,2481.1812000000477,2482.1805999999046,2482.680399999857,2482.680399999857,2486.987899999857,3915,2486.987899999857,5,2486.9932999999523,5,12,162,16,1,1,0.7,Time
,,573583,001,男,24,2025-06-04_21h02.08.848,Serial_Dependence_U,2023.2.3,Win32,185.18518518438674,,,,,,2486.9935,49,5,2486.9935999999047,49,,,,2491.1252999999524,2491.623,2490.6245999999046,2491.1252999999524,2487.9920999999044,2490.6245,2491.623,2492.1227999999523,2492.122899999857,2496.467799999952,3962,2496.467899999857,5,2496.4732999999524,5,13,163,9,1,1.6,0.7,Time
,,573583,001,男,24,2025-06-04_21h02.08.848,Serial_Dependence_U,2023.2.3,Win32,185.18518518438674,,,,,,2496.4735,280,5,2496.4735,280,,,,2499.8072000000475,2500.3045,2499.3065,2499.8072000000475,2497.4737999999525,2499.3065,2500.3045,2500.8042999999525,2500.8042999999525,2504.9772999999523,3742,2504.977399999857,5,2504.982599999905,5,14,164,15,1,0.8,0.7,Time
,,573583,001,男,24,2025-06-04_21h02.08.848,Serial_Dependence_U,2023.2.3,Win32,185.18518518438674,,,,,,2504.9827000000478,159,5,2504.9827999999525,159,,,,2508.7530999999044,2509.253299999952,2508.248799999952,2508.753,2505.9827000000478,2508.248700000048,2509.253299999952,2509.7528999998567,2509.7528999998567,2513.2200999999045,2905,2513.2202000000475,5,2513.2277999999524,5,15,165,12,1,1.2,0.3,Time
,,573583,001,男,24,2025-06-04_21h02.08.848,Serial_Dependence_U,2023.2.3,Win32,185.18518518438674,,,,,,2513.228,170,5,2513.2282000000478,170,,,,2516.764399999857,2517.2618999998567,2516.262399999857,2516.764299999952,2514.2295999999046,2516.262399999857,2517.262,2517.7617999999525,2517.7617999999525,2521.4292999999525,3233,2521.4292999999525,5,2521.4377999999524,5,16,166,26,1,1,0.7,Time
,,573583,001,男,24,2025-06-04_21h02.08.848,Serial_Dependence_U,2023.2.3,Win32,185.18518518438674,,,,,,2521.438,195,5,2521.438099999905,195,,,,2525.016099999905,2525.5155999999047,2524.5105999999046,2525.016099999905,2522.444399999857,2524.5105,2525.5157000000477,2526.0155,2526.0155,2529.4095,2949,2529.4095999999045,5,2529.4155999999048,5,17,167,21,1,1,0.3,Time
,,573583,001,男,24,2025-06-04_21h02.08.848,Serial_Dependence_U,2023.2.3,Win32,185.18518518438674,,,,,,2529.4157000000478,13,5,2529.4157999999525,13,,,,2533.1587000000477,2533.6582000000476,2532.653299999952,2533.1585999999047,2530.4202999999525,2532.653299999952,2533.6582000000476,2534.1582999999523,2534.1582999999523,2538.442700000048,3899,2538.442700000048,5,2538.448899999857,5,18,168,17,1,1.2,0.7,Time
,,573583,001,男,24,2025-06-04_21h02.08.848,Serial_Dependence_U,2023.2.3,Win32,185.18518518438674,,,,,,2538.449099999905,185,5,2538.4492000000478,185,,,,2542.0197000000476,2542.5175,2541.5137999999524,2542.0195999999046,2539.453,2541.5135999999047,2542.5175,2543.019,2543.0190999999045,2546.8905,3427,2546.8905999999047,5,2546.896299999952,5,19,169,11,1,1,0.3,Time
,,573583,001,男,24,2025-06-04_21h02.08.848,Serial_Dependence_U,2023.2.3,Win32,185.18518518438674,,,,,,2546.8965,274,5,2546.8965,274,,,,2550.463399999857,2550.9602000000477,2549.962599999905,2550.463200000048,2547.9010999999045,2549.9625,2550.9602999999524,2551.4567000000475,2551.4567000000475,2554.9055999999046,2976,2554.9055999999046,5,2554.9110999999048,5,20,170,1,1,1,0.3,Time
,,573583,001,男,24,2025-06-04_21h02.08.848,Serial_Dependence_U,2023.2.3,Win32,185.18518518438674,,,,,,2554.9112000000478,68,5,2554.9112000000478,68,,,,2558.677799999952,2559.175200000048,2558.176899999857,2558.6777000000475,2555.9112999999525,2558.1767999999524,2559.175299999952,2559.675,2559.675,2563.585399999857,3462,2563.585399999857,5,2563.5910999999046,5,21,171,2,1,1.2,0.3,Time
,,573583,001,男,24,2025-06-04_21h02.08.848,Serial_Dependence_U,2023.2.3,Win32,185.18518518438674,,,,,,2563.5912000000476,94,5,2563.5912999999523,94,,,,2567.5645999999047,2568.0620999999046,2567.063799999952,2567.5645,2564.5982999999524,2567.0637000000474,2568.0620999999046,2568.5642000000475,2568.5642999999523,2572.5365999999044,3527,2572.536700000048,5,2572.543200000048,5,22,172,3,1,1.4,0.3,Time
,,573583,001,男,24,2025-06-04_21h02.08.848,Serial_Dependence_U,2023.2.3,Win32,185.18518518438674,,,,,,2572.5434999999998,2,5,2572.5435999999045,2,,,,2576.6845999999045,2577.182299999952,2576.1827999999523,2576.6845,2573.5498999998567,2576.1827999999523,2577.182299999952,2577.682899999857,2577.682899999857,2582.599799999952,4309,2582.599899999857,5,2582.6057999999525,5,23,173,19,1,1.6,0.7,Time
,,573583,001,男,24,2025-06-04_21h02.08.848,Serial_Dependence_U,2023.2.3,Win32,185.18518518438674,,,,,,2582.6059999999998,225,5,2582.6059999999998,225,,,,2586.377399999857,2586.8747000000476,2585.872,2586.3772999999524,2583.61,2585.872,2586.8747000000476,2587.3745,2587.3745999999046,2591.448399999857,3615,2591.448399999857,5,2591.4527999999523,5,24,174,22,1,1.2,0.3,Time
,,573583,001,男,24,2025-06-04_21h02.08.848,Serial_Dependence_U,2023.2.3,Win32,185.18518518438674,,,,,,2591.453,260,5,2591.453,260,,,,2595.619799999952,2596.117200000048,2595.113399999857,2595.6197000000475,2592.4525999999046,2595.1132999999522,2596.117200000048,2596.617200000048,2596.617200000048,2600.794,3789,2600.794,5,2600.8000999999044,5,25,175,14,1,1.6,0.3,Time
,,573583,001,男,24,2025-06-04_21h02.08.848,Serial_Dependence_U,2023.2.3,Win32,185.18518518438674,,,,,,2600.800200000048,214,5,2600.800200000048,214,,,,2604.962,2605.4597000000476,2604.461399999857,2604.962,2601.8005999999045,2604.461399999857,2605.4597000000476,2605.960700000048,2605.960799999952,2610.6717999999523,4300,2610.671899999857,5,2610.6775999999045,5,26,176,4,1,1.6,0.3,Time
,,573583,001,男,24,2025-06-04_21h02.08.848,Serial_Dependence_U,2023.2.3,Win32,185.18518518438674,,,,,,2610.677799999952,184,5,2610.677899999857,184,,,,2614.0434999999998,2614.5410999999044,2613.543,2614.0434999999998,2611.677,2613.543,2614.5410999999044,2615.0407999999525,2615.0408999998567,2619.641899999857,4070,2619.642,5,2619.6485999999045,5,27,177,10,1,0.8,0.3,Time
,,573583,001,男,24,2025-06-04_21h02.08.848,Serial_Dependence_U,2023.2.3,Win32,185.18518518438674,,,,,,2619.6487000000475,56,5,2619.648799999952,56,,,,2623.018799999952,2623.5175,2622.514200000048,2623.018799999952,2620.652399999857,2622.514099999905,2623.5175,2624.0165999999044,2624.0165999999044,2628.0565,3572,2628.0565,5,2628.0602000000476,5,28,178,20,1,0.8,0.3,Time
,,573583,001,男,24,2025-06-04_21h02.08.848,Serial_Dependence_U,2023.2.3,Win32,185.18518518438674,,,,,,2628.0602999999523,21,5,2628.0602999999523,21,,,,2631.428399999857,2631.927099999905,2630.9232000000475,2631.4282999999523,2629.061200000048,2630.9230999999045,2631.927099999905,2632.4277000000475,2632.4277000000475,2636.8882999999523,3976,2636.888399999857,5,2636.8935,5,29,179,0,1,0.8,0.3,Time
,,573583,001,男,24,2025-06-04_21h02.08.848,Serial_Dependence_U,2023.2.3,Win32,185.18518518438674,,,,,,2636.893700000048,42,6,2708.215899999857,42,s,71.31060000014304,,2711.7562000000476,2712.253299999952,2711.255200000048,2711.756,2709.2215,2711.255200000048,2712.253399999857,2712.753399999857,2712.753399999857,2716.391700000048,3207,2716.391799999952,5,2716.398200000048,6,0,180,26,1,1,0.7,Time
,,573583,001,男,24,2025-06-04_21h02.08.848,Serial_Dependence_U,2023.2.3,Win32,185.18518518438674,,,,,,2716.398299999952,220,6,2716.398799999952,220,,,,2720.3372999999524,2720.8347999999523,2719.8355999999044,2720.3372999999524,2717.402799999952,2719.8355999999044,2720.8347999999523,2721.331299999952,2721.331299999952,2725.6247999999523,3943,2725.624899999857,5,2725.6325999999044,6,1,181,18,1,1.4,0.7,Time
,,573583,001,男,24,2025-06-04_21h02.08.848,Serial_Dependence_U,2023.2.3,Win32,185.18518518438674,,,,,,2725.632799999952,225,6,2725.632799999952,225,,,,2729.6110999999046,2730.1105999999045,2729.1057999999525,2729.611,2726.6395999999045,2729.1057999999525,2730.1105999999045,2730.610299999952,2730.610299999952,2734.4875999999044,3439,2734.4875999999044,5,2734.4930999999046,6,2,182,23,1,1.4,0.3,Time
,,573583,001,男,24,2025-06-04_21h02.08.848,Serial_Dependence_U,2023.2.3,Win32,185.18518518438674,,,,,,2734.4932999999523,148,6,2734.4932999999523,148,,,,2738.061299999952,2738.5587999999525,2737.5605,2738.061200000048,2735.4985999999044,2737.560399999857,2738.5588999998567,2739.0587999999525,2739.0587999999525,2742.688,3232,2742.688099999905,5,2742.6955,6,3,183,11,1,1,0.3,Time
,,573583,001,男,24,2025-06-04_21h02.08.848,Serial_Dependence_U,2023.2.3,Win32,185.18518518438674,,,,,,2742.6955999999045,22,6,2742.6955999999045,22,,,,2746.2685,2746.7682999999524,2745.7632999999523,2746.268399999857,2743.6974999999998,2745.7632000000476,2746.7682999999524,2747.2680999999047,2747.2680999999047,2751.150799999952,3368,2751.150799999952,5,2751.1567000000477,6,4,184,21,1,1,0.3,Time
,,573583,001,男,24,2025-06-04_21h02.08.848,Serial_Dependence_U,2023.2.3,Win32,185.18518518438674,,,,,,2751.1567999999525,138,6,2751.1568999998567,138,,,,2754.527899999857,2755.0275,2754.0225,2754.527799999952,2752.161700000048,2754.022399999857,2755.0275999999044,2755.527399999857,2755.527399999857,2759.5710999999046,3554,2759.5712000000476,5,2759.5772000000475,6,5,185,10,1,0.8,0.3,Time
,,573583,001,男,24,2025-06-04_21h02.08.848,Serial_Dependence_U,2023.2.3,Win32,185.18518518438674,,,,,,2759.577299999952,52,6,2759.577399999857,52,,,,2763.5205,2764.02,2763.015,2763.520399999857,2760.5820999999046,2763.015,2764.02,2764.519899999857,2764.519899999857,2768.6967999999524,3743,2768.696899999857,5,2768.703399999857,6,6,186,28,1,1.4,0.7,Time
,,573583,001,男,24,2025-06-04_21h02.08.848,Serial_Dependence_U,2023.2.3,Win32,185.18518518438674,,,,,,2768.703599999905,16,6,2768.703700000048,16,,,,2772.074099999905,2772.5737999999524,2771.5687999999523,2772.074099999905,2769.707899999857,2771.5687000000476,2772.5737999999524,2773.0737000000477,2773.0737000000477,2777.4395,3917,2777.4395999999047,5,2777.446899999857,6,7,187,20,1,0.8,0.3,Time
,,573583,001,男,24,2025-06-04_21h02.08.848,Serial_Dependence_U,2023.2.3,Win32,185.18518518438674,,,,,,2777.447,52,6,2777.447099999905,52,,,,2780.7892000000475,2781.2885,2780.2835999999047,2780.7890999999045,2778.450399999857,2780.2835,2781.288700000048,2781.788399999857,2781.788399999857,2785.21,2993,2785.21,5,2785.215299999952,6,8,188,15,1,0.8,0.7,Time
,,573583,001,男,24,2025-06-04_21h02.08.848,Serial_Dependence_U,2023.2.3,Win32,185.18518518438674,,,,,,2785.215399999857,23,6,2785.2155,23,,,,2789.1593999998568,2789.659,2788.653899999857,2789.1593999998568,2786.2212000000477,2788.6537999999523,2789.659099999905,2790.1587999999524,2790.158899999857,2793.902799999952,3352,2793.902899999857,5,2793.9095,6,9,189,8,1,1.4,0.7,Time
,,573583,001,男,24,2025-06-04_21h02.08.848,Serial_Dependence_U,2023.2.3,Win32,185.18518518438674,,,,,,2793.9095999999045,157,6,2793.9097000000475,157,,,,2797.4519999999998,2797.9515,2796.9465,2797.4519999999998,2794.913700000048,2796.946399999857,2797.9515,2798.4515,2798.4515,2802.7117999999523,3784,2802.7117999999523,5,2802.717899999857,6,10,190,16,1,1,0.7,Time
,,573583,001,男,24,2025-06-04_21h02.08.848,Serial_Dependence_U,2023.2.3,Win32,185.18518518438674,,,,,,2802.718,54,6,2802.7180999999046,54,,,,2806.461299999952,2806.960899999857,2805.9555999999047,2806.461299999952,2803.722899999857,2805.9555,2806.960899999857,2807.460899999857,2807.460899999857,2811.3990999999046,3456,2811.3990999999046,5,2811.404599999905,6,11,191,17,1,1.2,0.7,Time
,,573583,001,男,24,2025-06-04_21h02.08.848,Serial_Dependence_U,2023.2.3,Win32,185.18518518438674,,,,,,2811.404700000048,209,6,2811.404700000048,209,,,,2815.548399999857,2816.047899999857,2815.0427000000477,2815.548299999952,2812.41,2815.0425999999047,2816.047899999857,2816.547599999905,2816.547599999905,2820.6467000000475,4040,2820.6467000000475,5,2820.651,6,12,192,29,1,1.6,0.7,Time
,,573583,001,男,24,2025-06-04_21h02.08.848,Serial_Dependence_U,2023.2.3,Win32,185.18518518438674,,,,,,2820.6512000000475,185,6,2820.6512999999522,185,,,,2824.224,2824.7237000000478,2823.7185,2824.2238999998567,2821.6577000000475,2823.7185,2824.7237000000478,2825.2235999999048,2825.2235999999048,2829.1227000000476,3472,2829.1227999999523,5,2829.1285999999045,6,13,193,1,1,1,0.3,Time
,,573583,001,男,24,2025-06-04_21h02.08.848,Serial_Dependence_U,2023.2.3,Win32,185.18518518438674,,,,,,2829.1287000000475,118,6,2829.128799999952,118,,,,2833.2663999998567,2833.766099999905,2832.761399999857,2833.2663999998567,2830.128399999857,2832.7612999999524,2833.766200000048,2834.266,2834.266,2838.7540999999046,3998,2838.7540999999046,5,2838.7600999999045,6,14,194,9,1,1.6,0.7,Time
,,573583,001,男,24,2025-06-04_21h02.08.848,Serial_Dependence_U,2023.2.3,Win32,185.18518518438674,,,,,,2838.7602000000475,174,6,2838.760299999952,174,,,,2842.936799999952,2843.436399999857,2842.4315,2842.9367000000475,2839.7652999999523,2842.4315,2843.4365,2843.936200000048,2843.936299999952,2848.4575999999047,4054,2848.4575999999047,5,2848.4645,6,15,195,14,1,1.6,0.3,Time
,,573583,001,男,24,2025-06-04_21h02.08.848,Serial_Dependence_U,2023.2.3,Win32,185.18518518438674,,,,,,2848.4647000000477,166,6,2848.4647000000477,166,,,,2851.807299999952,2852.3065999999044,2851.3015999999047,2851.8072000000475,2849.4687000000476,2851.3015,2852.3065999999044,2852.8065999999044,2852.8065999999044,2857.139099999905,3865,2857.139200000048,5,2857.146399999857,6,16,196,5,1,0.8,0.7,Time
,,573583,001,男,24,2025-06-04_21h02.08.848,Serial_Dependence_U,2023.2.3,Win32,185.18518518438674,,,,,,2857.1467000000475,18,6,2857.1467000000475,18,,,,2861.3215,2861.8212000000476,2860.816299999952,2861.3215,2858.1502999999525,2860.8162000000475,2861.8212000000476,2862.3212000000476,2862.3212000000476,2866.2647000000475,3454,2866.2647000000475,5,2866.269899999857,6,17,197,4,1,1.6,0.3,Time
,,573583,001,男,24,2025-06-04_21h02.08.848,Serial_Dependence_U,2023.2.3,Win32,185.18518518438674,,,,,,2866.2700999999047,151,6,2866.2702000000477,151,,,,2869.8140999999046,2870.313799999952,2869.309,2869.8140999999046,2867.2760999999045,2869.3088999998567,2870.313899999857,2870.8137000000474,2870.8137000000474,2874.9797999999523,3738,2874.9797999999523,5,2874.986399999857,6,18,198,6,1,1,0.7,Time
,,573583,001,男,24,2025-06-04_21h02.08.848,Serial_Dependence_U,2023.2.3,Win32,185.18518518438674,,,,,,2874.9865,45,6,2874.9865,45,,,,2879.1565999999048,2879.6562999999524,2878.6512000000475,2879.1565,2875.985200000048,2878.6512000000475,2879.6562999999524,2880.1560999999047,2880.1562000000476,2884.827899999857,4266,2884.827899999857,5,2884.836,6,19,199,24,1,1.6,0.3,Time
,,573583,001,男,24,2025-06-04_21h02.08.848,Serial_Dependence_U,2023.2.3,Win32,185.18518518438674,,,,,,2884.8360999999045,192,6,2884.8360999999045,192,,,,2888.5715,2889.070799999952,2888.0660999999045,2888.5712999999523,2885.8332999999525,2888.066,2889.070899999857,2889.570899999857,2889.570899999857,2894.37,4309,2894.3700999999046,5,2894.3765999999046,6,20,200,27,1,1.2,0.7,Time
,,573583,001,男,24,2025-06-04_21h02.08.848,Serial_Dependence_U,2023.2.3,Win32,185.18518518438674,,,,,,2894.3767000000475,154,6,2894.3767999999523,154,,,,2898.147,2898.6467000000475,2897.641899999857,2898.146899999857,2895.3757999999525,2897.641899999857,2898.6467000000475,2899.1465,2899.1465999999045,2903.0072999999525,3445,2903.0072999999525,5,2903.0137000000477,6,21,201,2,1,1.2,0.3,Time
,,573583,001,男,24,2025-06-04_21h02.08.848,Serial_Dependence_U,2023.2.3,Win32,185.18518518438674,,,,,,2903.013899999857,304,6,2903.013899999857,304,,,,2906.7897000000476,2907.289299999952,2906.2842999999525,2906.7895999999046,2904.0182999999524,2906.2842999999525,2907.289299999952,2907.789299999952,2907.789299999952,2911.777399999857,3599,2911.7775,5,2911.783399999857,6,22,202,12,1,1.2,0.3,Time
,,573583,001,男,24,2025-06-04_21h02.08.848,Serial_Dependence_U,2023.2.3,Win32,185.18518518438674,,,,,,2911.7835,270,6,2911.7835999999047,270,,,,2915.1272000000477,2915.626299999952,2914.6215,2915.1270999999047,2912.7885,2914.6213999998567,2915.626299999952,2916.1262000000474,2916.126299999952,2918.9592000000475,2445,2918.9592000000475,5,2918.966,6,23,203,25,1,0.8,0.7,Time
,,573583,001,男,24,2025-06-04_21h02.08.848,Serial_Dependence_U,2023.2.3,Win32,185.18518518438674,,,,,,2918.9662000000476,141,6,2918.9662000000476,141,,,,2923.1030999999048,2923.602399999857,2922.597399999857,2923.103,2919.9647000000477,2922.597399999857,2923.602399999857,2924.1022999999523,2924.102399999857,2928.4570999999046,3910,2928.4570999999046,5,2928.463200000048,6,24,204,19,1,1.6,0.7,Time
,,573583,001,男,24,2025-06-04_21h02.08.848,Serial_Dependence_U,2023.2.3,Win32,185.18518518438674,,,,,,2928.463399999857,261,6,2928.4635,261,,,,2931.8342000000475,2932.333899999857,2931.329200000048,2931.8342000000475,2929.4682000000475,2931.329,2932.334,2932.833799999952,2932.833799999952,2936.4830999999044,3265,2936.483200000048,5,2936.489799999952,6,25,205,0,1,0.8,0.3,Time
,,573583,001,男,24,2025-06-04_21h02.08.848,Serial_Dependence_U,2023.2.3,Win32,185.18518518438674,,,,,,2936.489899999857,177,6,2936.49,177,,,,2940.465899999857,2940.965399999857,2939.9605,2940.465799999952,2937.4945,2939.960399999857,2940.965399999857,2941.465200000048,2941.465200000048,2945.6033999998567,3689,2945.6035,5,2945.6105999999045,6,26,206,13,1,1.4,0.3,Time
,,573583,001,男,24,2025-06-04_21h02.08.848,Serial_Dependence_U,2023.2.3,Win32,185.18518518438674,,,,,,2945.610899999857,313,6,2945.610899999857,313,,,,2949.3807000000475,2949.880099999905,2948.8752999999524,2949.3805999999045,2946.6092999999523,2948.8752000000477,2949.880099999905,2950.380099999905,2950.380099999905,2954.6182000000476,3776,2954.6182999999523,5,2954.6265999999046,6,27,207,22,1,1.2,0.3,Time
,,573583,001,男,24,2025-06-04_21h02.08.848,Serial_Dependence_U,2023.2.3,Win32,185.18518518438674,,,,,,2954.6267999999523,248,6,2954.626899999857,248,,,,2958.600399999857,2959.1002999999523,2958.0955,2958.6002999999523,2955.6295,2958.095399999857,2959.1002999999523,2959.6002999999523,2959.6002999999523,2963.9383999998568,3937,2963.9383999998568,5,2963.945200000048,6,28,208,3,1,1.4,0.3,Time
,,573583,001,男,24,2025-06-04_21h02.08.848,Serial_Dependence_U,2023.2.3,Win32,185.18518518438674,,,,,,2963.945399999857,53,6,2963.945399999857,53,,,,2967.6875999999047,2968.1875,2967.182399999857,2967.687399999857,2964.9495999999044,2967.182299999952,2968.1875,2968.6872999999523,2968.687399999857,2972.886599999905,3823,2972.886599999905,5,2972.893399999857,6,29,209,7,1,1.2,0.7,Time
,,573583,001,男,24,2025-06-04_21h02.08.848,Serial_Dependence_U,2023.2.3,Win32,185.18518518438674,,,,,,2972.893599999905,209,7,2990.983399999857,209,s,18.077300000190917,,2994.7263999998568,2995.2257999999524,2994.2210999999047,2994.726200000048,2991.9880999999045,2994.221,2995.2257999999524,2995.725899999857,2995.725899999857,3000.9592000000475,4816,3000.9592999999522,5,3000.968,7,0,210,17,1,1.2,0.7,Time
,,573583,001,男,24,2025-06-04_21h02.08.848,Serial_Dependence_U,2023.2.3,Win32,185.18518518438674,,,,,,3000.9682000000475,242,7,3000.9687999999524,242,,,,3004.3372999999524,3004.834899999857,3003.8355,3004.3372999999524,3001.9747000000475,3003.8352999999524,3004.834899999857,3005.3347999999523,3005.334899999857,3009.3305,3610,3009.3305,5,3009.335899999857,7,1,211,20,1,0.8,0.3,Time
,,573583,001,男,24,2025-06-04_21h02.08.848,Serial_Dependence_U,2023.2.3,Win32,185.18518518438674,,,,,,3009.336,310,7,3009.3362000000475,310,,,,3012.900099999905,3013.3997000000477,3012.3960999999044,3012.900099999905,3010.3355,3012.3960999999044,3013.3997000000477,3013.8995999999047,3013.8995999999047,3017.567700000048,3604,3017.5677999999525,5,3017.573899999857,7,2,212,21,1,1,0.3,Time
,,573583,001,男,24,2025-06-04_21h02.08.848,Serial_Dependence_U,2023.2.3,Win32,185.18518518438674,,,,,,3017.574099999905,124,7,3017.5742000000478,124,,,,3021.505899999857,3022.003299999952,3021.005200000048,3021.505899999857,3018.5732000000476,3021.005099999905,3022.003299999952,3022.503399999857,3022.503399999857,3026.683399999857,3794,3026.6835,5,3026.6905999999044,7,3,213,28,1,1.4,0.7,Time
,,573583,001,男,24,2025-06-04_21h02.08.848,Serial_Dependence_U,2023.2.3,Win32,185.18518518438674,,,,,,3026.690799999952,48,7,3026.690799999952,48,,,,3030.263,3030.7625999999045,3029.757700000048,3030.263,3027.6967999999524,3029.7575999999044,3030.7625999999045,3031.2625,3031.2625,3035.345399999857,3709,3035.3455,5,3035.3520999999046,7,4,214,11,1,1,0.3,Time
,,573583,001,男,24,2025-06-04_21h02.08.848,Serial_Dependence_U,2023.2.3,Win32,185.18518518438674,,,,,,3035.3522000000476,51,7,3035.3522999999523,51,,,,3038.6945999999048,3039.1942000000477,3038.1892999999523,3038.6945,3036.356299999952,3038.1892000000475,3039.1942000000477,3039.6940999999047,3039.6940999999047,3044.1515,4055,3044.1515,5,3044.1568999998567,7,5,215,15,1,0.8,0.7,Time
,,573583,001,男,24,2025-06-04_21h02.08.848,Serial_Dependence_U,2023.2.3,Win32,185.18518518438674,,,,,,3044.157,349,7,3044.1570999999044,349,,,,3047.4935999999047,3047.992299999952,3046.9885,3047.4935999999047,3045.1555999999046,3046.9882999999522,3047.992299999952,3048.492200000048,3048.492299999952,3051.627,2711,3051.6270999999047,5,3051.632799999952,7,6,216,25,1,0.8,0.7,Time
,,573583,001,男,24,2025-06-04_21h02.08.848,Serial_Dependence_U,2023.2.3,Win32,185.18518518438674,,,,,,3051.632899999857,309,7,3051.632899999857,309,,,,3055.004,3055.5017999999523,3054.498399999857,3055.004,3052.632799999952,3054.4982999999525,3055.5017999999523,3056.001899999857,3056.001899999857,3059.7145,3232,3059.7145,5,3059.7217999999525,7,7,217,10,1,0.8,0.3,Time
,,573583,001,男,24,2025-06-04_21h02.08.848,Serial_Dependence_U,2023.2.3,Win32,185.18518518438674,,,,,,3059.722,139,7,3059.722,139,,,,3063.8947999999523,3064.394399999857,3063.3894999999998,3063.8947999999523,3060.728799999952,3063.389399999857,3064.3945,3064.894399999857,3064.894399999857,3069.5545,4258,3069.5545999999044,5,3069.561,7,8,218,14,1,1.6,0.3,Time
,,573583,001,男,24,2025-06-04_21h02.08.848,Serial_Dependence_U,2023.2.3,Win32,185.18518518438674,,,,,,3069.5610999999044,118,7,3069.561200000048,118,,,,3072.903899999857,3073.4035999999046,3072.398399999857,3072.903899999857,3070.5655999999044,3072.398399999857,3073.4035999999046,3073.9035,3073.9035,3076.8252000000475,2488,3076.825299999952,5,3076.832,7,9,219,5,1,0.8,0.7,Time
,,573583,001,男,24,2025-06-04_21h02.08.848,Serial_Dependence_U,2023.2.3,Win32,185.18518518438674,,,,,,3076.8322000000476,336,7,3076.8322000000476,336,,,,3080.608299999952,3081.1075,3080.1025,3080.608200000048,3077.836299999952,3080.102399999857,3081.1075,3081.6075,3081.6075,3085.051399999857,3067,3085.051399999857,5,3085.0582999999524,7,10,220,22,1,1.2,0.3,Time
,,573583,001,男,24,2025-06-04_21h02.08.848,Serial_Dependence_U,2023.2.3,Win32,185.18518518438674,,,,,,3085.058399999857,308,7,3085.058399999857,308,,,,3089.2005999999046,3089.7000999999045,3088.6955,3089.2005999999046,3086.0622999999523,3088.695399999857,3089.7002000000475,3090.2,3090.2,3094.5990999999044,3844,3094.5990999999044,5,3094.6060999999045,7,11,221,9,1,1.6,0.7,Time
,,573583,001,男,24,2025-06-04_21h02.08.848,Serial_Dependence_U,2023.2.3,Win32,185.18518518438674,,,,,,3094.6062000000475,242,7,3094.606299999952,242,,,,3098.1485999999045,3098.648200000048,3097.6432000000477,3098.1485,3095.610299999952,3097.6432000000477,3098.648299999952,3099.148,3099.148,3103.0975,3576,3103.0975,5,3103.1059999999998,7,12,222,26,1,1,0.7,Time
,,573583,001,男,24,2025-06-04_21h02.08.848,Serial_Dependence_U,2023.2.3,Win32,185.18518518438674,,,,,,3103.1060999999045,346,7,3103.1062000000475,346,,,,3106.88,3107.3797000000477,3106.3745999999046,3106.879899999857,3104.108399999857,3106.3745999999046,3107.3797999999524,3107.8795999999047,3107.8797000000477,3112.0067000000477,3790,3112.0067000000477,5,3112.0130999999046,7,13,223,12,1,1.2,0.3,Time
,,573583,001,男,24,2025-06-04_21h02.08.848,Serial_Dependence_U,2023.2.3,Win32,185.18518518438674,,,,,,3112.0132999999523,107,7,3112.0132999999523,107,,,,3116.1555999999046,3116.655399999857,3115.65,3116.1555999999046,3113.017399999857,3115.65,3116.655399999857,3117.1550999999045,3117.1550999999045,3121.4822000000477,3960,3121.4822000000477,5,3121.487700000048,7,14,224,19,1,1.6,0.7,Time
,,573583,001,男,24,2025-06-04_21h02.08.848,Serial_Dependence_U,2023.2.3,Win32,185.18518518438674,,,,,,3121.487799999952,67,7,3121.487899999857,67,,,,3125.0315999999048,3125.5312999999524,3124.5262999999522,3125.0315999999048,3122.493399999857,3124.5262000000475,3125.5312999999524,3126.0312000000476,3126.0312000000476,3129.7302999999524,3225,3129.730399999857,5,3129.7367999999524,7,15,225,6,1,1,0.7,Time
,,573583,001,男,24,2025-06-04_21h02.08.848,Serial_Dependence_U,2023.2.3,Win32,185.18518518438674,,,,,,3129.737099999905,148,7,3129.737099999905,148,,,,3133.9132000000477,3134.4125999999046,3133.4075999999045,3133.9130999999047,3130.7417999999525,3133.4075999999045,3134.4125999999046,3134.9125999999046,3134.9125999999046,3138.9450999999044,3653,3138.945200000048,5,3138.9512000000477,7,16,226,4,1,1.6,0.3,Time
,,573583,001,男,24,2025-06-04_21h02.08.848,Serial_Dependence_U,2023.2.3,Win32,185.18518518438674,,,,,,3138.951399999857,58,7,3138.951399999857,58,,,,3142.6945,3143.1940999999047,3142.1892000000475,3142.694399999857,3139.956200000048,3142.1890999999046,3143.1940999999047,3143.693899999857,3143.694,3147.3765999999046,3271,3147.3765999999046,5,3147.382799999952,7,17,227,7,1,1.2,0.7,Time
,,573583,001,男,24,2025-06-04_21h02.08.848,Serial_Dependence_U,2023.2.3,Win32,185.18518518438674,,,,,,3147.383,26,7,3147.383,26,,,,3151.3262000000477,3151.8257999999523,3150.8205999999045,3151.3262000000477,3148.387899999857,3150.8205999999045,3151.8257999999523,3152.3255,3152.3255,3156.791299999952,4104,3156.791399999857,5,3156.7972000000477,7,18,228,8,1,1.4,0.7,Time
,,573583,001,男,24,2025-06-04_21h02.08.848,Serial_Dependence_U,2023.2.3,Win32,185.18518518438674,,,,,,3156.797399999857,51,7,3156.797399999857,51,,,,3160.3742000000475,3160.873700000048,3159.8687999999524,3160.3740999999045,3157.8025999999045,3159.8687999999524,3160.873700000048,3161.373700000048,3161.373700000048,3165.295099999905,3560,3165.295099999905,5,3165.3007000000475,7,19,229,1,1,1,0.3,Time
,,573583,001,男,24,2025-06-04_21h02.08.848,Serial_Dependence_U,2023.2.3,Win32,185.18518518438674,,,,,,3165.3007999999522,334,7,3165.300899999857,334,,,,3169.0722999999525,3169.5717000000477,3168.5667999999523,3169.072200000048,3166.3060999999047,3168.5667999999523,3169.5717999999524,3170.0715999999047,3170.0715999999047,3173.998700000048,3584,3173.998799999952,5,3174.005099999905,7,20,230,2,1,1.2,0.3,Time
,,573583,001,男,24,2025-06-04_21h02.08.848,Serial_Dependence_U,2023.2.3,Win32,185.18518518438674,,,,,,3174.005200000048,111,7,3174.0052999999525,111,,,,3178.1477000000477,3178.6475,3177.6427000000476,3178.1475999999047,3175.0097999999525,3177.6427000000476,3178.6475999999047,3179.1475,3179.1475,3182.9690999999048,3448,3182.9692000000477,5,3182.976099999905,7,21,231,29,1,1.6,0.7,Time
,,573583,001,男,24,2025-06-04_21h02.08.848,Serial_Dependence_U,2023.2.3,Win32,185.18518518438674,,,,,,3182.9762999999525,138,7,3182.9762999999525,138,,,,3186.951599999905,3187.4512000000477,3186.446399999857,3186.951599999905,3183.98,3186.4462999999523,3187.4512000000477,3187.9512000000477,3187.9512000000477,3191.4782999999525,3200,3191.4782999999525,5,3191.485,7,22,232,23,1,1.4,0.3,Time
,,573583,001,男,24,2025-06-04_21h02.08.848,Serial_Dependence_U,2023.2.3,Win32,185.18518518438674,,,,,,3191.485099999905,32,7,3191.485200000048,32,,,,3195.427799999952,3195.927200000048,3194.922399999857,3195.4277000000475,3192.489399999857,3194.922399999857,3195.927200000048,3196.427099999905,3196.427200000048,3200.8485,3880,3200.8485999999048,5,3200.8552999999524,7,23,233,18,1,1.4,0.7,Time
,,573583,001,男,24,2025-06-04_21h02.08.848,Serial_Dependence_U,2023.2.3,Win32,185.18518518438674,,,,,,3200.855399999857,328,7,3200.8555,328,,,,3204.8257000000476,3205.3250999999045,3204.32,3204.8257000000476,3201.854299999952,3204.3198999998567,3205.3250999999045,3205.825299999952,3205.825299999952,3209.319,3477,3209.3190999999047,5,3209.326899999857,7,24,234,3,1,1.4,0.3,Time
,,573583,001,男,24,2025-06-04_21h02.08.848,Serial_Dependence_U,2023.2.3,Win32,185.18518518438674,,,,,,3209.3270999999045,52,7,3209.3270999999045,52,,,,3213.0685,3213.5679999999998,3212.563,3213.068299999952,3210.3297999999522,3212.562899999857,3213.5679999999998,3214.0677999999525,3214.0677999999525,3218.1225999999047,3704,3218.1227000000476,5,3218.1285,7,25,235,27,1,1.2,0.7,Time
,,573583,001,男,24,2025-06-04_21h02.08.848,Serial_Dependence_U,2023.2.3,Win32,185.18518518438674,,,,,,3218.1287000000475,343,7,3218.1287000000475,343,,,,3221.672,3222.1715999999046,3221.1667000000475,3221.671899999857,3219.1337999999523,3221.1667000000475,3222.1717000000476,3222.671399999857,3222.6715,3226.537399999857,3782,3226.5375,5,3226.542899999857,7,26,236,16,1,1,0.7,Time
,,573583,001,男,24,2025-06-04_21h02.08.848,Serial_Dependence_U,2023.2.3,Win32,185.18518518438674,,,,,,3226.543099999905,357,7,3226.543099999905,357,,,,3230.514399999857,3231.014,3230.0092999999524,3230.514399999857,3227.5485999999046,3230.0092000000477,3231.014,3231.514,3231.514,3235.713200000048,4054,3235.713200000048,5,3235.7182000000475,7,27,237,13,1,1.4,0.3,Time
,,573583,001,男,24,2025-06-04_21h02.08.848,Serial_Dependence_U,2023.2.3,Win32,185.18518518438674,,,,,,3235.718399999857,240,7,3235.718399999857,240,,,,3239.0905999999045,3239.59,3238.5850999999047,3239.0905,3236.724299999952,3238.585,3239.5900999999044,3240.0900999999044,3240.0900999999044,3244.672399999857,4160,3244.672399999857,5,3244.6785,7,28,238,0,1,0.8,0.3,Time
,,573583,001,男,24,2025-06-04_21h02.08.848,Serial_Dependence_U,2023.2.3,Win32,185.18518518438674,,,,,,3244.6785999999047,347,7,3244.6787000000477,347,,,,3248.8495999999045,3249.3490999999044,3248.344,3248.8495,3245.6780999999046,3248.344,3249.3490999999044,3249.849,3249.849,3253.8817000000477,3626,3253.8817000000477,5,3253.888,7,29,239,24,1,1.6,0.3,Time
,,573583,001,男,24,2025-06-04_21h02.08.848,Serial_Dependence_U,2023.2.3,Win32,185.18518518438674,,,,,,3253.8882000000476,23,8,3374.3525999999047,23,s,120.45040000009521,,3377.6940999999047,3378.1937000000476,3377.1890999999046,3377.694,3375.3557999999525,3377.189,3378.1937000000476,3378.6935999999046,3378.6937000000476,3382.566399999857,3453,3382.5665,5,3382.5715999999047,8,0,240,15,1,0.8,0.7,Time
,,573583,001,男,24,2025-06-04_21h02.08.848,Serial_Dependence_U,2023.2.3,Win32,185.18518518438674,,,,,,3382.5717999999524,269,8,3382.5722999999525,269,,,,3386.308700000048,3386.8082999999524,3385.8045999999044,3386.308700000048,3383.5725999999045,3385.8045,3386.808399999857,3387.3082999999524,3387.3082999999524,3390.754,3098,3390.7540999999046,5,3390.7600999999045,8,1,241,17,1,1.2,0.7,Time
,,573583,001,男,24,2025-06-04_21h02.08.848,Serial_Dependence_U,2023.2.3,Win32,185.18518518438674,,,,,,3390.7602000000475,173,8,3390.7602000000475,173,,,,3394.4927000000475,3394.9900999999045,3393.991700000048,3394.4925999999045,3391.7585,3393.991599999905,3394.9900999999045,3395.489899999857,3395.489899999857,3399.217,3373,3399.217099999905,5,3399.222899999857,8,2,242,27,1,1.2,0.7,Time
,,573583,001,男,24,2025-06-04_21h02.08.848,Serial_Dependence_U,2023.2.3,Win32,185.18518518438674,,,,,,3399.2230999999047,355,8,3399.2230999999047,355,,,,3402.988399999857,3403.488,3402.4842999999523,3402.988399999857,3400.2235,3402.4842000000476,3403.488,3403.987899999857,3403.987899999857,3407.976200000048,3621,3407.9762999999525,5,3407.9835,8,3,243,12,1,1.2,0.3,Time
,,573583,001,男,24,2025-06-04_21h02.08.848,Serial_Dependence_U,2023.2.3,Win32,185.18518518438674,,,,,,3407.9835999999045,95,8,3407.9837000000475,95,,,,3412.1255,3412.625,3411.62,3412.1255,3408.9872999999525,3411.62,3412.625,3413.125,3413.125,3416.969,3776,3416.969,5,3416.978799999952,8,4,244,29,1,1.6,0.7,Time
,,573583,001,男,24,2025-06-04_21h02.08.848,Serial_Dependence_U,2023.2.3,Win32,185.18518518438674,,,,,,3416.9790999999045,101,8,3416.9790999999045,101,,,,3420.9235,3421.4230999999045,3420.418200000048,3420.923399999857,3417.985200000048,3420.418099999905,3421.4230999999045,3421.923,3421.9230999999045,3426.1832999999524,3855,3426.183399999857,5,3426.188099999905,8,5,245,28,1,1.4,0.7,Time
,,573583,001,男,24,2025-06-04_21h02.08.848,Serial_Dependence_U,2023.2.3,Win32,185.18518518438674,,,,,,3426.1882999999525,237,8,3426.1882999999525,237,,,,3430.3657999999523,3430.8655,3429.8607000000475,3430.3657999999523,3427.194399999857,3429.8605999999045,3430.8655,3431.365299999952,3431.3655,3435.6647999999523,3897,3435.6647999999523,5,3435.6715999999046,8,6,246,4,1,1.6,0.3,Time
,,573583,001,男,24,2025-06-04_21h02.08.848,Serial_Dependence_U,2023.2.3,Win32,185.18518518438674,,,,,,3435.6717000000476,11,8,3435.6717000000476,11,,,,3439.2100999999047,3439.708099999905,3438.708700000048,3439.2100999999047,3436.6757000000475,3438.7085999999044,3439.708099999905,3440.21,3440.21,3444.070799999952,3400,3444.070799999952,5,3444.0762999999524,8,7,247,26,1,1,0.7,Time
,,573583,001,男,24,2025-06-04_21h02.08.848,Serial_Dependence_U,2023.2.3,Win32,185.18518518438674,,,,,,3444.0765,35,8,3444.076599999905,35,,,,3448.0453999998567,3448.546299999952,3447.541299999952,3448.0453999998567,3445.0757999999523,3447.5410999999044,3448.546299999952,3449.045,3449.045,3453.3122999999523,3649,3453.3122999999523,5,3453.3167999999523,8,8,248,13,1,1.4,0.3,Time
,,573583,001,男,24,2025-06-04_21h02.08.848,Serial_Dependence_U,2023.2.3,Win32,185.18518518438674,,,,,,3453.317,150,8,3453.317,150,,,,3457.2600999999045,3457.759700000048,3456.7557000000475,3457.2599999999998,3454.322899999857,3456.7557000000475,3457.759700000048,3458.2607999999523,3458.260899999857,3463.0422999999523,4345,3463.0422999999523,5,3463.048299999952,8,9,249,18,1,1.4,0.7,Time
,,573583,001,男,24,2025-06-04_21h02.08.848,Serial_Dependence_U,2023.2.3,Win32,185.18518518438674,,,,,,3463.048399999857,68,8,3463.048399999857,68,,,,3466.8153999998567,3467.3132999999525,3466.3102999999523,3466.8152999999525,3464.048,3466.3102999999523,3467.3132999999525,3467.813200000048,3467.813200000048,3471.926,3735,3471.926,5,3471.9335,8,10,250,2,1,1.2,0.3,Time
,,573583,001,男,24,2025-06-04_21h02.08.848,Serial_Dependence_U,2023.2.3,Win32,185.18518518438674,,,,,,3471.933599999905,151,8,3471.933599999905,151,,,,3475.708,3476.2057999999524,3475.206299999952,3475.7077999999524,3472.9402000000478,3475.206200000048,3476.2057999999524,3476.7055999999047,3476.7055999999047,3480.990899999857,3822,3480.991,5,3480.997899999857,8,11,251,22,1,1.2,0.3,Time
,,573583,001,男,24,2025-06-04_21h02.08.848,Serial_Dependence_U,2023.2.3,Win32,185.18518518438674,,,,,,3480.9980999999048,99,8,3480.9982000000477,99,,,,3484.543200000048,3485.0427999999524,3484.037899999857,3484.543099999905,3482.004899999857,3484.0377999999523,3485.0427999999524,3485.542899999857,3485.542899999857,3490.0877999999525,4143,3490.0877999999525,5,3490.0930999999046,8,12,252,6,1,1,0.7,Time
