Scale_setup.started,Scale_setup.stopped,participant,session,sex,age,date,expName,psychopyVersion,OS,frameRate,Intro.started,Intro.stopped,key_resp_2.keys,key_resp_2.rt,key_resp_2.duration,block.started,direction,Block_id,block.stopped,trial_direction,Block_resp_2.keys,Block_resp_2.rt,Block_resp_2.duration,ITI.started,ITI.stopped,Mask_2.started,Mask_2.stopped,encoding.started,encoding.stopped,Cue.started,Cue.stopped,Response.started,Response.stopped,keyDuration,Feedback_Time.started,FeedbackID_T,Feedback_Time.stopped,trials.thisRepN,trials.thisTrialN,trials.thisN,trials.thisIndex,trials.ran,TimeDur,Coherence1,TrialType
0.00040000009539653547,0.0005000000001018634,580953,001,nv,22,2025-06-04_13h36.57.566,Serial_Dependence_U,2023.2.3,Win32,59.52380952364454,,,,,,,,,,,,,,,,,,,,,,,,,,,,,,,,,,,
,,580953,001,nv,22,2025-06-04_13h36.57.566,Serial_Dependence_U,2023.2.3,Win32,59.52380952364454,1.5149000000953947,1.9145999999046808,space,0.3491000003815543,,,,,,,,,,,,,,,,,,,,,,,,,,,,,,,
,,580953,001,nv,22,2025-06-04_13h36.57.566,Serial_Dependence_U,2023.2.3,Win32,59.52380952364454,,,,,,1.926599999904738,352,0,3.2310999999047,352,s,1.2758000001907703,,6.622599999904651,7.1136999998093415,6.106500000000096,6.622500000000059,4.242500000000064,6.106400000095391,7.113900000095441,7.614400000095429,7.6149000000954175,8.88169999980937,565,8.882099999904653,2,9.881000000000085,0,0,0,10,1,0.8,0.3,Time
,,580953,001,nv,22,2025-06-04_13h36.57.566,Serial_Dependence_U,2023.2.3,Win32,59.52380952364454,,,,,,9.881800000190765,123,0,9.884800000190808,123,,,,13.43100000000004,13.93100000000004,12.91519999980926,13.43100000000004,10.881800000190765,12.915099999904669,13.931099999904632,14.430500000000052,14.430500000000052,16.014800000190803,958,16.0150000000001,3,17.014499999999998,0,1,1,26,1,1,0.7,Time
,,580953,001,nv,22,2025-06-04_13h36.57.566,Serial_Dependence_U,2023.2.3,Win32,59.52380952364454,,,,,,17.015199999809283,250,0,17.01559999990468,250,,,,21.214599999904635,21.713699999809364,20.697900000095387,21.214400000095452,18.03119999980936,20.697800000190796,21.713699999809364,22.213500000000067,22.213500000000067,22.781099999904654,7,22.78119999980936,1,23.780800000190766,0,2,2,4,1,1.6,0.3,Time
,,580953,001,nv,22,2025-06-04_13h36.57.566,Serial_Dependence_U,2023.2.3,Win32,59.52380952364454,,,,,,23.781599999904643,331,0,23.78200000000004,331,,,,27.73869999980934,28.230199999809315,27.222599999904673,27.738599999904636,24.788699999809296,27.222400000095377,28.230199999809315,28.730199999809315,28.730199999809315,30.67259999990472,1333,30.67269999980931,3,31.663800000190804,0,3,3,28,1,1.4,0.7,Time
,,580953,001,nv,22,2025-06-04_13h36.57.566,Serial_Dependence_U,2023.2.3,Win32,59.52380952364454,,,,,,31.66450000000009,303,0,31.664900000095372,303,,,,35.65540000009537,36.14709999990464,35.13880000019083,35.65540000009537,32.672500000000014,35.13859999990473,36.14709999990464,36.653699999809305,36.653900000095405,38.17240000009542,815,38.172500000000014,1,39.163900000095396,0,4,4,23,1,1.4,0.3,Time
,,580953,001,nv,22,2025-06-04_13h36.57.566,Serial_Dependence_U,2023.2.3,Win32,59.52380952364454,,,,,,39.16490000009537,120,0,39.16530000019077,120,,,,42.93119999980934,43.43019999980936,42.41430000019079,42.93109999990463,40.18050000000005,42.41409999990469,43.43019999980936,43.92990000009547,43.930000000000064,45.86400000000003,1503,45.86409999990474,4,46.86369999980934,0,5,5,27,1,1.2,0.7,Time
,,580953,001,nv,22,2025-06-04_13h36.57.566,Serial_Dependence_U,2023.2.3,Win32,59.52380952364454,,,,,,46.86440000009543,339,0,46.86490000009542,339,,,,50.84740000009538,51.34719999980928,50.330800000190834,50.84719999980928,47.86430000019084,50.330599999904734,51.347300000190785,51.84630000019081,51.84630000019081,53.76400000000001,1167,53.76419999980931,2,54.77130000019076,0,6,6,3,1,1.4,0.3,Time
,,580953,001,nv,22,2025-06-04_13h36.57.566,Serial_Dependence_U,2023.2.3,Win32,59.52380952364454,,,,,,54.77200000000005,232,0,54.772500000000036,232,,,,58.13880000019083,58.635900000095376,57.63790000009544,58.13869999980932,55.772500000000036,57.63780000019074,58.635900000095376,59.137400000095454,59.137500000000045,60.42209999990473,867,60.42230000019083,4,61.41280000019083,0,7,7,0,1,0.8,0.3,Time
,,580953,001,nv,22,2025-06-04_13h36.57.566,Serial_Dependence_U,2023.2.3,Win32,59.52380952364454,,,,,,61.41300000000001,147,0,61.413099999904716,147,,,,65.20500000000004,65.69630000019083,64.68859999990468,65.20490000009545,62.42219999980932,64.68840000009538,65.69640000009542,66.18650000000002,66.18659999990473,67.76409999990472,1004,67.76430000019081,2,68.76330000019084,0,8,8,2,1,1.2,0.3,Time
,,580953,001,nv,22,2025-06-04_13h36.57.566,Serial_Dependence_U,2023.2.3,Win32,59.52380952364454,,,,,,68.76400000000001,28,0,68.7645,28,,,,72.32119999980932,72.8130000000001,71.80500000000006,72.32109999990473,69.77169999980936,71.80490000009547,72.8130000000001,73.3125,73.3125999999047,74.88840000009543,1100,74.88859999990473,4,75.88,0,9,9,6,1,1,0.7,Time
,,580953,001,nv,22,2025-06-04_13h36.57.566,Serial_Dependence_U,2023.2.3,Win32,59.52380952364454,,,,,,75.88059999990469,118,0,75.88100000000009,118,,,,79.62190000009537,80.11309999990465,79.12069999980929,79.62180000019077,76.88850000000002,79.1205999999047,80.11319999980935,80.61269999980937,80.61269999980937,82.15519999980927,1084,82.15540000009537,2,83.14580000019077,0,10,10,7,1,1.2,0.7,Time
,,580953,001,nv,22,2025-06-04_13h36.57.566,Serial_Dependence_U,2023.2.3,Win32,59.52380952364454,,,,,,83.14609999990466,357,0,83.14619999980937,357,,,,86.9380000000001,87.42880000019079,86.42180000019084,86.9379000000954,84.1539000000954,86.42159999990463,87.42880000019079,87.92959999990467,87.92969999980937,89.35419999980934,916,89.35430000019073,2,90.34569999980931,0,11,11,12,1,1.2,0.3,Time
,,580953,001,nv,22,2025-06-04_13h36.57.566,Serial_Dependence_U,2023.2.3,Win32,59.52380952364454,,,,,,90.34609999990471,47,0,90.3461999998093,47,,,,94.08850000000007,94.57940000009546,93.57109999990473,94.08850000000007,91.33900000000006,93.57100000000003,94.57940000009546,95.07959999990464,95.07969999980935,96.84869999980936,1137,96.84900000000005,2,97.84590000009541,0,12,12,17,1,1.2,0.7,Time
,,580953,001,nv,22,2025-06-04_13h36.57.566,Serial_Dependence_U,2023.2.3,Win32,59.52380952364454,,,,,,97.8465999999047,82,0,97.84709999990469,82,,,,101.63730000019075,102.12919999980932,101.1208000001908,101.63719999980935,98.85400000000004,101.1205999999047,102.12919999980932,102.61909999990473,102.61909999990473,104.08740000009539,1017,104.08750000000009,2,105.07869999980926,0,13,13,22,1,1.2,0.3,Time
,,580953,001,nv,22,2025-06-04_13h36.57.566,Serial_Dependence_U,2023.2.3,Win32,59.52380952364454,,,,,,105.07900000000006,121,0,105.07919999980936,121,,,,109.2549000000954,109.74590000009539,108.75380000019084,109.25480000019081,106.08809999990467,108.75369999980933,109.7460000000001,110.24530000019081,110.24530000019081,112.42309999990471,1669,112.4231999998093,3,113.41250000000002,0,14,14,24,1,1.6,0.3,Time
,,580953,001,nv,22,2025-06-04_13h36.57.566,Serial_Dependence_U,2023.2.3,Win32,59.52380952364454,,,,,,113.41319999980931,219,0,113.4135999999047,219,,,,117.00359999990474,117.4955999999047,116.48719999980926,117.00359999990474,114.42009999990466,116.48700000000008,117.49569999980929,118.00269999980935,118.00280000019075,120.42100000000005,884,120.42119999980935,2,121.41169999980934,0,15,15,1,1,1,0.3,Time
,,580953,001,nv,22,2025-06-04_13h36.57.566,Serial_Dependence_U,2023.2.3,Win32,59.52380952364454,,,,,,121.41209999990474,298,0,121.41219999980933,298,,,,125.3705000000001,125.86219999980926,124.85390000009545,125.37030000019081,122.42040000009547,124.85380000019074,125.86230000019077,126.36159999990468,126.36159999990468,128.30450000000008,784,128.30450000000008,1,129.3035999999047,0,16,16,18,1,1.4,0.7,Time
,,580953,001,nv,22,2025-06-04_13h36.57.566,Serial_Dependence_U,2023.2.3,Win32,59.52380952364454,,,,,,129.30459999990467,201,0,129.30490000009547,201,,,,132.65330000019082,133.1448000001908,132.13700000000006,132.65319999980932,130.30409999990468,132.13690000009547,133.1448000001908,133.6351999998093,133.6353000001908,135.28650000000005,866,135.28659999990464,4,136.27800000000002,0,17,17,25,1,0.8,0.7,Time
,,580953,001,nv,22,2025-06-04_13h36.57.566,Serial_Dependence_U,2023.2.3,Win32,59.52380952364454,,,,,,136.2785,94,0,136.2785999999047,94,,,,139.63659999990466,140.12859999990474,139.1206999998093,139.63650000000007,137.28659999990464,139.1205000000001,140.12859999990474,140.62780000019075,140.62780000019075,142.57040000009545,1150,142.57040000009545,5,143.56180000019083,0,18,18,15,1,0.8,0.7,Time
,,580953,001,nv,22,2025-06-04_13h36.57.566,Serial_Dependence_U,2023.2.3,Win32,59.52380952364454,,,,,,143.5624000000954,160,0,143.5626999998093,160,,,,147.72859999990465,148.22759999990467,147.21240000009539,147.72850000000005,144.57069999980934,147.2123000001908,148.22759999990467,148.72859999990465,148.72869999980935,150.06209999990472,867,150.06230000019082,1,151.06159999990473,0,19,19,19,1,1.6,0.7,Time
,,580953,001,nv,22,2025-06-04_13h36.57.566,Serial_Dependence_U,2023.2.3,Win32,59.52380952364454,,,,,,151.0625999999047,189,0,151.0630999999047,189,,,,154.6200999999047,155.1114000000954,154.10459999990474,154.6200999999047,152.06990000009546,154.10450000000003,155.1114000000954,155.6114000000954,155.6115000000001,157.27140000009547,1184,157.27159999990465,4,158.26080000019078,0,20,20,16,1,1,0.7,Time
,,580953,001,nv,22,2025-06-04_13h36.57.566,Serial_Dependence_U,2023.2.3,Win32,59.52380952364454,,,,,,158.26109999990467,168,0,158.26109999990467,168,,,,161.63650000000007,162.12809999990463,161.13609999990467,161.63650000000007,159.2695000000001,161.13590000009538,162.12819999980934,162.62759999990465,162.62780000019075,164.46980000019073,1000,164.46990000009544,4,165.4615,0,21,21,20,1,0.8,0.3,Time
,,580953,001,nv,22,2025-06-04_13h36.57.566,Serial_Dependence_U,2023.2.3,Win32,59.52380952364454,,,,,,165.4621999998093,294,0,165.46259999990468,294,,,,168.81919999980937,169.3175,168.303,168.81909999990467,166.46919999980935,168.3029000000954,169.3175,169.81140000009543,169.81150000000002,171.4858000001908,1049,171.4860000000001,5,172.47740000009537,0,22,22,5,1,0.8,0.7,Time
,,580953,001,nv,22,2025-06-04_13h36.57.566,Serial_Dependence_U,2023.2.3,Win32,59.52380952364454,,,,,,172.47769999980926,108,0,172.47780000019077,108,,,,176.6690999999047,177.16119999980936,176.15300000000002,176.6690000000001,173.4860000000001,176.15280000019084,177.16119999980936,177.66109999990465,177.66109999990465,179.31940000009547,1149,179.31950000000006,2,180.31100000000004,0,23,23,14,1,1.6,0.3,Time
,,580953,001,nv,22,2025-06-04_13h36.57.566,Serial_Dependence_U,2023.2.3,Win32,59.52380952364454,,,,,,180.31159999990473,83,0,180.31190000009542,83,,,,183.90259999990474,184.39350000000002,183.38609999990467,183.90250000000003,181.3183000001908,183.38600000000008,184.39359999990472,184.8945000000001,184.8945999999047,186.36930000019083,1033,186.36950000000002,3,187.36009999990472,0,24,24,21,1,1,0.3,Time
,,580953,001,nv,22,2025-06-04_13h36.57.566,Serial_Dependence_U,2023.2.3,Win32,59.52380952364454,,,,,,187.3605,357,0,187.3605999999047,357,,,,191.31859999990468,191.81009999990465,190.8028000001908,191.31850000000009,188.36900000000003,190.80259999990471,191.81019999980936,192.31009999990465,192.31009999990465,194.0191999998093,1316,194.0193000001908,2,195.01090000009538,0,25,25,8,1,1.4,0.7,Time
,,580953,001,nv,22,2025-06-04_13h36.57.566,Serial_Dependence_U,2023.2.3,Win32,59.52380952364454,,,,,,195.01150000000007,61,0,195.01190000009547,61,,,,198.60269999980926,199.09390000009546,198.086,198.60259999990467,196.0189000000954,198.08580000019083,199.09400000000005,199.59419999980935,199.59430000019074,201.08519999980933,1033,201.08530000019084,3,202.0773000001908,0,26,26,11,1,1,0.3,Time
,,580953,001,nv,22,2025-06-04_13h36.57.566,Serial_Dependence_U,2023.2.3,Win32,59.52380952364454,,,,,,202.0780000000001,144,0,202.07830000019078,144,,,,206.2351999998093,206.72740000009537,205.71900000000005,206.2351999998093,203.08540000009543,205.71880000019075,206.72740000009537,207.21830000019077,207.21840000009547,209.30209999990473,1567,209.30219999980932,3,210.2938000001908,0,27,27,29,1,1.6,0.7,Time
,,580953,001,nv,22,2025-06-04_13h36.57.566,Serial_Dependence_U,2023.2.3,Win32,59.52380952364454,,,,,,210.2943000001908,219,0,210.29459999990468,219,,,,214.2700999999047,214.7600000000001,213.76869999980931,214.2700999999047,211.30240000009542,213.76859999990472,214.7600000000001,215.24959999990472,215.24959999990472,216.75259999990465,1100,216.75269999980935,2,217.74309999990464,0,28,28,13,1,1.4,0.3,Time
,,580953,001,nv,22,2025-06-04_13h36.57.566,Serial_Dependence_U,2023.2.3,Win32,59.52380952364454,,,,,,217.74350000000004,61,0,217.74359999990463,61,,,,221.9184000000954,222.40990000009538,221.40200000000004,221.9183000001908,218.76880000019082,221.40190000009545,222.40990000009538,222.90990000009538,222.90990000009538,225.11850000000004,1800,225.11869999980934,4,226.10969999980932,0,29,29,9,1,1.6,0.7,Time
,,580953,001,nv,22,2025-06-04_13h36.57.566,Serial_Dependence_U,2023.2.3,Win32,59.52380952364454,,,,,,226.1101999998093,256,1,256.07859999990467,256,s,29.920599999904653,,259.4518000001908,259.9429000000954,258.9511999998093,259.4518000001908,257.08469999980935,258.9510999999047,259.9430000000001,260.4331999998093,260.4333000001908,261.3764000000954,483,261.3765000000001,1,261.38340000009543,1,0,30,0,1,0.8,0.3,Time
,,580953,001,nv,22,2025-06-04_13h36.57.566,Serial_Dependence_U,2023.2.3,Win32,59.52380952364454,,,,,,261.38359999990473,72,1,261.3850000000001,72,,,,265.17640000009544,265.67619999980934,264.6600999999047,265.17619999980934,262.39300000000003,264.6600000000001,265.67630000019074,266.17590000009545,266.17590000009545,267.1269000000955,467,267.12700000000007,1,267.13750000000005,1,1,31,12,1,1.2,0.3,Time
,,580953,001,nv,22,2025-06-04_13h36.57.566,Serial_Dependence_U,2023.2.3,Win32,59.52380952364454,,,,,,267.13790000009544,351,1,267.13800000000003,351,,,,270.89300000000003,271.39180000019076,270.37659999990467,270.89300000000003,268.1431999998093,270.3765000000001,271.39190000009546,271.89200000000005,271.89209999990464,273.70969999980935,1273,273.70980000019074,4,273.716,1,2,32,17,1,1.2,0.7,Time
,,580953,001,nv,22,2025-06-04_13h36.57.566,Serial_Dependence_U,2023.2.3,Win32,59.52380952364454,,,,,,273.7163000001908,215,1,273.7164000000954,215,,,,277.89290000009544,278.39250000000004,277.3763000001908,277.89280000019073,274.70990000009544,277.3760999999047,278.39250000000004,278.89259999990463,278.89269999980934,280.28540000009536,964,280.28559999990466,1,280.2931999998093,1,3,33,24,1,1.6,0.3,Time
,,580953,001,nv,22,2025-06-04_13h36.57.566,Serial_Dependence_U,2023.2.3,Win32,59.52380952364454,,,,,,280.2935999999047,117,1,280.2938000001908,117,,,,284.05009999990466,284.54180000019073,283.5338000001908,284.05009999990466,281.30050000000006,283.5335999999047,284.54180000019073,285.0425999999047,285.0425999999047,286.57590000009543,978,286.576,2,286.5830999999047,1,4,34,7,1,1.2,0.7,Time
,,580953,001,nv,22,2025-06-04_13h36.57.566,Serial_Dependence_U,2023.2.3,Win32,59.52380952364454,,,,,,286.58340000009537,20,1,286.58340000009537,20,,,,289.92590000009545,290.42530000019076,289.4091999998093,289.92580000019075,287.5763000001908,289.4090999999047,290.42530000019076,290.92580000019075,290.92590000009545,292.5010000000001,1133,292.5010999999047,5,292.50730000019075,1,5,35,25,1,0.8,0.7,Time
,,580953,001,nv,22,2025-06-04_13h36.57.566,Serial_Dependence_U,2023.2.3,Win32,59.52380952364454,,,,,,292.50750000000005,335,1,292.50759999990464,335,,,,295.8508000001908,296.3420999999047,295.3501999998093,295.8506999998093,293.51709999990464,295.35,296.3420999999047,296.8419000000954,296.8420000000001,298.5674000000954,1151,298.5675,5,298.5770999999047,1,6,36,15,1,0.8,0.7,Time
,,580953,001,nv,22,2025-06-04_13h36.57.566,Serial_Dependence_U,2023.2.3,Win32,59.52380952364454,,,,,,298.5773000001908,307,1,298.5775000000001,307,,,,302.1174000000955,302.60909999990463,301.6168000001908,302.11730000019077,299.58380000019076,301.6168000001908,302.60919999980933,303.10869999980935,303.10869999980935,305.39240000009545,1044,305.39259999990463,3,305.4004000000954,1,7,37,16,1,1,0.7,Time
,,580953,001,nv,22,2025-06-04_13h36.57.566,Serial_Dependence_U,2023.2.3,Win32,59.52380952364454,,,,,,305.40059999990467,336,1,305.40080000019077,336,,,,309.17590000009545,309.67550000000006,308.6590999999047,309.17580000019075,306.39250000000004,308.6589000000954,309.67550000000006,310.1745999999047,310.1745999999047,311.6255999999047,1154,311.6256999998093,3,311.63269999980935,1,8,38,22,1,1.2,0.3,Time
,,580953,001,nv,22,2025-06-04_13h36.57.566,Serial_Dependence_U,2023.2.3,Win32,59.52380952364454,,,,,,311.63290000009545,40,1,311.63300000000004,40,,,,315.3756999998093,315.8753000001908,314.85930000019084,315.3755999999047,312.6255999999047,314.85919999980933,315.8753000001908,316.37430000019083,316.37430000019083,318.00859999990473,1195,318.0086999998093,3,318.01609999990467,1,9,39,27,1,1.2,0.7,Time
,,580953,001,nv,22,2025-06-04_13h36.57.566,Serial_Dependence_U,2023.2.3,Win32,59.52380952364454,,,,,,318.01630000019077,297,1,318.0164000000955,297,,,,321.60900000000004,322.10840000009546,321.0925000000001,321.60890000009545,319.0255000000001,321.0923000001908,322.10850000000005,322.60869999980935,322.60869999980935,324.1339000000953,1001,324.134,3,324.1439000000955,1,10,40,21,1,1,0.3,Time
,,580953,001,nv,22,2025-06-04_13h36.57.566,Serial_Dependence_U,2023.2.3,Win32,59.52380952364454,,,,,,324.1440999999047,218,1,324.1444000000954,218,,,,328.1000999999046,328.5915999999047,327.5833000001908,328.09990000009543,325.1495,327.58319999980927,328.5915999999047,329.0914000000955,329.0915,331.3754000000954,1368,331.3755000000001,3,331.3818000001909,1,11,41,8,1,1.4,0.7,Time
,,580953,001,nv,22,2025-06-04_13h36.57.566,Serial_Dependence_U,2023.2.3,Win32,59.52380952364454,,,,,,331.38209999990477,79,1,331.38219999980925,79,,,,335.0115999999048,335.50780000019085,334.4711999998094,335.0110999999047,332.3759000000955,334.4706999998093,335.50790000009533,335.99819999980923,335.99830000019074,338.04099999999994,1449,338.04140000009534,5,338.0671999998094,1,12,42,11,1,1,0.3,Time
,,580953,001,nv,22,2025-06-04_13h36.57.566,Serial_Dependence_U,2023.2.3,Win32,59.52380952364454,,,,,,338.0679000000955,274,1,338.0681999998094,274,,,,342.0620999999046,342.5580999999047,341.55630000019073,342.0619000000954,339.0780999999047,341.55590000009533,342.5581999998094,343.0581999998094,343.0583000001907,344.35859999990475,857,344.35909999990463,1,344.3840999999047,1,13,43,13,1,1.4,0.3,Time
,,580953,001,nv,22,2025-06-04_13h36.57.566,Serial_Dependence_U,2023.2.3,Win32,59.52380952364454,,,,,,344.3848000001908,185,1,344.3850999999047,185,,,,347.9360999999046,348.4245000000001,347.4236999998093,347.93590000009544,345.3763000001909,347.4233000001907,348.4245999999048,348.92469999980926,348.92480000019077,350.6355000000001,1282,350.6356999998093,4,350.66019999980927,1,14,44,6,1,1,0.7,Time
,,580953,001,nv,22,2025-06-04_13h36.57.566,Serial_Dependence_U,2023.2.3,Win32,59.52380952364454,,,,,,350.66090000009535,259,1,350.66130000019075,259,,,,354.06569999980945,354.5576999998094,353.55519999980936,354.06540000009556,351.67690000009543,353.5549000000955,354.5576999998094,355.05790000009563,355.05790000009563,357.3035999999048,1091,357.3040000000002,5,357.33130000019094,1,15,45,10,1,0.8,0.3,Time
,,580953,001,nv,22,2025-06-04_13h36.57.566,Serial_Dependence_U,2023.2.3,Win32,59.52380952364454,,,,,,357.3320999999047,236,1,357.3324000000956,236,,,,360.890800000191,361.3909000000955,360.3760999999048,360.8905000000001,358.3273000001908,360.3758000001909,361.3909000000955,361.8905999999048,361.8906999998095,363.41319999980954,1132,363.4136999998094,4,363.4420000000001,1,16,46,26,1,1,0.7,Time
,,580953,001,nv,22,2025-06-04_13h36.57.566,Serial_Dependence_U,2023.2.3,Win32,59.52380952364454,,,,,,363.4430999999048,330,1,363.4435000000002,330,,,,367.6251999998095,368.1241999998093,367.1170999999048,367.6250999999048,364.4436999998094,367.1166999998094,368.12430000019083,368.62409999990484,368.62409999990484,369.6791999998094,607,369.6795000000001,1,369.70669999980953,1,17,47,14,1,1.6,0.3,Time
,,580953,001,nv,22,2025-06-04_13h36.57.566,Serial_Dependence_U,2023.2.3,Win32,59.52380952364454,,,,,,369.7075999999048,171,1,369.7078000001908,171,,,,373.8674000000955,374.357300000191,373.35940000009543,373.8671999998095,370.72000000000014,373.35919999980945,374.357300000191,374.8575000000002,374.8575999999049,377.14669999980936,1745,377.1470000000003,4,377.17130000019085,1,18,48,19,1,1.6,0.7,Time
,,580953,001,nv,22,2025-06-04_13h36.57.566,Serial_Dependence_U,2023.2.3,Win32,59.52380952364454,,,,,,377.17190000009543,298,1,377.1721999998093,298,,,,381.15219999980934,381.6405999999048,380.6491999998094,381.15200000000016,378.1791999998094,380.6490000000002,381.6406999998095,382.1405999999048,382.1405999999048,384.00280000019086,703,384.00309999990475,1,384.02809999990484,1,19,49,23,1,1.4,0.3,Time
,,580953,001,nv,22,2025-06-04_13h36.57.566,Serial_Dependence_U,2023.2.3,Win32,59.52380952364454,,,,,,384.0288000001909,288,1,384.0290999999048,288,,,,387.6358000001909,388.14750000000015,387.11419999980933,387.6355999999047,385.0444000000956,387.11390000009544,388.14759999990486,388.64640000009547,388.6465000000002,391.9855999999048,1215,391.9860000000002,4,392.01219999980947,1,20,50,1,1,1,0.3,Time
,,580953,001,nv,22,2025-06-04_13h36.57.566,Serial_Dependence_U,2023.2.3,Win32,59.52380952364454,,,,,,392.01300000000026,275,1,392.01319999980944,275,,,,395.9565999999048,396.4570999999047,395.45450000000017,395.95630000019094,393.0095999999047,395.4541999998095,396.4571999998094,396.9570000000002,396.9570999999047,399.3073000001908,1862,399.3075999999047,5,399.3319000000955,1,21,51,28,1,1.4,0.7,Time
,,580953,001,nv,22,2025-06-04_13h36.57.566,Serial_Dependence_U,2023.2.3,Win32,59.52380952364454,,,,,,399.3326999998095,195,1,399.3329000000955,195,,,,403.53200000000027,404.02330000019094,403.0115999999049,403.53169999980935,400.33609999990483,403.011300000191,404.02330000019094,404.5235000000001,404.52359999990483,424.68130000019084,1066,424.68150000000026,1,424.69169999980943,1,22,52,4,1,1.6,0.3,Time
,,580953,001,nv,22,2025-06-04_13h36.57.566,Serial_Dependence_U,2023.2.3,Win32,59.52380952364454,,,,,,424.6920000000001,26,1,424.6920999999048,26,,,,428.4673000001909,428.9565000000001,427.964300000191,428.4670999999047,425.69140000009554,427.96419999980947,428.9565000000001,429.4565999999048,429.45669999980953,430.2061999998094,720,430.2065999999048,1,430.2364000000956,1,23,53,2,1,1.2,0.3,Time
,,580953,001,nv,22,2025-06-04_13h36.57.566,Serial_Dependence_U,2023.2.3,Win32,59.52380952364454,,,,,,430.2373000001909,117,1,430.2375999999048,117,,,,434.39750000000015,434.8895000000001,433.8811999998094,434.39730000019097,431.24809999990487,433.8810000000002,434.8895000000001,435.3895000000001,435.3895999999048,438.11859999990486,1930,438.11890000009555,4,438.1435999999047,1,24,54,9,1,1.6,0.7,Time
,,580953,001,nv,22,2025-06-04_13h36.57.566,Serial_Dependence_U,2023.2.3,Win32,59.52380952364454,,,,,,438.1445999999047,267,1,438.1449000000956,267,,,,442.1325000000003,442.6219000000955,441.6201999998094,442.13219999980936,439.15390000009563,441.6199000000955,442.6219000000955,443.1220999999049,443.1220999999049,445.28219999980945,1646,445.28250000000014,4,445.30080000019086,1,25,55,3,1,1.4,0.3,Time
,,580953,001,nv,22,2025-06-04_13h36.57.566,Serial_Dependence_U,2023.2.3,Win32,59.52380952364454,,,,,,445.30119999980946,309,1,445.30140000009544,309,,,,448.6891999998094,449.1890999999049,448.18609999990474,448.6889000000955,446.3239000000955,448.18569999980934,449.1891999998094,449.6894000000956,449.6894000000956,450.48419999980945,157,450.48459999990484,1,450.50880000019094,1,26,56,5,1,0.8,0.7,Time
,,580953,001,nv,22,2025-06-04_13h36.57.566,Serial_Dependence_U,2023.2.3,Win32,59.52380952364454,,,,,,450.50950000000023,152,1,450.5099000000956,152,,,,454.6849000000956,455.1890000000002,454.1635000000002,454.6845999999049,451.5115000000002,454.16319999980954,455.1890000000002,455.68950000000007,455.6896999998095,457.6990999999049,1574,457.6993000001909,3,457.71530000019095,1,27,57,29,1,1.6,0.7,Time
,,580953,001,nv,22,2025-06-04_13h36.57.566,Serial_Dependence_U,2023.2.3,Win32,59.52380952364454,,,,,,457.7158000001908,111,1,457.71600000000024,111,,,,461.1081999998095,461.6056999998094,460.6064000000955,461.1079000000956,458.72030000019083,460.6060000000001,461.6058000001909,462.1056999998094,462.1056999998094,463.60409999990486,914,463.60419999980934,4,463.61369999980946,1,28,58,20,1,0.8,0.3,Time
,,580953,001,nv,22,2025-06-04_13h36.57.566,Serial_Dependence_U,2023.2.3,Win32,59.52380952364454,,,,,,463.61400000000015,194,1,463.61409999990485,194,,,,467.56240000009564,468.05550000000005,467.0484000000955,467.5620999999047,464.6070999999048,467.0483000001908,468.05559999990476,468.55569999980946,468.55569999980946,469.6470000000003,440,469.64730000019097,1,469.67640000009544,1,29,59,18,1,1.4,0.7,Time
,,580953,001,nv,22,2025-06-04_13h36.57.566,Serial_Dependence_U,2023.2.3,Win32,59.52380952364454,,,,,,469.67730000019094,191,2,472.20050000000026,191,s,2.4760000000001128,,475.5829000000955,476.07159999990483,475.06530000019086,475.5826999998095,473.2170999999047,475.06500000000017,476.07159999990483,476.5721999998094,476.5721999998094,478.39380000019094,1141,478.3943000001908,5,478.42209999990484,2,0,60,15,1,0.8,0.7,Time
,,580953,001,nv,22,2025-06-04_13h36.57.566,Serial_Dependence_U,2023.2.3,Win32,59.52380952364454,,,,,,478.42290000009564,20,2,478.42619999980946,20,,,,482.4193000001909,482.92169999980945,481.8995000000001,482.4190999999047,479.4339000000956,481.8993000001909,482.92190000009543,483.42190000009543,483.42190000009543,485.1591999998094,1333,485.1595000000001,3,485.18500000000006,2,1,61,3,1,1.4,0.3,Time
,,580953,001,nv,22,2025-06-04_13h36.57.566,Serial_Dependence_U,2023.2.3,Win32,59.52380952364454,,,,,,485.18569999980934,35,2,485.18609999990474,35,,,,489.13819999980944,489.63850000000014,488.6315999999048,489.13800000000026,486.1915999999047,488.6311999998094,489.63859999990484,490.13850000000014,490.13859999990484,492.9916999998094,2006,492.992300000191,5,493.02319999980944,2,2,62,8,1,1.4,0.7,Time
,,580953,001,nv,22,2025-06-04_13h36.57.566,Serial_Dependence_U,2023.2.3,Win32,59.52380952364454,,,,,,493.0240999999047,177,2,493.0243000001909,177,,,,496.99790000009546,497.48840000009557,496.4950999999047,496.997800000191,494.0435000000001,496.4948000001908,497.4885000000003,497.98819999980935,497.98830000019086,521.2180000000002,187,521.2181999998094,1,521.2399000000956,2,3,63,28,1,1.4,0.7,Time
,,580953,001,nv,22,2025-06-04_13h36.57.566,Serial_Dependence_U,2023.2.3,Win32,59.52380952364454,,,,,,521.2404000000955,118,2,521.2406999998094,118,,,,525.2455000000001,525.7379000000955,524.7328000001909,525.2453000001909,522.2496999998094,524.7325000000002,525.7379000000955,526.2280999999049,526.2281999998094,527.6804000000956,1027,527.680800000191,2,527.7076999998095,2,4,64,13,1,1.4,0.3,Time
,,580953,001,nv,22,2025-06-04_13h36.57.566,Serial_Dependence_U,2023.2.3,Win32,59.52380952364454,,,,,,527.7084000000956,44,2,527.7085999999048,44,,,,531.2679000000954,531.771300000191,530.7546999998095,531.267800000191,528.718800000191,530.7544000000956,531.771300000191,532.2709000000956,532.2709000000956,533.6394000000956,20,533.6398000001908,1,533.6640000000001,2,5,65,26,1,1,0.7,Time
,,580953,001,nv,22,2025-06-04_13h36.57.566,Serial_Dependence_U,2023.2.3,Win32,59.52380952364454,,,,,,533.6646999998094,41,2,533.6649000000956,41,,,,537.2173000001909,537.7210999999048,536.709800000191,537.2170999999047,534.659800000191,536.7095999999048,537.7210999999048,538.2210000000001,538.2210000000001,540.1648000001909,1198,540.1651999998095,4,540.1926999998094,2,6,66,6,1,1,0.7,Time
,,580953,001,nv,22,2025-06-04_13h36.57.566,Serial_Dependence_U,2023.2.3,Win32,59.52380952364454,,,,,,540.1935000000002,79,2,540.1939000000956,79,,,,544.3600000000002,544.853800000191,543.8554000000955,544.3599000000955,541.2060999999047,543.8550999999048,544.853800000191,545.3541999998093,545.3543000001908,547.3350999999049,1516,547.3355999999047,2,547.3634000000956,2,7,67,19,1,1.6,0.7,Time
,,580953,001,nv,22,2025-06-04_13h36.57.566,Serial_Dependence_U,2023.2.3,Win32,59.52380952364454,,,,,,547.3643000001908,76,2,547.3645999999047,76,,,,550.7415999999049,551.2369000000955,550.2401999998095,550.7415000000002,548.3734000000956,550.2398000001909,551.2369000000955,551.7370999999049,551.7371999998094,553.3095000000002,883,553.3099000000956,4,553.3381999998095,2,8,68,10,1,0.8,0.3,Time
,,580953,001,nv,22,2025-06-04_13h36.57.566,Serial_Dependence_U,2023.2.3,Win32,59.52380952364454,,,,,,553.3390999999048,178,2,553.3394000000955,178,,,,557.1080999999048,557.6039000000955,556.6034000000956,557.1079000000956,554.338300000191,556.6030000000002,557.6039000000955,558.1039000000955,558.1040000000002,567.7090000000002,426,567.7095999999048,1,567.7105999999047,2,9,69,22,1,1.2,0.3,Time
,,580953,001,nv,22,2025-06-04_13h36.57.566,Serial_Dependence_U,2023.2.3,Win32,59.52380952364454,,,,,,567.7115999999047,68,2,567.7120000000001,68,,,,571.8949000000956,572.3869000000956,571.3848000001909,571.8949000000956,568.7110000000001,571.3844000000955,572.3870000000001,572.8870999999048,572.8871999998095,574.7704000000955,696,574.7705999999049,1,574.7708000001909,2,10,70,14,1,1.6,0.3,Time
,,580953,001,nv,22,2025-06-04_13h36.57.566,Serial_Dependence_U,2023.2.3,Win32,59.52380952364454,,,,,,574.7710000000001,170,2,574.7710999999048,170,,,,578.5400999999048,579.0366999998095,578.0220999999048,578.5399000000956,575.7714000000955,578.0216999998094,579.036800000191,579.536800000191,579.5370000000001,580.5604000000955,490,580.5608000001909,1,580.5890999999048,2,11,71,17,1,1.2,0.7,Time
,,580953,001,nv,22,2025-06-04_13h36.57.566,Serial_Dependence_U,2023.2.3,Win32,59.52380952364454,,,,,,580.5900000000003,271,2,580.590300000191,271,,,,584.1838000001909,584.6874000000956,583.6705999999048,584.1835999999047,581.5933000001909,583.6704000000956,584.6875000000001,585.1870999999047,585.1871999998094,586.8924000000956,1124,586.8929000000954,4,586.9250000000001,2,12,72,21,1,1,0.3,Time
,,580953,001,nv,22,2025-06-04_13h36.57.566,Serial_Dependence_U,2023.2.3,Win32,59.52380952364454,,,,,,586.9258000001909,244,2,586.9265000000001,244,,,,591.0901999998094,591.5866999998094,590.5788000001909,591.0899000000956,587.9350999999048,590.5785999999049,591.5866999998094,592.0869000000956,592.0869000000956,595.5160000000002,174,595.5164000000956,1,595.5446999998095,2,13,73,29,1,1.6,0.7,Time
,,580953,001,nv,22,2025-06-04_13h36.57.566,Serial_Dependence_U,2023.2.3,Win32,59.52380952364454,,,,,,595.5455000000001,327,2,595.5459000000955,327,,,,598.9119000000954,599.4100999999049,598.4004000000956,598.911800000191,596.5510000000003,598.4000000000002,599.4101999998094,599.9033000001908,599.9034000000955,601.7275000000001,1153,601.7276999998095,5,601.7279000000955,2,14,74,5,1,0.8,0.7,Time
,,580953,001,nv,22,2025-06-04_13h36.57.566,Serial_Dependence_U,2023.2.3,Win32,59.52380952364454,,,,,,601.7280999999049,207,2,601.7281999998094,207,,,,605.5185999999047,606.0199000000956,604.9999000000956,605.5184000000955,602.7335000000002,604.9996999998094,606.0199000000956,606.5199000000956,606.5200000000001,608.0625999999048,988,608.0628000001908,2,608.0729000000955,2,15,75,12,1,1.2,0.3,Time
,,580953,001,nv,22,2025-06-04_13h36.57.566,Serial_Dependence_U,2023.2.3,Win32,59.52380952364454,,,,,,608.0731999998094,61,2,608.0733000001909,61,,,,611.4364000000954,611.9354000000955,610.9215999999047,611.436300000191,609.0778000001909,610.9214000000956,611.9355000000002,612.4355000000002,612.4355999999049,626.9246999998094,995,626.9250000000001,4,626.9505000000003,2,16,76,25,1,0.8,0.7,Time
,,580953,001,nv,22,2025-06-04_13h36.57.566,Serial_Dependence_U,2023.2.3,Win32,59.52380952364454,,,,,,626.9511999998093,18,2,626.9519000000956,18,,,,630.5555,631.0523000001909,630.0424000000954,630.5553000001909,627.9730999999048,630.0421999998094,631.0523000001909,631.5523000001909,631.5524000000956,634.9840000000003,797,634.9845999999048,2,635.0143000001909,2,17,77,11,1,1,0.3,Time
,,580953,001,nv,22,2025-06-04_13h36.57.566,Serial_Dependence_U,2023.2.3,Win32,59.52380952364454,,,,,,635.0153000001909,262,2,635.0156999998095,262,,,,638.5839000000955,639.0855999999047,638.0804000000954,638.583800000191,636.0055999999048,638.0800999999047,639.0856999998094,639.5855999999047,639.5856999998094,641.2398000001909,934,641.2404000000955,2,641.2409000000956,2,18,78,1,1,1,0.3,Time
,,580953,001,nv,22,2025-06-04_13h36.57.566,Serial_Dependence_U,2023.2.3,Win32,59.52380952364454,,,,,,641.2415999999049,51,2,641.2420999999048,51,,,,645.4415999999047,645.9358000001909,644.9275999999048,645.4411999998093,642.2505000000002,644.9274000000956,645.9358000001909,646.4355000000002,646.4355999999049,646.9949000000955,100,646.9951999998094,1,647.0140999999047,2,19,79,4,1,1.6,0.3,Time
,,580953,001,nv,22,2025-06-04_13h36.57.566,Serial_Dependence_U,2023.2.3,Win32,59.52380952364454,,,,,,647.0148000001908,117,2,647.0151999998094,117,,,,650.4288000001908,650.9189000000955,649.9106999998095,650.4285999999048,648.0361999998094,649.9101999998094,650.9189000000955,651.4189000000955,651.4190000000002,656.542300000191,1014,656.5425999999048,4,656.5678000001909,2,20,80,20,1,0.8,0.3,Time
,,580953,001,nv,22,2025-06-04_13h36.57.566,Serial_Dependence_U,2023.2.3,Win32,59.52380952364454,,,,,,656.5685000000002,178,2,656.5688000001909,178,,,,660.1300000000002,660.6186999998093,659.6096999998093,660.1298000001908,657.5725000000001,659.6094000000954,660.6186999998093,661.1185999999049,661.1186999998093,662.5943000001909,995,662.5945999999047,3,662.6223000001909,2,21,81,16,1,1,0.7,Time
,,580953,001,nv,22,2025-06-04_13h36.57.566,Serial_Dependence_U,2023.2.3,Win32,59.52380952364454,,,,,,662.6230000000002,310,2,662.6233000001909,310,,,,666.3845999999047,666.8853000001908,665.8655999999047,666.3844000000955,663.6251999998095,665.8653000001908,666.8854000000955,667.3850999999048,667.3851999998095,669.0170000000002,1228,669.0174000000956,3,669.0416999998093,2,22,82,7,1,1.2,0.7,Time
,,580953,001,nv,22,2025-06-04_13h36.57.566,Serial_Dependence_U,2023.2.3,Win32,59.52380952364454,,,,,,669.042300000191,134,2,669.0425999999048,134,,,,673.2128000001909,673.7015000000002,672.7040999999048,673.2125000000002,670.0521999998094,672.7038000001909,673.7015000000002,674.2013000001908,674.2014000000955,675.2725999999049,535,675.2730000000003,1,675.3018000001908,2,23,83,9,1,1.6,0.7,Time
,,580953,001,nv,22,2025-06-04_13h36.57.566,Serial_Dependence_U,2023.2.3,Win32,59.52380952364454,,,,,,675.3025000000001,271,2,675.3029000000955,271,,,,678.7260999999047,679.2180999999049,678.2014000000955,678.7258000001908,676.3181999998095,678.2010999999048,679.2181999998094,679.7180999999049,679.7181999998094,681.2271999998094,787,681.2275999999048,3,681.2530000000003,2,24,84,0,1,0.8,0.3,Time
,,580953,001,nv,22,2025-06-04_13h36.57.566,Serial_Dependence_U,2023.2.3,Win32,59.52380952364454,,,,,,681.2538000001908,343,2,681.2540999999047,343,,,,685.2605000000002,685.7506999998094,684.7400999999048,685.2603000001908,682.258800000191,684.7396999998094,685.7506999998094,686.251300000191,686.251300000191,688.0725999999048,1338,688.0730000000002,3,688.0735000000001,2,25,85,23,1,1.4,0.3,Time
,,580953,001,nv,22,2025-06-04_13h36.57.566,Serial_Dependence_U,2023.2.3,Win32,59.52380952364454,,,,,,688.0743000001909,84,2,688.0745999999048,84,,,,692.0360999999049,692.5350000000002,691.5218000001909,692.0359000000955,689.0775000000002,691.5214000000955,692.5350000000002,693.0380999999048,693.0381999998095,694.8006999998094,1289,694.8009000000956,2,694.8106999998093,2,26,86,18,1,1.4,0.7,Time
,,580953,001,nv,22,2025-06-04_13h36.57.566,Serial_Dependence_U,2023.2.3,Win32,59.52380952364454,,,,,,694.8109000000956,118,2,694.8110000000003,118,,,,698.5960999999048,699.0845000000003,698.0943000001909,698.5959000000956,695.8173000001908,698.0941999998093,699.0845999999048,699.5843000001909,699.5844000000956,701.3424000000956,1402,701.3425000000001,4,701.3518000001908,2,27,87,2,1,1.2,0.3,Time
,,580953,001,nv,22,2025-06-04_13h36.57.566,Serial_Dependence_U,2023.2.3,Win32,59.52380952364454,,,,,,701.3521999998094,235,2,701.3523000001909,235,,,,705.1175000000002,705.6170999999048,704.6101999998094,705.117300000191,702.367300000191,704.6100000000002,705.6170999999048,706.1235999999047,706.1236999998094,715.5315000000002,752,715.5318000001909,1,715.5575999999047,2,28,88,27,1,1.2,0.7,Time
,,580953,001,nv,22,2025-06-04_13h36.57.566,Serial_Dependence_U,2023.2.3,Win32,59.52380952364454,,,,,,715.5583000001908,26,2,715.5585000000002,26,,,,719.7643000001909,720.2681999998093,719.2450000000002,719.7640999999047,716.5673000001908,719.2448000001908,720.2683000001908,720.7676999998095,720.767800000191,722.1604000000956,792,722.1606999998095,1,722.1610000000002,2,29,89,24,1,1.6,0.3,Time
,,580953,001,nv,22,2025-06-04_13h36.57.566,Serial_Dependence_U,2023.2.3,Win32,59.52380952364454,,,,,,722.1614000000956,21,3,723.7173000001909,21,s,1.5414000000953365,,727.2936999998095,727.7906999998094,726.7875000000003,727.2935000000001,724.7184000000956,726.7870999999049,727.7906999998094,728.2835999999048,728.2835999999048,729.3541999998093,665,729.3545999999047,1,729.3820000000002,3,0,90,21,1,1,0.3,Time
,,580953,001,nv,22,2025-06-04_13h36.57.566,Serial_Dependence_U,2023.2.3,Win32,59.52380952364454,,,,,,729.3829000000954,204,3,729.3861999998095,204,,,,733.575800000191,734.0670000000001,733.0566999998094,733.5755999999047,730.3874000000955,733.0563000001908,734.0670999999048,734.5670999999048,734.5671999998095,736.5311999998095,881,736.5315000000002,1,736.5610999999047,3,1,91,4,1,1.6,0.3,Time
,,580953,001,nv,22,2025-06-04_13h36.57.566,Serial_Dependence_U,2023.2.3,Win32,59.52380952364454,,,,,,736.5620000000002,307,3,736.5624000000956,307,,,,740.1105000000001,740.6004000000954,739.6049000000954,740.1101999998094,737.5531999998094,739.6045000000003,740.6004000000954,741.1004000000954,741.1004000000954,741.8120000000002,337,741.8123000001909,1,741.8381999998095,3,2,92,16,1,1,0.7,Time
,,580953,001,nv,22,2025-06-04_13h36.57.566,Serial_Dependence_U,2023.2.3,Win32,59.52380952364454,,,,,,741.839,111,3,741.8394000000955,111,,,,745.3896999998095,745.8829000000954,744.8845999999047,745.3894000000956,742.844800000191,744.8843000001908,745.8829000000954,746.3836999998094,746.3839000000954,748.0371999998093,1125,748.0376999998094,4,748.0625999999048,3,3,93,6,1,1,0.7,Time
,,580953,001,nv,22,2025-06-04_13h36.57.566,Serial_Dependence_U,2023.2.3,Win32,59.52380952364454,,,,,,748.0633000001909,92,3,748.0635000000001,92,,,,752.0425000000001,752.5396999998094,751.5409000000956,752.0424000000954,749.0590000000001,751.5406999998094,752.5398000001909,753.0334000000956,753.0335999999048,754.7085999999048,1164,754.708800000191,2,754.7186999998095,3,4,94,23,1,1.4,0.3,Time
,,580953,001,nv,22,2025-06-04_13h36.57.566,Serial_Dependence_U,2023.2.3,Win32,59.52380952364454,,,,,,754.7189000000955,54,3,754.7190999999049,54,,,,758.2755999999048,758.7666999998095,757.7606999998094,758.2755000000001,755.7229000000956,757.7604000000955,758.7666999998095,759.2666999998095,759.2669000000955,760.4490000000002,823,760.4495999999048,2,760.478800000191,3,5,95,26,1,1,0.7,Time
,,580953,001,nv,22,2025-06-04_13h36.57.566,Serial_Dependence_U,2023.2.3,Win32,59.52380952364454,,,,,,760.4795000000003,181,3,760.4799000000954,181,,,,764.2843000001909,764.7835000000001,763.7725999999049,764.2841999998094,761.4893000001908,763.772300000191,764.7835000000001,765.2833000001909,765.2834000000956,766.5236999998095,874,766.5241999998094,2,766.5528000001908,3,6,96,2,1,1.2,0.3,Time
,,580953,001,nv,22,2025-06-04_13h36.57.566,Serial_Dependence_U,2023.2.3,Win32,59.52380952364454,,,,,,766.5535999999048,2,3,766.5539000000955,2,,,,770.5669000000956,771.0665999999047,770.0421999998094,770.5665999999047,767.5643000001909,770.0420000000003,771.0665999999047,771.5664000000955,771.5665000000002,774.9465000000001,106,774.9469000000955,1,774.974300000191,3,7,97,3,1,1.4,0.3,Time
,,580953,001,nv,22,2025-06-04_13h36.57.566,Serial_Dependence_U,2023.2.3,Win32,59.52380952364454,,,,,,774.9750999999047,183,3,774.9754000000954,183,,,,778.7596999998094,779.2493000001908,778.2441999998094,778.7594000000955,775.9740999999048,778.2439000000956,779.2493000001908,779.7495999999047,779.7496999998094,781.2438000001908,1007,781.2440999999047,2,781.2731999998094,3,8,98,12,1,1.2,0.3,Time
,,580953,001,nv,22,2025-06-04_13h36.57.566,Serial_Dependence_U,2023.2.3,Win32,59.52380952364454,,,,,,781.2740000000002,259,3,781.2743000001909,259,,,,785.417300000191,785.9165000000002,784.9165000000002,785.4171999998094,782.2795999999047,784.9164000000955,785.9165000000002,786.4164000000955,786.4165000000002,788.7465000000001,1642,788.746800000191,3,788.7718000001909,3,9,99,9,1,1.6,0.7,Time
,,580953,001,nv,22,2025-06-04_13h36.57.566,Serial_Dependence_U,2023.2.3,Win32,59.52380952364454,,,,,,788.7725999999049,1,3,788.7729000000955,1,,,,792.1740000000001,792.6661999998095,791.6624000000955,792.1736999998094,789.7876999998094,791.6620999999049,792.6661999998095,793.1661999998095,793.166300000191,793.8676999998094,23,793.8680999999048,1,793.8960999999048,3,10,100,10,1,0.8,0.3,Time
,,580953,001,nv,22,2025-06-04_13h36.57.566,Serial_Dependence_U,2023.2.3,Win32,59.52380952364454,,,,,,793.8968000001909,346,3,793.8971999998095,346,,,,797.6570999999047,798.1486999998095,797.1430999999048,797.6570000000003,794.901800000191,797.1426999998095,798.1486999998095,798.6546999998094,798.6548000001909,800.0925999999048,1028,800.0929000000955,2,800.1094000000954,3,11,101,7,1,1.2,0.7,Time
,,580953,001,nv,22,2025-06-04_13h36.57.566,Serial_Dependence_U,2023.2.3,Win32,59.52380952364454,,,,,,800.1099000000955,334,3,800.1100999999047,334,,,,804.0900000000003,804.5825999999048,803.5795000000002,804.0898000001908,801.1013000001909,803.5791999998095,804.5825999999048,805.0823000001909,805.0825000000001,806.1424000000956,642,806.1425999999047,1,806.1583000001909,3,12,102,13,1,1.4,0.3,Time
,,580953,001,nv,22,2025-06-04_13h36.57.566,Serial_Dependence_U,2023.2.3,Win32,59.52380952364454,,,,,,806.1588000001908,13,3,806.1589000000955,13,,,,810.1136999998095,810.6160000000001,809.5944000000956,810.1134000000956,807.155300000191,809.5944000000956,810.6160999999048,811.1156999998094,811.1159000000956,814.3845999999047,1037,814.3850999999048,2,814.4141999998095,3,13,103,8,1,1.4,0.7,Time
,,580953,001,nv,22,2025-06-04_13h36.57.566,Serial_Dependence_U,2023.2.3,Win32,59.52380952364454,,,,,,814.4150999999048,117,3,814.4155000000002,117,,,,817.7859000000955,818.2856999998095,817.2703000001908,817.7856999998095,815.4245999999049,817.2700999999048,818.285800000191,818.7819000000956,818.7820000000003,820.5661999998093,1135,820.5665000000002,5,820.5911999998094,3,14,104,25,1,0.8,0.7,Time
,,580953,001,nv,22,2025-06-04_13h36.57.566,Serial_Dependence_U,2023.2.3,Win32,59.52380952364454,,,,,,820.5920000000002,24,3,820.5921999998094,24,,,,824.5279000000954,825.0316999998093,824.0256999998095,824.5276999998094,821.5915999999048,824.0255000000001,825.0318000001909,825.5316999998093,825.5316999998093,838.7809000000956,1037,838.7814000000955,2,838.8106999998093,3,15,105,18,1,1.4,0.7,Time
,,580953,001,nv,22,2025-06-04_13h36.57.566,Serial_Dependence_U,2023.2.3,Win32,59.52380952364454,,,,,,838.8115000000001,47,3,838.8119000000955,47,,,,842.5775000000002,843.0651999998094,842.0733000001909,842.5773000001908,839.8281999998095,842.0730999999047,843.0653000001909,843.5654000000956,843.5654000000956,845.0453000001909,1406,845.0454000000956,4,845.0560000000002,3,16,106,17,1,1.2,0.7,Time
,,580953,001,nv,22,2025-06-04_13h36.57.566,Serial_Dependence_U,2023.2.3,Win32,59.52380952364454,,,,,,845.0564000000956,230,3,845.0565000000003,230,,,,848.8401999998094,849.3315000000001,848.3229000000955,848.8400999999047,846.0590999999048,848.3228000001908,849.3315999999048,849.8221999998094,849.8224000000956,850.7756999998095,518,850.7761999998094,1,850.8051999998094,3,17,107,22,1,1.2,0.3,Time
,,580953,001,nv,22,2025-06-04_13h36.57.566,Serial_Dependence_U,2023.2.3,Win32,59.52380952364454,,,,,,850.8060999999049,274,3,850.8064000000956,274,,,,854.9831999998095,855.4818000001909,854.4684000000956,854.9830000000001,851.8170000000001,854.4681999998094,855.4818000001909,855.9815999999047,855.9816999998094,856.8755999999047,130,856.8760000000001,1,856.9036999998094,3,18,108,19,1,1.6,0.7,Time
,,580953,001,nv,22,2025-06-04_13h36.57.566,Serial_Dependence_U,2023.2.3,Win32,59.52380952364454,,,,,,856.9044000000955,29,3,856.9048000001909,29,,,,861.0805000000001,861.5815999999048,860.5675000000002,861.080300000191,857.9009000000955,860.5673000001908,861.5815999999048,862.0811999998094,862.0813000001909,863.4330999999048,815,863.4334000000955,1,863.4530999999048,3,19,109,24,1,1.6,0.3,Time
,,580953,001,nv,22,2025-06-04_13h36.57.566,Serial_Dependence_U,2023.2.3,Win32,59.52380952364454,,,,,,863.4535999999049,86,3,863.4538000001909,86,,,,867.6085999999049,868.0979000000956,867.1033000001909,867.6084000000955,864.4589000000955,867.1030999999049,868.0980000000001,868.5976999998094,868.5978000001909,869.9774000000956,934,869.977800000191,1,870.0024000000955,3,20,110,29,1,1.6,0.7,Time
,,580953,001,nv,22,2025-06-04_13h36.57.566,Serial_Dependence_U,2023.2.3,Win32,59.52380952364454,,,,,,870.0031999998095,266,3,870.0034000000954,266,,,,873.3765999999049,873.8645999999047,872.8556999998094,873.3764000000955,871.0090000000001,872.8554000000955,873.8645999999047,874.3645000000002,874.3645999999047,875.8025000000001,1042,875.8029000000955,5,875.8271999998095,3,21,111,15,1,0.8,0.7,Time
,,580953,001,nv,22,2025-06-04_13h36.57.566,Serial_Dependence_U,2023.2.3,Win32,59.52380952364454,,,,,,875.8280000000001,274,3,875.828300000191,274,,,,879.4446999998094,879.9478000001908,878.9226999998094,879.4445000000002,876.8476999998094,878.9225000000002,879.9479000000955,880.4479000000955,880.4480000000002,882.2581999998093,1094,882.2585999999047,4,882.2835999999048,3,22,112,11,1,1,0.3,Time
,,580953,001,nv,22,2025-06-04_13h36.57.566,Serial_Dependence_U,2023.2.3,Win32,59.52380952364454,,,,,,882.2844000000956,89,3,882.2845999999048,89,,,,885.6699000000955,886.1640000000001,885.1605999999048,885.669800000191,883.2850999999049,885.1603000001909,886.1640000000001,886.6641999998095,886.6641999998095,898.7238000001909,631,898.7241999998095,2,898.7534000000954,3,23,113,20,1,0.8,0.3,Time
,,580953,001,nv,22,2025-06-04_13h36.57.566,Serial_Dependence_U,2023.2.3,Win32,59.52380952364454,,,,,,898.7541999998094,42,3,898.7545000000001,42,,,,902.9511999998093,903.4470999999047,902.4320000000001,902.9509000000954,899.7565999999048,902.4319000000954,903.4470999999047,903.9474000000956,903.9474000000956,906.0090999999048,1465,906.0094000000955,2,906.0335999999048,3,24,114,14,1,1.6,0.3,Time
,,580953,001,nv,22,2025-06-04_13h36.57.566,Serial_Dependence_U,2023.2.3,Win32,59.52380952364454,,,,,,906.0344000000956,167,3,906.0345999999048,167,,,,909.6158000001909,910.1140000000001,909.1000000000003,909.6155999999047,907.0333000001909,909.0996999998093,910.1140000000001,910.6136999998095,910.6139000000954,914.1920999999048,1413,914.1924000000955,5,914.2195000000003,3,25,115,1,1,1,0.3,Time
,,580953,001,nv,22,2025-06-04_13h36.57.566,Serial_Dependence_U,2023.2.3,Win32,59.52380952364454,,,,,,914.2203000001908,237,3,914.2206999998094,237,,,,917.9710999999048,918.4635000000002,917.4565999999048,917.9710000000001,915.2165999999048,917.4563000001909,918.4635000000002,918.9636999998094,918.9638000001909,937.5315000000002,564,937.5319000000956,1,937.5646999998095,3,26,116,27,1,1.2,0.7,Time
,,580953,001,nv,22,2025-06-04_13h36.57.566,Serial_Dependence_U,2023.2.3,Win32,59.52380952364454,,,,,,937.5655999999047,94,3,937.5660000000001,94,,,,941.5055000000001,941.9964000000956,941.0046999998095,941.5054000000956,938.5720999999047,941.0045999999048,941.9965000000001,942.4965000000001,942.4965999999048,943.7400000000001,864,943.7403000001908,1,943.7681999998093,3,27,117,28,1,1.4,0.7,Time
,,580953,001,nv,22,2025-06-04_13h36.57.566,Serial_Dependence_U,2023.2.3,Win32,59.52380952364454,,,,,,943.7690000000001,108,3,943.7694000000955,108,,,,947.1733000001908,947.6633000001908,946.6550999999048,947.1731999998095,944.780300000191,946.6548000001909,947.6634000000955,948.1631999998095,948.1633000001908,949.0975999999049,571,949.0979000000956,2,949.0984000000955,3,28,118,0,1,0.8,0.3,Time
,,580953,001,nv,22,2025-06-04_13h36.57.566,Serial_Dependence_U,2023.2.3,Win32,59.52380952364454,,,,,,949.0990999999048,208,3,949.099300000191,208,,,,952.4773000001909,952.9790999999049,951.9594000000956,952.4770999999049,950.1135000000003,951.9590999999049,952.9790999999049,953.4795999999047,953.4796999998094,969.1295000000001,789,969.1299000000955,3,969.1541999998095,3,29,119,5,1,0.8,0.7,Time
,,580953,001,nv,22,2025-06-04_13h36.57.566,Serial_Dependence_U,2023.2.3,Win32,59.52380952364454,,,,,,969.1549000000956,271,4,1082.6058000001908,271,s,113.39769999980922,,1085.9660999999046,1086.4605000000001,1085.4540999999049,1085.965800000191,1083.6065999999046,1085.4540000000002,1086.4605999999048,1086.9604000000954,1086.9604000000954,1087.630800000191,160,1087.6315,1,1087.6324000000955,4,0,120,25,1,0.8,0.7,Time
,,580953,001,nv,22,2025-06-04_13h36.57.566,Serial_Dependence_U,2023.2.3,Win32,59.52380952364454,,,,,,1087.6334000000957,0,4,1087.6374000000956,0,,,,1091.2125,1091.7103000001907,1090.6991999998095,1091.2123000001907,1088.6490999999046,1090.6989000000954,1091.7104000000954,1092.2104000000954,1092.2105000000001,1093.4130999999047,643,1093.4134000000954,1,1093.4408000001908,4,1,121,16,1,1,0.7,Time
,,580953,001,nv,22,2025-06-04_13h36.57.566,Serial_Dependence_U,2023.2.3,Win32,59.52380952364454,,,,,,1093.4415999999046,140,4,1093.442,140,,,,1097.4293000001908,1097.9273000001908,1096.923099999905,1097.429,1094.439099999905,1096.9229000000955,1097.9273000001908,1098.4271999998095,1098.4273000001908,1099.682099999905,875,1099.6825999999046,1,1099.7114000000956,4,2,122,23,1,1.4,0.3,Time
,,580953,001,nv,22,2025-06-04_13h36.57.566,Serial_Dependence_U,2023.2.3,Win32,59.52380952364454,,,,,,1099.7121999998094,43,4,1099.7125,43,,,,1103.4976999998094,1103.9931999998093,1102.9785000000002,1103.4974000000957,1100.7110000000002,1102.9781999998095,1103.9931999998093,1104.4930999999046,1104.4931999998093,1105.6025999999047,629,1105.6029000000954,1,1105.6309000000956,4,3,123,12,1,1.2,0.3,Time
,,580953,001,nv,22,2025-06-04_13h36.57.566,Serial_Dependence_U,2023.2.3,Win32,59.52380952364454,,,,,,1105.6316999998094,177,4,1105.6320999999048,177,,,,1109.6009000000954,1110.0931999998093,1109.0891999998094,1109.6006999998094,1106.639599999905,1109.0889000000957,1110.093300000191,1110.5931999998093,1110.593300000191,1112.2365999999047,1174,1112.2368000001911,2,1112.252300000191,4,4,124,18,1,1.4,0.7,Time
,,580953,001,nv,22,2025-06-04_13h36.57.566,Serial_Dependence_U,2023.2.3,Win32,59.52380952364454,,,,,,1112.2528000001907,14,4,1112.2530000000002,14,,,,1115.811599999905,1116.3101999998094,1115.292300000191,1115.8113000001908,1113.2503000001907,1115.2916999998092,1116.3101999998094,1116.8099000000957,1116.81,1118.3554000000954,1140,1118.3555999999048,4,1118.3726999998094,4,5,125,6,1,1,0.7,Time
,,580953,001,nv,22,2025-06-04_13h36.57.566,Serial_Dependence_U,2023.2.3,Win32,59.52380952364454,,,,,,1118.3731999998095,49,4,1118.3734000000954,49,,,,1122.146599999905,1122.6434000000954,1121.6328000001909,1122.1464000000956,1119.3870999999049,1121.6323000001908,1122.6434000000954,1123.1433000001907,1123.1434000000954,1123.6391999998095,49,1123.639800000191,1,1123.6405,4,6,126,27,1,1.2,0.7,Time
,,580953,001,nv,22,2025-06-04_13h36.57.566,Serial_Dependence_U,2023.2.3,Win32,59.52380952364454,,,,,,1123.6411999998095,68,4,1123.6415999999049,68,,,,1127.654,1128.143,1127.1343000001907,1127.653800000191,1124.662300000191,1127.1343000001907,1128.143,1128.6431999998094,1128.6431999998094,1129.2910000000002,149,1129.2914000000956,1,1129.3198000001908,4,7,127,13,1,1.4,0.3,Time
,,580953,001,nv,22,2025-06-04_13h36.57.566,Serial_Dependence_U,2023.2.3,Win32,59.52380952364454,,,,,,1129.3206999998092,79,4,1129.3211999998093,79,,,,1133.090599999905,1133.592800000191,1132.5714000000953,1133.0905000000002,1130.3185000000003,1132.5710000000004,1133.5929000000956,1134.093099999905,1134.0931999998093,1135.7664000000955,1281,1135.7669000000956,4,1135.7955000000002,4,8,128,7,1,1.2,0.7,Time
,,580953,001,nv,22,2025-06-04_13h36.57.566,Serial_Dependence_U,2023.2.3,Win32,59.52380952364454,,,,,,1135.796300000191,152,4,1135.7966999998093,152,,,,1139.9775,1140.4759000000954,1139.4695999999049,1139.9771999998093,1136.8009000000957,1139.4691999998095,1140.4760999999048,1140.9764000000955,1140.9765000000002,1142.3105999999048,919,1142.3110000000001,1,1142.3221999998095,4,9,129,24,1,1.6,0.3,Time
,,580953,001,nv,22,2025-06-04_13h36.57.566,Serial_Dependence_U,2023.2.3,Win32,59.52380952364454,,,,,,1142.322599999905,206,4,1142.3226999998096,206,,,,1146.4936999998095,1146.9926999998092,1145.976800000191,1146.4935999999047,1143.3339000000956,1145.976599999905,1146.9926999998092,1147.492800000191,1147.492800000191,1149.0248000001907,600,1149.0255000000002,1,1149.052599999905,4,10,130,9,1,1.6,0.7,Time
,,580953,001,nv,22,2025-06-04_13h36.57.566,Serial_Dependence_U,2023.2.3,Win32,59.52380952364454,,,,,,1149.0534000000957,25,4,1149.0536999998094,25,,,,1152.4028000001908,1152.892300000191,1151.8954000000954,1152.4026999998096,1150.046300000191,1151.895,1152.892300000191,1153.3828000001909,1153.3829000000956,1156.2561999998093,731,1156.2566999998094,2,1156.2849000000956,4,11,131,5,1,0.8,0.7,Time
,,580953,001,nv,22,2025-06-04_13h36.57.566,Serial_Dependence_U,2023.2.3,Win32,59.52380952364454,,,,,,1156.2856999998094,211,4,1156.2860999999048,211,,,,1160.2394000000954,1160.7418000001908,1159.7324000000954,1160.238800000191,1157.2935000000002,1159.7320999999047,1160.7418000001908,1161.2424000000956,1161.2425000000003,1161.9670999999048,270,1161.9674000000955,1,1161.9940000000001,4,12,132,28,1,1.4,0.7,Time
,,580953,001,nv,22,2025-06-04_13h36.57.566,Serial_Dependence_U,2023.2.3,Win32,59.52380952364454,,,,,,1161.9946999998097,81,4,1161.9950000000003,81,,,,1165.7859000000954,1166.2750999999048,1165.271099999905,1165.7854000000957,1163.0001999998094,1165.2708000001908,1166.2750999999048,1166.7753000001908,1166.7755000000002,1167.1400000000003,2,1167.1404000000957,1,1167.1689000000956,4,13,133,22,1,1.2,0.3,Time
,,580953,001,nv,22,2025-06-04_13h36.57.566,Serial_Dependence_U,2023.2.3,Win32,59.52380952364454,,,,,,1167.1696999998094,93,4,1167.17,93,,,,1170.5484000000956,1171.0421999998093,1170.0426999998094,1170.5480000000002,1168.1724000000954,1170.0424000000953,1171.0421999998093,1171.5420000000004,1171.5420000000004,1173.1799000000956,910,1173.1801999998092,4,1173.206599999905,4,14,134,20,1,0.8,0.3,Time
,,580953,001,nv,22,2025-06-04_13h36.57.566,Serial_Dependence_U,2023.2.3,Win32,59.52380952364454,,,,,,1173.207300000191,311,4,1173.2075999999047,311,,,,1177.3814000000957,1177.8750999999047,1176.8691999998096,1177.3811999998093,1174.2275,1176.8689000000954,1177.8751999998094,1178.365099999905,1178.3651999998096,1179.9861999998093,1094,1179.9865,1,1180.0143000001908,4,15,135,29,1,1.6,0.7,Time
,,580953,001,nv,22,2025-06-04_13h36.57.566,Serial_Dependence_U,2023.2.3,Win32,59.52380952364454,,,,,,1180.0150999999046,73,4,1180.0154000000957,73,,,,1183.6135000000004,1184.1080000000002,1183.095300000191,1183.613300000191,1181.0165000000002,1183.0949000000955,1184.1080000000002,1184.6084000000956,1184.6084000000956,1186.9,993,1186.9004000000955,3,1186.9289000000954,4,16,136,11,1,1,0.3,Time
,,580953,001,nv,22,2025-06-04_13h36.57.566,Serial_Dependence_U,2023.2.3,Win32,59.52380952364454,,,,,,1186.9298000001909,66,4,1186.9301999998092,66,,,,1190.483599999905,1190.9751999998093,1189.9763000001908,1190.4834000000956,1187.9363000001908,1189.9761999998095,1190.9754000000953,1191.4750000000004,1191.4750999999046,1250.9994000000956,713,1250.9996999998093,2,1251.0258000001909,4,17,137,26,1,1,0.7,Time
,,580953,001,nv,22,2025-06-04_13h36.57.566,Serial_Dependence_U,2023.2.3,Win32,59.52380952364454,,,,,,1251.0265,138,4,1251.026800000191,138,,,,1255.2271999998093,1255.7236999998095,1254.7211999998094,1255.2270000000003,1252.0405999999048,1254.7209000000958,1255.7236999998095,1256.2231999998094,1256.223300000191,1258.0731999998093,1455,1258.0736999998094,2,1258.1010999999048,4,18,138,14,1,1.6,0.3,Time
,,580953,001,nv,22,2025-06-04_13h36.57.566,Serial_Dependence_U,2023.2.3,Win32,59.52380952364454,,,,,,1258.1019000000956,192,4,1258.102300000191,192,,,,1262.0816999998096,1262.5743000001908,1261.5661999998092,1262.0816999998096,1259.098300000191,1261.5659000000956,1262.5746999998096,1263.0739000000954,1263.074,1264.4750000000004,888,1264.4754000000953,1,1264.5030000000002,4,19,139,3,1,1.4,0.3,Time
,,580953,001,nv,22,2025-06-04_13h36.57.566,Serial_Dependence_U,2023.2.3,Win32,59.52380952364454,,,,,,1264.503800000191,22,4,1264.5040999999046,22,,,,1267.9271999998095,1268.4230000000002,1267.4045,1267.9269000000954,1265.5199000000957,1267.4041999998094,1268.4230000000002,1268.9306999998093,1268.930800000191,1270.4544000000956,1022,1270.454800000191,4,1270.482,4,20,140,0,1,0.8,0.3,Time
,,580953,001,nv,22,2025-06-04_13h36.57.566,Serial_Dependence_U,2023.2.3,Win32,59.52380952364454,,,,,,1270.4828000001908,170,4,1270.4831999998096,170,,,,1274.6211999998095,1275.1239000000955,1274.1148000001908,1274.6209000000954,1271.4758000001907,1274.1146999998095,1275.1240000000003,1275.6240000000003,1275.6240000000003,1277.3665,1354,1277.3666999998095,2,1277.3769000000957,4,21,141,19,1,1.6,0.7,Time
,,580953,001,nv,22,2025-06-04_13h36.57.566,Serial_Dependence_U,2023.2.3,Win32,59.52380952364454,,,,,,1277.3771999998094,29,4,1277.3774000000953,29,,,,1280.9738000001907,1281.473300000191,1280.4545000000003,1280.9736999998095,1278.3868000001908,1280.4541999998096,1281.4734000000954,1281.9735999999048,1281.9736999998095,1286.0658000001908,1104,1286.0660000000003,4,1286.0760999999047,4,22,142,21,1,1,0.3,Time
,,580953,001,nv,22,2025-06-04_13h36.57.566,Serial_Dependence_U,2023.2.3,Win32,59.52380952364454,,,,,,1286.0765000000001,244,4,1286.0765000000001,244,,,,1289.450300000191,1289.94,1288.9354000000953,1289.450099999905,1287.0854000000954,1288.935,1289.9400999999048,1290.4301999998092,1290.430300000191,1327.0339000000954,764,1327.0343000001908,3,1327.0626999998094,4,23,143,15,1,0.8,0.7,Time
,,580953,001,nv,22,2025-06-04_13h36.57.566,Serial_Dependence_U,2023.2.3,Win32,59.52380952364454,,,,,,1327.063599999905,256,4,1327.0639000000956,256,,,,1331.034,1331.5296999998095,1330.5236999998097,1331.0339000000954,1328.069300000191,1330.5235000000002,1331.5298000001908,1332.0225999999047,1332.0226999998094,1333.6290000000004,1170,1333.6294000000958,2,1333.63,4,24,144,8,1,1.4,0.7,Time
,,580953,001,nv,22,2025-06-04_13h36.57.566,Serial_Dependence_U,2023.2.3,Win32,59.52380952364454,,,,,,1333.6306999998096,359,4,1333.6310000000003,359,,,,1337.3890999999048,1337.8888000001907,1336.8831999998092,1337.3890000000001,1334.6426999998093,1336.8830000000003,1337.8888000001907,1338.3890999999048,1338.3891999998095,1339.7993000001911,998,1339.7998000001908,2,1339.8285,4,25,145,17,1,1.2,0.7,Time
,,580953,001,nv,22,2025-06-04_13h36.57.566,Serial_Dependence_U,2023.2.3,Win32,59.52380952364454,,,,,,1339.8293000001909,33,4,1339.8296999998092,33,,,,1343.6230999999048,1344.1116999998094,1343.106300000191,1343.6229000000953,1340.8281999998094,1343.1061999998096,1344.1116999998094,1344.6055000000001,1344.6055999999048,1346.2141999998094,1190,1346.2144000000953,3,1346.2146999998095,4,26,146,2,1,1.2,0.3,Time
,,580953,001,nv,22,2025-06-04_13h36.57.566,Serial_Dependence_U,2023.2.3,Win32,59.52380952364454,,,,,,1346.2150000000001,354,4,1346.2150000000001,354,,,,1349.798300000191,1350.2885999999048,1349.2845999999045,1349.7981999998092,1347.2069000000956,1349.2843000001908,1350.2885999999048,1350.7885999999048,1350.7885999999048,1352.3979000000954,1209,1352.3980999999048,4,1352.4085,4,27,147,1,1,1,0.3,Time
,,580953,001,nv,22,2025-06-04_13h36.57.566,Serial_Dependence_U,2023.2.3,Win32,59.52380952364454,,,,,,1352.4088000001907,316,4,1352.4089000000954,316,,,,1355.8050999999045,1356.3056999998093,1355.2890000000002,1355.8049000000956,1353.4196999998094,1355.2889000000955,1356.306,1356.8058000001906,1356.8058000001906,1357.815699999809,545,1357.816300000191,1,1357.8486999998095,4,28,148,10,1,0.8,0.3,Time
,,580953,001,nv,22,2025-06-04_13h36.57.566,Serial_Dependence_U,2023.2.3,Win32,59.52380952364454,,,,,,1357.8495999999045,280,4,1357.8499000000952,280,,,,1362.0330999999046,1362.5220999999046,1361.5185000000001,1362.032800000191,1358.8399000000954,1361.5183000001907,1362.5221999998093,1363.0216999998092,1363.0216999998092,1364.8379000000955,1402,1364.8383000001909,2,1364.838800000191,4,29,149,4,1,1.6,0.3,Time
,,580953,001,nv,22,2025-06-04_13h36.57.566,Serial_Dependence_U,2023.2.3,Win32,59.52380952364454,,,,,,1364.8395999999047,203,5,1506.547,203,s,141.651300000191,,1510.4994000000952,1511.0021999998094,1509.9851999998095,1510.4990999999045,1507.5464000000952,1509.9848000001907,1511.0021999998094,1511.502,1511.5020999999047,1515.9604000000954,1647,1515.9608000001908,4,1515.9855999999045,5,0,150,8,1,1.4,0.7,Time
,,580953,001,nv,22,2025-06-04_13h36.57.566,Serial_Dependence_U,2023.2.3,Win32,59.52380952364454,,,,,,1515.9863000001906,22,5,1515.9888000001906,22,,,,1520.173300000191,1520.6685999999045,1519.6613000001907,1520.1731999998092,1516.9930999999046,1519.661,1520.6685999999045,1521.1689000000956,1521.1689999999999,1526.4314000000954,1512,1526.4318000001908,2,1526.4616999998093,5,1,151,14,1,1.6,0.3,Time
,,580953,001,nv,22,2025-06-04_13h36.57.566,Serial_Dependence_U,2023.2.3,Win32,59.52380952364454,,,,,,1526.4625999999048,161,5,1526.4629000000955,161,,,,1530.223,1530.7185,1529.7065999999045,1530.222800000191,1527.4546999998092,1529.7063000001908,1530.7185999999047,1531.2185999999047,1531.2186999998094,1532.3103000001906,564,1532.3105999999048,1,1532.3360000000002,5,2,152,27,1,1.2,0.7,Time
,,580953,001,nv,22,2025-06-04_13h36.57.566,Serial_Dependence_U,2023.2.3,Win32,59.52380952364454,,,,,,1532.3368000001906,287,5,1532.3370999999047,287,,,,1536.3413000001906,1536.8419000000954,1535.8256999998093,1536.3410999999046,1533.3449000000955,1535.8254000000952,1536.842,1537.3353000001907,1537.3353000001907,1538.7774000000954,945,1538.7778000001908,1,1538.7785,5,3,153,23,1,1.4,0.3,Time
,,580953,001,nv,22,2025-06-04_13h36.57.566,Serial_Dependence_U,2023.2.3,Win32,59.52380952364454,,,,,,1538.7791999998094,8,5,1538.7795,8,,,,1542.5725000000002,1543.0681999998092,1542.0576999998093,1542.5721999998095,1539.7831999998093,1542.0574000000956,1543.068300000191,1543.5755,1543.5755999999046,1544.3550999999047,281,1544.3555000000001,1,1544.3841999998094,5,4,154,2,1,1.2,0.3,Time
,,580953,001,nv,22,2025-06-04_13h36.57.566,Serial_Dependence_U,2023.2.3,Win32,59.52380952364454,,,,,,1544.3851999998092,284,5,1544.3854000000956,284,,,,1547.7784000000956,1548.2685000000001,1547.2761999998093,1547.778300000191,1545.4070999999049,1547.2758000001909,1548.2685000000001,1548.7724000000953,1548.7724000000953,1550.6695,855,1550.6696999998094,4,1550.685,5,5,155,0,1,0.8,0.3,Time
,,580953,001,nv,22,2025-06-04_13h36.57.566,Serial_Dependence_U,2023.2.3,Win32,59.52380952364454,,,,,,1550.6855,34,5,1550.6856999998095,34,,,,1554.472800000191,1554.9681999998093,1553.9594000000952,1554.4726999998093,1551.6918000001906,1553.959300000191,1554.968300000191,1555.4679999999998,1555.4680999999046,1557.569,768,1557.5695,1,1557.5948000001908,5,6,156,22,1,1.2,0.3,Time
,,580953,001,nv,22,2025-06-04_13h36.57.566,Serial_Dependence_U,2023.2.3,Win32,59.52380952364454,,,,,,1557.5955,247,5,1557.5959000000953,247,,,,1561.158,1561.6515999999046,1560.6480000000001,1561.1579000000952,1558.606300000191,1560.6476999998094,1561.6516999998094,1562.1504000000955,1562.150599999905,1563.3055,428,1563.3059000000953,1,1563.333,5,7,157,26,1,1,0.7,Time
,,580953,001,nv,22,2025-06-04_13h36.57.566,Serial_Dependence_U,2023.2.3,Win32,59.52380952364454,,,,,,1563.3338000001909,174,5,1563.3341999998092,174,,,,1567.3314000000955,1567.8346999998093,1566.823300000191,1567.3311999998095,1564.3459000000953,1566.8230999999046,1567.8346999998093,1568.3340999999045,1568.3340999999045,1569.9444000000954,1220,1569.9448000001908,2,1569.9721999998092,5,8,158,13,1,1.4,0.3,Time
,,580953,001,nv,22,2025-06-04_13h36.57.566,Serial_Dependence_U,2023.2.3,Win32,59.52380952364454,,,,,,1569.9730999999047,359,5,1569.9734000000954,359,,,,1573.9628000001908,1574.4505,1573.4569999999999,1573.9625999999048,1570.9829000000955,1573.4566999998092,1574.4505999999046,1574.9511999998094,1574.9513000001907,1576.8748000001906,1219,1576.8751999998094,2,1576.9031999998092,5,9,159,3,1,1.4,0.3,Time
,,580953,001,nv,22,2025-06-04_13h36.57.566,Serial_Dependence_U,2023.2.3,Win32,59.52380952364454,,,,,,1576.904,208,5,1576.9044000000954,208,,,,1580.6876999998094,1581.1841999998092,1580.1755999999045,1580.6874000000953,1577.9105999999047,1580.1754999999998,1581.1841999998092,1581.6844000000956,1581.6844999999998,1583.9309000000953,1744,1583.9313000001907,5,1583.9595,5,10,160,12,1,1.2,0.3,Time
,,580953,001,nv,22,2025-06-04_13h36.57.566,Serial_Dependence_U,2023.2.3,Win32,59.52380952364454,,,,,,1583.9603000001907,309,5,1583.9608000001908,309,,,,1587.9204000000955,1588.4175,1587.4125999999046,1587.9201999998095,1584.9589999999998,1587.4121999998092,1588.4175,1588.9175,1588.9175999999047,1591.2221999998092,1926,1591.2225999999046,5,1591.2499000000953,5,11,161,18,1,1.4,0.7,Time
,,580953,001,nv,22,2025-06-04_13h36.57.566,Serial_Dependence_U,2023.2.3,Win32,59.52380952364454,,,,,,1591.2508000001908,261,5,1591.251099999905,261,,,,1594.6495999999047,1595.1505000000002,1594.133300000191,1594.6493000001906,1592.258300000191,1594.1329000000956,1595.150599999905,1595.6509000000956,1595.6509000000956,1597.1725999999048,849,1597.1730000000002,4,1597.201,5,12,162,20,1,0.8,0.3,Time
,,580953,001,nv,22,2025-06-04_13h36.57.566,Serial_Dependence_U,2023.2.3,Win32,59.52380952364454,,,,,,1597.2018000001908,254,5,1597.2020999999045,254,,,,1601.3595999999047,1601.8505999999047,1600.8499000000952,1601.3595999999047,1598.2094000000952,1600.8495000000003,1601.8506999998094,1602.3505999999047,1602.3506999998094,1604.2431999998093,1290,1604.2433000001906,2,1604.2541999998093,5,13,163,29,1,1.6,0.7,Time
,,580953,001,nv,22,2025-06-04_13h36.57.566,Serial_Dependence_U,2023.2.3,Win32,59.52380952364454,,,,,,1604.2545999999047,274,5,1604.2546999998094,274,,,,1607.8395,1608.3340999999045,1607.3345,1607.8394000000953,1605.2685999999048,1607.3344000000952,1608.3341999998092,1608.834300000191,1608.834300000191,1738.7945999999047,864,1738.795,2,1738.8249000000956,5,14,164,11,1,1,0.3,Time
,,580953,001,nv,22,2025-06-04_13h36.57.566,Serial_Dependence_U,2023.2.3,Win32,59.52380952364454,,,,,,1738.8256999998093,158,5,1738.826,158,,,,1742.4260999999046,1742.9144000000956,1741.905800000191,1742.425800000191,1739.83,1741.9054000000956,1742.9144999999999,1743.4146999998093,1743.414800000191,1749.335699999809,1124,1749.3360999999045,4,1749.3656999998093,5,15,165,21,1,1,0.3,Time
,,580953,001,nv,22,2025-06-04_13h36.57.566,Serial_Dependence_U,2023.2.3,Win32,59.52380952364454,,,,,,1749.3665999999048,62,5,1749.3668000001908,62,,,,1752.7380999999045,1753.2310000000002,1752.2166999998094,1752.7379000000956,1750.3663000001907,1752.2164000000953,1753.2310000000002,1753.7380999999045,1753.7381999998092,1755.7205,1460,1755.7209000000953,5,1755.7461999998095,5,16,166,25,1,0.8,0.7,Time
,,580953,001,nv,22,2025-06-04_13h36.57.566,Serial_Dependence_U,2023.2.3,Win32,59.52380952364454,,,,,,1755.7470999999045,184,5,1755.7474000000952,184,,,,1759.9283000001906,1760.4306999998093,1759.4255999999045,1759.9280999999046,1756.7614000000954,1759.4253000001909,1760.4306999998093,1760.9313000001907,1760.9314000000954,1761.8794000000953,507,1761.88,1,1761.8806999998092,5,17,167,24,1,1.6,0.3,Time
,,580953,001,nv,22,2025-06-04_13h36.57.566,Serial_Dependence_U,2023.2.3,Win32,59.52380952364454,,,,,,1761.881300000191,145,5,1761.882,145,,,,1766.050099999905,1766.5470999999047,1765.5320000000002,1766.0498000001908,1762.896099999905,1765.5315999999048,1766.5470999999047,1767.0475000000001,1767.0475999999048,1769.5900000000001,1586,1769.590199999809,3,1769.6001999998093,5,18,168,9,1,1.6,0.7,Time
,,580953,001,nv,22,2025-06-04_13h36.57.566,Serial_Dependence_U,2023.2.3,Win32,59.52380952364454,,,,,,1769.6005999999047,227,5,1769.6006999998094,227,,,,1773.7585999999046,1774.247300000191,1773.2479000000953,1773.7584000000952,1770.6048000001906,1773.2475999999047,1774.2474000000952,1774.747300000191,1774.7475,1776.4969000000956,738,1776.4974000000952,1,1776.5244000000953,5,19,169,19,1,1.6,0.7,Time
,,580953,001,nv,22,2025-06-04_13h36.57.566,Serial_Dependence_U,2023.2.3,Win32,59.52380952364454,,,,,,1776.5250999999048,172,5,1776.5254000000955,172,,,,1780.0955999999046,1780.5970999999045,1779.5845999999046,1780.0954000000952,1777.536,1779.5844000000952,1780.5971999998092,1781.0970999999045,1781.0971999998092,1782.5639999999999,1003,1782.5644000000952,3,1782.592800000191,5,20,170,6,1,1,0.7,Time
,,580953,001,nv,22,2025-06-04_13h36.57.566,Serial_Dependence_U,2023.2.3,Win32,59.52380952364454,,,,,,1782.5935999999047,189,5,1782.5939000000953,189,,,,1786.8135000000002,1787.313,1786.2941999998093,1786.8133000001908,1783.609,1786.2939000000956,1787.313,1787.8139000000956,1787.8139000000956,1789.4340000000002,1099,1789.4344000000956,1,1789.4615,5,21,171,4,1,1.6,0.3,Time
,,580953,001,nv,22,2025-06-04_13h36.57.566,Serial_Dependence_U,2023.2.3,Win32,59.52380952364454,,,,,,1789.4621999998094,217,5,1789.4626999998095,217,,,,1793.0621999998093,1793.5629000000954,1792.5510999999046,1793.0619000000952,1790.472800000191,1792.550800000191,1793.5629000000954,1794.0634000000955,1794.0634000000955,1795.354300000191,793,1795.3546999998093,2,1795.3811999998093,5,22,172,1,1,1,0.3,Time
,,580953,001,nv,22,2025-06-04_13h36.57.566,Serial_Dependence_U,2023.2.3,Win32,59.52380952364454,,,,,,1795.3819000000954,342,5,1795.3820999999048,342,,,,1799.3379000000955,1799.8294999999998,1798.8345,1799.3378000001908,1796.3881999998093,1798.834300000191,1799.8295999999045,1800.3299000000952,1800.33,1802.1405999999047,1409,1802.141,3,1802.1689000000956,5,23,173,28,1,1.4,0.7,Time
,,580953,001,nv,22,2025-06-04_13h36.57.566,Serial_Dependence_U,2023.2.3,Win32,59.52380952364454,,,,,,1802.1695999999047,209,5,1802.1699000000954,209,,,,1805.9475000000002,1806.4465999999047,1805.425800000191,1805.9471999998095,1803.1761999998093,1805.4254999999998,1806.4465999999047,1806.9469000000954,1806.9469000000954,1808.4815999999046,1179,1808.4819000000953,3,1808.5080999999045,5,24,174,7,1,1.2,0.7,Time
,,580953,001,nv,22,2025-06-04_13h36.57.566,Serial_Dependence_U,2023.2.3,Win32,59.52380952364454,,,,,,1808.5089000000953,248,5,1808.5091999998094,248,,,,1811.8811999998093,1812.3798000001907,1811.3644000000954,1811.8809999999999,1809.5254000000955,1811.3641999998094,1812.3798000001907,1812.8798000001907,1812.8798000001907,1813.4453000001909,196,1813.4456999998092,1,1813.4704000000952,5,25,175,5,1,0.8,0.7,Time
,,580953,001,nv,22,2025-06-04_13h36.57.566,Serial_Dependence_U,2023.2.3,Win32,59.52380952364454,,,,,,1813.4710999999047,81,5,1813.4714000000954,81,,,,1816.837,1817.3290999999049,1816.3191999998094,1816.8368000001906,1814.4714000000954,1816.319,1817.3290999999049,1817.8299000000952,1817.83,1819.6233000001907,1402,1819.6239000000955,5,1819.6518000001906,5,26,176,15,1,0.8,0.7,Time
,,580953,001,nv,22,2025-06-04_13h36.57.566,Serial_Dependence_U,2023.2.3,Win32,59.52380952364454,,,,,,1819.652699999809,8,5,1819.6529000000955,8,,,,1823.2046999998092,1823.6955999999045,1822.6898000001906,1823.2044999999998,1820.6554000000956,1822.6895999999047,1823.6956999998092,1824.1964000000953,1824.1965,1826.0068000001907,1204,1826.0071999998095,4,1826.0345000000002,5,27,177,16,1,1,0.7,Time
,,580953,001,nv,22,2025-06-04_13h36.57.566,Serial_Dependence_U,2023.2.3,Win32,59.52380952364454,,,,,,1826.0354000000953,70,5,1826.0355999999047,70,,,,1829.4299999999998,1829.9295000000002,1828.9221999998094,1829.4299000000956,1827.0504999999998,1828.9219000000953,1829.9295000000002,1830.4296999998091,1830.4298000001909,1830.9195,3,1830.9201999998095,1,1830.9450999999049,5,28,178,10,1,0.8,0.3,Time
,,580953,001,nv,22,2025-06-04_13h36.57.566,Serial_Dependence_U,2023.2.3,Win32,59.52380952364454,,,,,,1830.9459000000952,327,5,1830.9461999998093,327,,,,1834.716,1835.2119000000953,1834.1956999998092,1834.715800000191,1831.9589000000956,1834.1953000001909,1835.2119000000953,1835.7126999998095,1835.7126999998095,1837.3074000000956,1243,1837.3076999998093,3,1837.3345,5,29,179,17,1,1.2,0.7,Time
,,580953,001,nv,22,2025-06-04_13h36.57.566,Serial_Dependence_U,2023.2.3,Win32,59.52380952364454,,,,,,1837.3351999998094,277,6,1870.5744000000955,277,s,33.18680000019094,,1874.3804000000955,1874.8785999999045,1873.8629999999998,1874.3801999998095,1871.5890999999046,1873.8626999998091,1874.878800000191,1875.3690000000001,1875.3690000000001,1875.9605000000001,119,1875.9610999999045,1,1875.9860999999046,6,0,180,22,1,1.2,0.3,Time
,,580953,001,nv,22,2025-06-04_13h36.57.566,Serial_Dependence_U,2023.2.3,Win32,59.52380952364454,,,,,,1875.9869000000954,353,6,1875.9900000000002,353,,,,1880.152,1880.6450999999047,1879.6325999999049,1880.1516999998094,1876.9945000000002,1879.6323000001908,1880.6451999998094,1881.1453000001907,1881.1454000000954,1882.7018000001908,1151,1882.7021999998092,2,1882.7306999998095,6,1,181,29,1,1.6,0.7,Time
,,580953,001,nv,22,2025-06-04_13h36.57.566,Serial_Dependence_U,2023.2.3,Win32,59.52380952364454,,,,,,1882.7314999999999,27,6,1882.7319000000953,27,,,,1886.1010999999048,1886.5945000000002,1885.5883000001909,1886.1009000000954,1883.7345,1885.5880000000002,1886.5945000000002,1887.0858000001908,1887.0859000000955,1888.4716999998095,961,1888.472300000191,4,1888.5014000000956,6,2,182,25,1,0.8,0.7,Time
,,580953,001,nv,22,2025-06-04_13h36.57.566,Serial_Dependence_U,2023.2.3,Win32,59.52380952364454,,,,,,1888.5021999998094,220,6,1888.5025,220,,,,1891.8791999998093,1892.3778000001907,1891.3681999998093,1891.879,1889.5029000000955,1891.367800000191,1892.3778000001907,1892.8786999998092,1892.878800000191,1898.5955,641,1898.5956999998093,2,1898.6085000000003,6,3,183,10,1,0.8,0.3,Time
,,580953,001,nv,22,2025-06-04_13h36.57.566,Serial_Dependence_U,2023.2.3,Win32,59.52380952364454,,,,,,1898.608800000191,170,6,1898.609,170,,,,1902.0039000000952,1902.494800000191,1901.4861999998093,1902.003800000191,1899.6229000000953,1901.4859999999999,1902.494800000191,1902.995,1902.995,1904.2540999999046,644,1904.2543000001906,2,1904.2636999998094,6,4,184,0,1,0.8,0.3,Time
,,580953,001,nv,22,2025-06-04_13h36.57.566,Serial_Dependence_U,2023.2.3,Win32,59.52380952364454,,,,,,1904.2640999999048,213,6,1904.2640999999048,213,,,,1908.0226999998094,1908.5180999999047,1907.5126999998092,1908.0225999999047,1905.2775999999049,1907.5124000000956,1908.5181999998094,1909.0184000000954,1909.0185000000001,1910.4946999998092,1099,1910.4949000000956,2,1910.504,6,5,185,27,1,1.2,0.7,Time
,,580953,001,nv,22,2025-06-04_13h36.57.566,Serial_Dependence_U,2023.2.3,Win32,59.52380952364454,,,,,,1910.5043000001906,139,6,1910.5044000000953,139,,,,1914.0584000000954,1914.5651999998095,1913.5468000001906,1914.0581999998094,1911.5049000000954,1913.5465999999046,1914.5651999998095,1915.0615999999045,1915.0615999999045,1916.7645999999045,1172,1916.7649999999999,4,1916.7889000000955,6,6,186,6,1,1,0.7,Time
,,580953,001,nv,22,2025-06-04_13h36.57.566,Serial_Dependence_U,2023.2.3,Win32,59.52380952364454,,,,,,1916.7896999998093,73,6,1916.7899000000953,73,,,,1920.982,1921.478,1920.467599999905,1920.9819000000953,1917.7818000001907,1920.4673000001908,1921.4780999999048,1921.9775999999047,1921.9776999998094,1923.3394000000953,957,1923.3400000000001,1,1923.3688000001907,6,7,187,4,1,1.6,0.3,Time
,,580953,001,nv,22,2025-06-04_13h36.57.566,Serial_Dependence_U,2023.2.3,Win32,59.52380952364454,,,,,,1923.369800000191,194,6,1923.3701999998093,194,,,,1927.3276999998093,1927.8275999999046,1926.8181999998092,1927.3274999999999,1924.3655999999046,1926.8178000001908,1927.8276999998093,1928.3270000000002,1928.3270000000002,1933.430300000191,1137,1933.4308000001906,2,1933.4580999999048,6,8,188,18,1,1.4,0.7,Time
,,580953,001,nv,22,2025-06-04_13h36.57.566,Serial_Dependence_U,2023.2.3,Win32,59.52380952364454,,,,,,1933.4589000000956,317,6,1933.4591999998092,317,,,,1937.4195999999047,1937.9106999998094,1936.9115999999049,1937.4195999999047,1934.4699000000955,1936.9111999998095,1937.9106999998094,1938.4106999998094,1938.4108000001906,1940.3611999998093,1514,1940.3619000000954,4,1940.3883000001906,6,9,189,28,1,1.4,0.7,Time
,,580953,001,nv,22,2025-06-04_13h36.57.566,Serial_Dependence_U,2023.2.3,Win32,59.52380952364454,,,,,,1940.3890999999048,112,6,1940.3894000000955,112,,,,1944.3569000000953,1944.8514000000955,1943.8494000000956,1944.3566999998093,1941.394300000191,1943.8490000000002,1944.8515999999045,1945.3440999999048,1945.3441999998095,1951.3186999998093,1260,1951.3190999999047,2,1951.3464000000954,6,10,190,8,1,1.4,0.7,Time
,,580953,001,nv,22,2025-06-04_13h36.57.566,Serial_Dependence_U,2023.2.3,Win32,59.52380952364454,,,,,,1951.3471999998092,310,6,1951.3475999999046,310,,,,1954.8998000001907,1955.3930999999047,1954.3819000000954,1954.8995,1952.3448000001908,1954.3816999998094,1955.3930999999047,1955.8978000001907,1955.8979000000954,1957.374300000191,1113,1957.3748000001906,4,1957.402,6,11,191,16,1,1,0.7,Time
,,580953,001,nv,22,2025-06-04_13h36.57.566,Serial_Dependence_U,2023.2.3,Win32,59.52380952364454,,,,,,1957.4029000000955,120,6,1957.4030999999045,120,,,,1960.7730000000001,1961.282800000191,1960.2565,1960.7728000001907,1958.4028000001908,1960.2560999999046,1961.2829000000952,1961.777,1961.7771999998095,1963.3713000001908,964,1963.3716999998092,4,1963.3965999999045,6,12,192,5,1,0.8,0.7,Time
,,580953,001,nv,22,2025-06-04_13h36.57.566,Serial_Dependence_U,2023.2.3,Win32,59.52380952364454,,,,,,1963.3973000001906,29,6,1963.3975999999047,29,,,,1967.3778000001907,1967.8766999998093,1966.8725999999047,1967.3776999998095,1964.4024000000954,1966.8721999998093,1967.8766999998093,1968.3769000000952,1968.377,1969.8704000000953,882,1969.8709000000954,1,1969.9036999998093,6,13,193,13,1,1.4,0.3,Time
,,580953,001,nv,22,2025-06-04_13h36.57.566,Serial_Dependence_U,2023.2.3,Win32,59.52380952364454,,,,,,1969.9048000001908,193,6,1969.9051999998092,193,,,,1973.501300000191,1973.9930999999046,1972.9879000000956,1973.5011999998092,1970.9063000001906,1972.987599999905,1973.9930999999046,1974.4935999999047,1974.4936999998095,1975.8866999998095,1035,1975.8870999999049,3,1975.9150999999047,6,14,194,11,1,1,0.3,Time
,,580953,001,nv,22,2025-06-04_13h36.57.566,Serial_Dependence_U,2023.2.3,Win32,59.52380952364454,,,,,,1975.9160000000002,300,6,1975.9163000001909,300,,,,1980.0679000000955,1980.559800000191,1979.5615999999045,1980.0676999998095,1976.9179000000954,1979.5613000001908,1980.559800000191,1981.06,1981.0601999998094,1983.069,1267,1983.0694000000954,2,1983.0938000001906,6,15,195,9,1,1.6,0.7,Time
,,580953,001,nv,22,2025-06-04_13h36.57.566,Serial_Dependence_U,2023.2.3,Win32,59.52380952364454,,,,,,1983.0945000000002,139,6,1983.0948000001908,139,,,,1986.9010999999045,1987.3934000000954,1986.3890000000001,1986.9008000001909,1984.1083000001909,1986.3886999998094,1987.3935000000001,1987.8930999999047,1987.8930999999047,1989.6675,1329,1989.6680999999048,4,1989.696,6,16,196,12,1,1.2,0.3,Time
,,580953,001,nv,22,2025-06-04_13h36.57.566,Serial_Dependence_U,2023.2.3,Win32,59.52380952364454,,,,,,1989.6969000000954,65,6,1989.6971999998095,65,,,,1993.0890999999046,1993.5929999999998,1992.5799000000952,1993.0889000000952,1990.7130000000002,1992.5795999999045,1993.5930999999046,1994.092800000191,1994.0929000000956,1995.405800000191,766,1995.4060999999047,3,1995.430300000191,6,17,197,20,1,0.8,0.3,Time
,,580953,001,nv,22,2025-06-04_13h36.57.566,Serial_Dependence_U,2023.2.3,Win32,59.52380952364454,,,,,,1995.431,338,6,1995.4314000000954,338,,,,1999.0341999998095,1999.5265999999046,1998.5131999998093,1999.034,1996.4394000000952,1998.512800000191,1999.5265999999046,2000.0259999999998,2000.0260999999045,2001.2886999998095,917,2001.2890999999045,2,2001.313800000191,6,18,198,21,1,1,0.3,Time
,,580953,001,nv,22,2025-06-04_13h36.57.566,Serial_Dependence_U,2023.2.3,Win32,59.52380952364454,,,,,,2001.3145,248,6,2001.3146999998094,248,,,,2005.2865000000002,2005.776300000191,2004.7818000001907,2005.2863000001907,2002.3110999999049,2004.7815,2005.7764000000952,2006.2753000001908,2006.2753000001908,2007.954800000191,1314,2007.9553000001906,2,2007.9836999998092,6,19,199,3,1,1.4,0.3,Time
,,580953,001,nv,22,2025-06-04_13h36.57.566,Serial_Dependence_U,2023.2.3,Win32,59.52380952364454,,,,,,2007.9845,154,6,2007.9846999998094,154,,,,2011.9831999998091,2012.4755,2011.4673000001908,2011.9830000000002,2008.9860999999046,2011.467,2012.4755999999047,2012.9756999998094,2012.9758000001907,2014.5840999999045,1241,2014.5845,2,2014.6126999998091,6,20,200,23,1,1.4,0.3,Time
,,580953,001,nv,22,2025-06-04_13h36.57.566,Serial_Dependence_U,2023.2.3,Win32,59.52380952364454,,,,,,2014.6135,128,6,2014.6139000000953,128,,,,2017.9974000000952,2018.4921999998091,2017.4720000000002,2017.9970999999045,2015.6173000001909,2017.4715999999048,2018.4921999998091,2018.9926999998092,2018.992800000191,2020.8829000000956,1246,2020.883300000191,5,2020.9135,6,21,201,15,1,0.8,0.7,Time
,,580953,001,nv,22,2025-06-04_13h36.57.566,Serial_Dependence_U,2023.2.3,Win32,59.52380952364454,,,,,,2020.914300000191,126,6,2020.9146999998093,126,,,,2024.4679999999998,2024.9589999999998,2023.9641999998094,2024.4679000000956,2021.9225000000001,2023.964,2024.9589999999998,2025.4589999999998,2025.4590999999045,2027.118,1302,2027.1184000000953,5,2027.146099999905,6,22,202,26,1,1,0.7,Time
,,580953,001,nv,22,2025-06-04_13h36.57.566,Serial_Dependence_U,2023.2.3,Win32,59.52380952364454,,,,,,2027.1469000000952,247,6,2027.1473000001906,247,,,,2030.9450999999049,2031.4425999999048,2030.4341999998092,2030.9449000000955,2028.1565,2030.434099999905,2031.4426999998095,2031.9423000001907,2031.9423000001907,2033.5529000000956,1158,2033.5531999998093,3,2033.5668000001906,6,23,203,2,1,1.2,0.3,Time
,,580953,001,nv,22,2025-06-04_13h36.57.566,Serial_Dependence_U,2023.2.3,Win32,59.52380952364454,,,,,,2033.5671999998094,48,6,2033.5674000000954,48,,,,2037.7466999998092,2038.2423000001909,2037.2316999998093,2037.7464000000955,2034.5629000000954,2037.2314999999999,2038.2424000000956,2038.7325,2038.7326999998095,2040.6869000000952,1541,2040.6873000001906,3,2040.7150000000001,6,24,204,24,1,1.6,0.3,Time
,,580953,001,nv,22,2025-06-04_13h36.57.566,Serial_Dependence_U,2023.2.3,Win32,59.52380952364454,,,,,,2040.7159000000956,142,6,2040.7160999999046,142,,,,2044.8866999998095,2045.3745,2044.3705999999047,2044.8865,2041.723,2044.3701999998093,2045.3745999999046,2045.8755,2045.8755999999048,2047.9400999999048,1736,2047.9405000000002,4,2047.9689000000953,6,25,205,19,1,1.6,0.7,Time
,,580953,001,nv,22,2025-06-04_13h36.57.566,Serial_Dependence_U,2023.2.3,Win32,59.52380952364454,,,,,,2047.969699999809,72,6,2047.9700999999045,72,,,,2051.7165,2052.208699999809,2051.2073000001906,2051.7164000000953,2048.9699000000955,2051.2069000000956,2052.208800000191,2052.7084000000955,2052.7085,2054.5853000001907,1543,2054.5855,4,2054.5981999998094,6,26,206,7,1,1.2,0.7,Time
,,580953,001,nv,22,2025-06-04_13h36.57.566,Serial_Dependence_U,2023.2.3,Win32,59.52380952364454,,,,,,2054.5986999998095,142,6,2054.5988000001907,142,,,,2058.2026999998093,2058.6918000001906,2057.686699999809,2058.2025,2055.6091999998093,2057.6865000000003,2058.6919000000953,2059.1918000001906,2059.1919000000953,2073.3415,685,2073.3419000000954,1,2073.369199999809,6,27,207,1,1,1,0.3,Time
,,580953,001,nv,22,2025-06-04_13h36.57.566,Serial_Dependence_U,2023.2.3,Win32,59.52380952364454,,,,,,2073.37,144,6,2073.3703000001906,144,,,,2077.1228000001906,2077.6251999998094,2076.616599999905,2077.1225999999047,2074.3658000001906,2076.6164000000954,2077.6251999998094,2078.1248000001906,2078.1249000000953,2079.6780999999046,1149,2079.6785,3,2079.704,6,28,208,17,1,1.2,0.7,Time
,,580953,001,nv,22,2025-06-04_13h36.57.566,Serial_Dependence_U,2023.2.3,Win32,59.52380952364454,,,,,,2079.7046999998092,359,6,2079.704900000095,359,,,,2083.907099999905,2084.407099999905,2083.395599999905,2083.9069000000954,2080.7244000000956,2083.3953000001907,2084.407099999905,2084.9081999998093,2084.9083000001906,2086.9493000001908,1618,2086.949699999809,3,2086.978,6,29,209,14,1,1.6,0.3,Time
,,580953,001,nv,22,2025-06-04_13h36.57.566,Serial_Dependence_U,2023.2.3,Win32,59.52380952364454,,,,,,2086.978699999809,318,7,2088.5914000000953,318,s,1.5838000001908767,,2092.7689000000955,2093.2579000000956,2092.243,2092.7685,2089.5925,2092.2426999998092,2093.2579000000956,2093.757800000191,2093.757800000191,2095.9144000000956,1659,2095.915,3,2095.9441999998094,7,0,210,29,1,1.6,0.7,Time
,,580953,001,nv,22,2025-06-04_13h36.57.566,Serial_Dependence_U,2023.2.3,Win32,59.52380952364454,,,,,,2095.945199999809,4,7,2095.949699999809,4,,,,2100.148699999809,2100.641099999905,2099.634599999905,2100.1485000000002,2096.9604000000954,2099.6343000001907,2100.641099999905,2101.1411999998095,2101.1413000001908,2102.7996999998095,1337,2102.8,2,2102.8103000001906,7,1,211,4,1,1.6,0.3,Time
,,580953,001,nv,22,2025-06-04_13h36.57.566,Serial_Dependence_U,2023.2.3,Win32,59.52380952364454,,,,,,2102.8106999998095,119,7,2102.8108000001907,119,,,,2106.7695,2107.2575,2106.2676999998093,2106.7694000000956,2103.8193000001907,2106.267400000095,2107.257699999809,2107.757599999905,2107.757599999905,2108.353599999905,91,2108.3540000000003,1,2108.3740999999045,7,2,212,8,1,1.4,0.7,Time
,,580953,001,nv,22,2025-06-04_13h36.57.566,Serial_Dependence_U,2023.2.3,Win32,59.52380952364454,,,,,,2108.3745999999046,224,7,2108.3746999998093,224,,,,2111.7555,2112.2575,2111.248,2111.7551999998095,2109.380800000191,2111.2476999998094,2112.2575,2112.7574000000955,2112.7575,2113.8785999999045,766,2113.878900000095,3,2113.9035,7,3,213,20,1,0.8,0.3,Time
,,580953,001,nv,22,2025-06-04_13h36.57.566,Serial_Dependence_U,2023.2.3,Win32,59.52380952364454,,,,,,2113.9041999998094,60,7,2113.9045,60,,,,2117.8568000001906,2118.3570999999047,2117.3545999999046,2117.8565999999046,2114.920699999809,2117.354199999809,2118.3570999999047,2118.8574000000954,2118.8574000000954,2121.4640999999046,1073,2121.4644000000953,2,2121.489599999905,7,4,214,18,1,1.4,0.7,Time
,,580953,001,nv,22,2025-06-04_13h36.57.566,Serial_Dependence_U,2023.2.3,Win32,59.52380952364454,,,,,,2121.4904000000956,201,7,2121.4906999998093,201,,,,2124.8515999999045,2125.347199999809,2124.342800000191,2124.8514000000955,2122.5034000000956,2124.342599999905,2125.347199999809,2125.847800000191,2125.8479000000953,2127.4240999999047,1126,2127.424599999905,5,2127.4491999998095,7,5,215,5,1,0.8,0.7,Time
,,580953,001,nv,22,2025-06-04_13h36.57.566,Serial_Dependence_U,2023.2.3,Win32,59.52380952364454,,,,,,2127.449800000191,94,7,2127.4500999999045,94,,,,2131.6319000000954,2132.123699999809,2131.113,2131.6316999998094,2128.4443000001907,2131.112699999809,2132.123699999809,2132.6230999999048,2132.6230999999048,2134.2569000000954,1164,2134.2571999998095,2,2134.2844000000955,7,6,216,14,1,1.6,0.3,Time
,,580953,001,nv,22,2025-06-04_13h36.57.566,Serial_Dependence_U,2023.2.3,Win32,59.52380952364454,,,,,,2134.2851999998093,200,7,2134.2855,200,,,,2138.4758000001907,2138.9734000000954,2137.9713000001907,2138.4755999999047,2135.2931999998095,2137.9709000000953,2138.9734000000954,2139.4774000000953,2139.4775,2142.7501999998094,1072,2142.750599999905,1,2142.7799000000955,7,7,217,24,1,1.6,0.3,Time
,,580953,001,nv,22,2025-06-04_13h36.57.566,Serial_Dependence_U,2023.2.3,Win32,59.52380952364454,,,,,,2142.7806999998093,142,7,2142.781,142,,,,2146.550800000191,2147.0448000001907,2146.049599999905,2146.5505999999045,2143.7845999999045,2146.0493000001907,2147.0449000000954,2147.539300000191,2147.5394000000956,2148.2903000001907,412,2148.2906999998095,1,2148.3185,7,8,218,2,1,1.2,0.3,Time
,,580953,001,nv,22,2025-06-04_13h36.57.566,Serial_Dependence_U,2023.2.3,Win32,59.52380952364454,,,,,,2148.3191999998094,310,7,2148.3195,310,,,,2152.0736999998094,2152.5735,2151.5654000000955,2152.0735,2149.3251999998092,2151.565,2152.5735,2153.0734000000953,2153.0735,2154.6703000001908,1158,2154.6705,3,2154.696,7,9,219,7,1,1.2,0.7,Time
,,580953,001,nv,22,2025-06-04_13h36.57.566,Serial_Dependence_U,2023.2.3,Win32,59.52380952364454,,,,,,2154.6966999998094,213,7,2154.697,213,,,,2158.054599999905,2158.5579000000953,2157.538599999905,2158.0544000000955,2155.7008000001906,2157.5383000001907,2158.5579000000953,2159.056599999905,2159.056599999905,2160.349099999905,975,2160.3495000000003,4,2160.3805,7,10,220,15,1,0.8,0.7,Time
,,580953,001,nv,22,2025-06-04_13h36.57.566,Serial_Dependence_U,2023.2.3,Win32,59.52380952364454,,,,,,2160.3815,195,7,2160.3819000000954,195,,,,2164.3360999999045,2164.84,2163.8263000001907,2164.3360000000002,2161.3784000000956,2163.8260999999047,2164.84,2165.3395999999047,2165.3395999999047,2166.9999000000953,1328,2167.0001999998094,2,2167.0240999999046,7,11,221,28,1,1.4,0.7,Time
,,580953,001,nv,22,2025-06-04_13h36.57.566,Serial_Dependence_U,2023.2.3,Win32,59.52380952364454,,,,,,2167.0248000001907,241,7,2167.025099999905,241,,,,2171.008400000095,2171.5059000000956,2170.4891999998094,2171.008300000191,2168.0228000001907,2170.4888000001906,2171.5059000000956,2172.0065,2172.0065999999047,2173.4320000000002,1102,2173.4324000000956,2,2173.4575,7,12,222,3,1,1.4,0.3,Time
,,580953,001,nv,22,2025-06-04_13h36.57.566,Serial_Dependence_U,2023.2.3,Win32,59.52380952364454,,,,,,2173.4581999998095,194,7,2173.4584000000955,194,,,,2177.4429000000955,2177.939,2176.929,2177.4426999998095,2174.4640999999046,2176.9285999999047,2177.939,2178.4395999999047,2178.4396999998094,2179.8953000001907,1121,2179.8956999998095,2,2179.9234000000956,7,13,223,23,1,1.4,0.3,Time
,,580953,001,nv,22,2025-06-04_13h36.57.566,Serial_Dependence_U,2023.2.3,Win32,59.52380952364454,,,,,,2179.9241999998094,74,7,2179.9245,74,,,,2183.3129000000954,2183.805300000191,2182.8106999998095,2183.3126999998094,2180.9371999998093,2182.8104000000953,2183.805300000191,2184.306,2184.3060999999047,2185.4661999998093,841,2185.4665999999047,4,2185.494300000191,7,14,224,0,1,0.8,0.3,Time
,,580953,001,nv,22,2025-06-04_13h36.57.566,Serial_Dependence_U,2023.2.3,Win32,59.52380952364454,,,,,,2185.4950999999046,313,7,2185.4954000000953,313,,,,2189.497300000191,2189.9893000001907,2188.98,2189.4971999998093,2186.4974000000952,2188.9795999999046,2189.9893000001907,2190.4891999998094,2190.4891999998094,2191.949699999809,1129,2191.9500999999045,2,2191.9790999999045,7,15,225,13,1,1.4,0.3,Time
,,580953,001,nv,22,2025-06-04_13h36.57.566,Serial_Dependence_U,2023.2.3,Win32,59.52380952364454,,,,,,2191.9799000000953,142,7,2191.9803000001907,142,,,,2195.5639000000956,2196.0558000001906,2195.0514000000953,2195.563699999809,2192.992199999809,2195.051,2196.0559000000953,2196.5559000000953,2196.5559000000953,2198.1295,1238,2198.13,4,2198.1581999998093,7,16,226,6,1,1,0.7,Time
,,580953,001,nv,22,2025-06-04_13h36.57.566,Serial_Dependence_U,2023.2.3,Win32,59.52380952364454,,,,,,2198.159099999905,176,7,2198.1594000000955,176,,,,2201.9191999998093,2202.4225,2201.414199999809,2201.919,2199.1691999998093,2201.4140999999045,2202.4225,2202.9225,2202.922599999905,2204.5495,1383,2204.5496999998095,4,2204.561699999809,7,17,227,17,1,1.2,0.7,Time
,,580953,001,nv,22,2025-06-04_13h36.57.566,Serial_Dependence_U,2023.2.3,Win32,59.52380952364454,,,,,,2204.562,133,7,2204.5620999999046,133,,,,2208.113300000191,2208.6054000000954,2207.6073000001907,2208.1131999998092,2205.5674000000954,2207.6070999999047,2208.6055,2209.1053000001907,2209.1054000000954,2210.5065,1073,2210.5066999998094,4,2210.5184000000954,7,18,228,26,1,1,0.7,Time
,,580953,001,nv,22,2025-06-04_13h36.57.566,Serial_Dependence_U,2023.2.3,Win32,59.52380952364454,,,,,,2210.518800000191,53,7,2210.5189000000955,53,,,,2214.0645999999047,2214.5556999998093,2213.5635,2214.0645,2211.5254000000955,2213.5634000000955,2214.5556999998093,2215.0555,2215.0556999998093,2216.4643000001906,1042,2216.4645,3,2216.474199999809,7,19,229,16,1,1,0.7,Time
,,580953,001,nv,22,2025-06-04_13h36.57.566,Serial_Dependence_U,2023.2.3,Win32,59.52380952364454,,,,,,2216.4745999999045,24,7,2216.474800000191,24,,,,2219.876800000191,2220.3724000000952,2219.3725,2219.8765999999046,2217.4935999999047,2219.3724000000952,2220.3724000000952,2220.8724000000952,2220.8725999999047,2222.1619000000956,1017,2222.162300000191,4,2222.1915,7,20,230,10,1,0.8,0.3,Time
,,580953,001,nv,22,2025-06-04_13h36.57.566,Serial_Dependence_U,2023.2.3,Win32,59.52380952364454,,,,,,2222.1923000001907,157,7,2222.192599999905,157,,,,2225.5645,2226.055300000191,2225.06,2225.564300000191,2223.2058000001907,2225.0595999999045,2226.055300000191,2226.5554000000952,2226.5554000000952,2245.0479000000955,826,2245.048300000191,3,2245.077300000191,7,21,231,25,1,0.8,0.7,Time
,,580953,001,nv,22,2025-06-04_13h36.57.566,Serial_Dependence_U,2023.2.3,Win32,59.52380952364454,,,,,,2245.0780999999047,5,7,2245.0784000000954,5,,,,2248.885,2249.3876999998092,2248.3824000000955,2248.884800000191,2246.0970999999045,2248.3820999999048,2249.3876999998092,2249.887900000095,2249.888,2251.0061999998093,744,2251.0066999998094,1,2251.034699999809,7,22,232,12,1,1.2,0.3,Time
,,580953,001,nv,22,2025-06-04_13h36.57.566,Serial_Dependence_U,2023.2.3,Win32,59.52380952364454,,,,,,2251.0355,213,7,2251.0358000001906,213,,,,2254.8376999998095,2255.3379000000955,2254.3231999998093,2254.8374000000954,2252.0559000000953,2254.3229000000956,2255.3379000000955,2255.8376999998095,2255.8376999998095,2257.361,1039,2257.3613000001906,2,2257.3883000001906,7,23,233,22,1,1.2,0.3,Time
,,580953,001,nv,22,2025-06-04_13h36.57.566,Serial_Dependence_U,2023.2.3,Win32,59.52380952364454,,,,,,2257.389,282,7,2257.389300000191,282,,,,2260.9776999998094,2261.4705,2260.471599999905,2260.9775999999047,2258.395800000191,2260.4713000001907,2261.4705,2261.9713000001907,2261.9714000000954,2263.3035999999047,995,2263.304,3,2263.331099999905,7,24,234,21,1,1,0.3,Time
,,580953,001,nv,22,2025-06-04_13h36.57.566,Serial_Dependence_U,2023.2.3,Win32,59.52380952364454,,,,,,2263.331800000191,188,7,2263.3320999999046,188,,,,2266.9236999998093,2267.4204000000955,2266.4099000000956,2266.9235,2264.3438000001906,2266.409699999809,2267.4204000000955,2267.9210999999045,2267.9211999998092,2269.362099999905,1054,2269.3625,4,2269.39,7,25,235,1,1,1,0.3,Time
,,580953,001,nv,22,2025-06-04_13h36.57.566,Serial_Dependence_U,2023.2.3,Win32,59.52380952364454,,,,,,2269.3908000001907,71,7,2269.391099999905,71,,,,2272.976300000191,2273.470199999809,2272.4705999999046,2272.976,2270.3939000000955,2272.470300000191,2273.470199999809,2273.971,2273.9710999999047,2276.9151999998094,1238,2276.9154000000954,4,2276.931599999905,7,26,236,11,1,1,0.3,Time
,,580953,001,nv,22,2025-06-04_13h36.57.566,Serial_Dependence_U,2023.2.3,Win32,59.52380952364454,,,,,,2276.9320000000002,263,7,2276.932199999809,263,,,,2281.0935999999047,2281.5873000001907,2280.5764000000954,2281.0934000000952,2277.923300000191,2280.576,2281.5874000000954,2282.0874000000954,2282.0874000000954,2300.733800000191,1488,2300.7344000000953,2,2300.762199999809,7,27,237,9,1,1.6,0.7,Time
,,580953,001,nv,22,2025-06-04_13h36.57.566,Serial_Dependence_U,2023.2.3,Win32,59.52380952364454,,,,,,2300.763,120,7,2300.7633000001906,120,,,,2304.5159000000954,2305.003900000095,2303.9980999999048,2304.5156999998094,2301.764300000191,2303.9979000000953,2305.004,2305.503800000191,2305.503900000095,2307.2015,1215,2307.2019000000955,3,2307.226800000191,7,28,238,27,1,1.2,0.7,Time
,,580953,001,nv,22,2025-06-04_13h36.57.566,Serial_Dependence_U,2023.2.3,Win32,59.52380952364454,,,,,,2307.2275,43,7,2307.2278000001907,43,,,,2311.403300000191,2311.9040999999047,2310.8841999998094,2311.4030999999045,2308.233900000095,2310.884,2311.9040999999047,2312.4029000000955,2312.4029000000955,2315.7625999999045,1436,2315.7626999998092,2,2315.773199999809,7,29,239,19,1,1.6,0.7,Time
,,580953,001,nv,22,2025-06-04_13h36.57.566,Serial_Dependence_U,2023.2.3,Win32,59.52380952364454,,,,,,2315.7734000000955,356,8,2317.6653000001907,356,s,1.8785999999049636,,2321.2309000000955,2321.726,2320.7253000001906,2321.2306999998095,2318.655099999905,2320.724900000095,2321.726099999905,2322.2200999999045,2322.220199999809,2324.3260999999047,1387,2324.3265,5,2324.3270999999045,8,0,240,11,1,1,0.3,Time
,,580953,001,nv,22,2025-06-04_13h36.57.566,Serial_Dependence_U,2023.2.3,Win32,59.52380952364454,,,,,,2324.3276999998093,75,8,2324.3309000000954,75,,,,2328.4865,2328.9868000001907,2327.977300000191,2328.4863000001906,2325.331300000191,2327.9770999999046,2328.9868000001907,2329.4868000001907,2329.4868000001907,2332.081,2072,2332.081300000191,4,2332.108099999905,8,1,241,19,1,1.6,0.7,Time
,,580953,001,nv,22,2025-06-04_13h36.57.566,Serial_Dependence_U,2023.2.3,Win32,59.52380952364454,,,,,,2332.108800000191,237,8,2332.1090999999046,237,,,,2336.2896999998093,2336.786,2335.7804000000956,2336.2895,2333.1150999999045,2335.780099999905,2336.786,2337.277,2337.2770999999047,2338.0899000000954,153,2338.0905999999045,1,2338.1209000000954,8,2,242,14,1,1.6,0.3,Time
,,580953,001,nv,22,2025-06-04_13h36.57.566,Serial_Dependence_U,2023.2.3,Win32,59.52380952364454,,,,,,2338.121800000191,241,8,2338.1220999999045,241,,,,2342.1019000000956,2342.6021999998093,2341.5950000000003,2342.101699999809,2339.1275999999048,2341.594800000191,2342.6021999998093,2343.1031999998095,2343.1033000001908,2344.3753000001907,420,2344.375599999905,1,2344.400800000191,8,3,243,23,1,1.4,0.3,Time
,,580953,001,nv,22,2025-06-04_13h36.57.566,Serial_Dependence_U,2023.2.3,Win32,59.52380952364454,,,,,,2344.4015,195,8,2344.4019000000953,195,,,,2347.811900000095,2348.302699999809,2347.2975,2347.811800000191,2345.4235,2347.2971999998094,2348.302699999809,2348.8024000000955,2348.8024000000955,2350.2580000000003,1095,2350.258400000095,5,2350.2855999999047,8,4,244,20,1,0.8,0.3,Time
,,580953,001,nv,22,2025-06-04_13h36.57.566,Serial_Dependence_U,2023.2.3,Win32,59.52380952364454,,,,,,2350.2864000000955,268,8,2350.286699999809,268,,,,2353.8885999999047,2354.3861999998094,2353.3749000000953,2353.8883000001906,2351.3014000000953,2353.3745999999046,2354.3863000001907,2354.8856999998093,2354.8856999998093,2356.6021999998093,619,2356.6026999998094,1,2356.6309000000956,8,5,245,21,1,1,0.3,Time
,,580953,001,nv,22,2025-06-04_13h36.57.566,Serial_Dependence_U,2023.2.3,Win32,59.52380952364454,,,,,,2356.6318000001907,10,8,2356.632,10,,,,2360.607599999905,2361.1020999999046,2360.1008000001907,2360.6074000000954,2357.6445,2360.1005,2361.1020999999046,2361.6101999998095,2361.610300000191,2362.6376999998092,598,2362.6380999999046,1,2362.6659000000955,8,6,246,18,1,1.4,0.7,Time
,,580953,001,nv,22,2025-06-04_13h36.57.566,Serial_Dependence_U,2023.2.3,Win32,59.52380952364454,,,,,,2362.666699999809,232,8,2362.667,232,,,,2366.4449000000955,2366.9356999998095,2365.938800000191,2366.4445999999048,2363.6704000000955,2365.9385,2366.9358000001907,2367.436199999809,2367.436300000191,2370.8058000001906,783,2370.8063000001907,1,2370.8348000001906,8,7,247,22,1,1.2,0.3,Time
,,580953,001,nv,22,2025-06-04_13h36.57.566,Serial_Dependence_U,2023.2.3,Win32,59.52380952364454,,,,,,2370.835699999809,136,8,2370.8360000000002,136,,,,2374.59,2375.085699999809,2374.085599999905,2374.5898000001907,2371.8486999998095,2374.0853000001907,2375.085699999809,2375.5851999998094,2375.5851999998094,2377.257699999809,458,2377.2580999999045,1,2377.2851999998093,8,8,248,17,1,1.2,0.7,Time
