Scale_setup.started,Scale_setup.stopped,participant,session,sex,age,date,expName,psychopyVersion,OS,frameRate,Intro.started,Intro.stopped,key_resp_2.keys,key_resp_2.rt,key_resp_2.duration,block.started,direction,Block_id,block.stopped,trial_direction,Block_resp_2.keys,Block_resp_2.rt,Block_resp_2.duration,ITI.started,ITI.stopped,Mask_2.started,Mask_2.stopped,encoding.started,encoding.stopped,Cue.started,Cue.stopped,Response.started,Response.stopped,keyDuration,Feedback_Time.started,FeedbackID_T,Feedback_Time.stopped,trials.thisRepN,trials.thisTrialN,trials.thisN,trials.thisIndex,trials.ran,TimeDur,Coherence1,TrialType
0.00039999999851048074,0.0008999999985128682,614807,001,female,23,2025-06-02_20h40.11.892,Serial_Dependence_U,2023.2.3,Win32,58.8235294117647,,,,,,,,,,,,,,,,,,,,,,,,,,,,,,,,,,,
,,614807,001,female,23,2025-06-02_20h40.11.892,Serial_Dependence_U,2023.2.3,Win32,58.8235294117647,28.18209999999404,337.94709999999407,space,309.733200000003,,,,,,,,,,,,,,,,,,,,,,,,,,,,,,,
,,614807,001,female,23,2025-06-02_20h40.11.892,Serial_Dependence_U,2023.2.3,Win32,58.8235294117647,,,,,,337.9667999999971,58,0,342.49729999999704,58,s,4.489999999999952,,346.4805,346.98139999999853,345.96389999999855,346.48039999999855,343.5160999999941,345.9636999999956,346.98159999999405,347.48150000000004,347.482,355.165,262,355.16519999999554,1,356.1643999999985,0,0,0,28,1,1.4,0.7,Time
,,614807,001,female,23,2025-06-02_20h40.11.892,Serial_Dependence_U,2023.2.3,Win32,58.8235294117647,,,,,,356.1645999999941,148,0,356.16619999999557,148,,,,359.966,360.466,359.4585999999941,359.96579999999705,357.18179999999705,359.4585999999941,360.4661999999956,360.96519999999555,360.96539999999857,364.66650000000004,206,364.66679999999707,1,365.66539999999856,0,1,1,2,1,1.2,0.3,Time
,,614807,001,female,23,2025-06-02_20h40.11.892,Serial_Dependence_U,2023.2.3,Win32,58.8235294117647,,,,,,365.66579999999703,292,0,365.66600000000005,292,,,,369.65000000000003,370.1505999999941,369.14239999999853,369.6498999999985,366.66729999999706,369.1422999999971,370.15069999999554,370.6505,370.6505,376.3,249,376.3000999999941,1,377.30089999999853,0,2,2,3,1,1.4,0.3,Time
,,614807,001,female,23,2025-06-02_20h40.11.892,Serial_Dependence_U,2023.2.3,Win32,58.8235294117647,,,,,,377.30189999999857,183,0,377.30219999999554,183,,,,381.47659999999405,381.96839999999855,380.96750000000003,381.47650000000004,378.3007999999971,380.96750000000003,381.96850000000006,382.468,382.4680999999941,386.7685,271,386.7686999999956,1,387.7691999999956,0,3,3,14,1,1.6,0.3,Time
,,614807,001,female,23,2025-06-02_20h40.11.892,Serial_Dependence_U,2023.2.3,Win32,58.8235294117647,,,,,,387.77000000000004,308,0,387.77029999999706,308,,,,391.5462999999971,392.0355999999941,391.0191999999956,391.5462999999971,388.78450000000004,391.01909999999407,392.03579999999704,392.5350999999941,392.53519999999554,525.489799999997,543,525.4898999999984,1,526.4825999999939,0,4,4,7,1,1.2,0.7,Time
,,614807,001,female,23,2025-06-02_20h40.11.892,Serial_Dependence_U,2023.2.3,Win32,58.8235294117647,,,,,,526.4834999999999,200,0,526.4838999999985,200,,,,530.0424999999999,530.5393999999984,529.5408999999985,530.0422999999969,527.5081999999954,529.5407999999969,530.5395999999939,531.032799999997,531.032799999997,534.2745999999939,244,534.2746999999955,1,535.266,0,5,5,6,1,1,0.7,Time
,,614807,001,female,23,2025-06-02_20h40.11.892,Serial_Dependence_U,2023.2.3,Win32,58.8235294117647,,,,,,535.2666999999955,329,0,535.2671999999955,329,,,,539.0093999999984,539.5065999999939,538.5003999999984,539.009299999997,536.2660999999939,538.500099999994,539.5065999999939,539.9993999999984,539.9993999999984,541.5661999999954,189,541.5662999999969,1,542.5681999999955,0,6,6,27,1,1.2,0.7,Time
,,614807,001,female,23,2025-06-02_20h40.11.892,Serial_Dependence_U,2023.2.3,Win32,58.8235294117647,,,,,,542.5691999999955,104,0,542.5696999999955,104,,,,545.9503999999985,546.4403999999985,545.442099999994,545.9502999999969,543.5680999999939,545.4419999999999,546.4403999999985,546.934,546.9340999999939,549.0447999999969,193,549.045,1,550.0338999999984,0,7,7,0,1,0.8,0.3,Time
,,614807,001,female,23,2025-06-02_20h40.11.892,Serial_Dependence_U,2023.2.3,Win32,58.8235294117647,,,,,,550.034299999997,342,0,550.0344999999999,342,,,,553.8178999999984,554.3251999999954,553.311799999997,553.817799999997,551.0373999999985,553.3116999999954,554.3251999999954,554.8254999999999,554.8254999999999,559.6607999999969,214,559.6608999999984,1,560.6612999999969,0,8,8,22,1,1.2,0.3,Time
,,614807,001,female,23,2025-06-02_20h40.11.892,Serial_Dependence_U,2023.2.3,Win32,58.8235294117647,,,,,,560.662099999994,65,0,560.662599999994,65,,,,564.7958999999985,565.2863999999985,564.2950999999939,564.7957999999969,561.6606999999955,564.295,565.2863999999985,565.7853999999984,565.7855,605.397599999994,177,605.397599999994,1,606.3898999999984,0,9,9,9,1,1.6,0.7,Time
,,614807,001,female,23,2025-06-02_20h40.11.892,Serial_Dependence_U,2023.2.3,Win32,58.8235294117647,,,,,,606.3906999999955,292,0,606.391,292,,,,610.4069999999999,610.9066999999955,609.8989999999999,610.4067999999969,607.415,609.8988999999984,610.9066999999955,611.4146999999955,611.4146999999955,613.199,225,613.199,1,614.1511999999955,0,10,10,13,1,1.4,0.3,Time
,,614807,001,female,23,2025-06-02_20h40.11.892,Serial_Dependence_U,2023.2.3,Win32,58.8235294117647,,,,,,614.1519999999999,304,0,614.1522999999969,304,,,,617.508599999994,618.0079999999999,616.9922999999969,617.5082999999969,615.144099999994,616.992,618.0079999999999,618.5074999999999,618.5074999999999,619.5414999999999,1001,619.5416999999954,4,620.5409999999999,0,11,11,5,1,0.8,0.7,Time
,,614807,001,female,23,2025-06-02_20h40.11.892,Serial_Dependence_U,2023.2.3,Win32,58.8235294117647,,,,,,620.5417999999969,94,0,620.5421999999954,94,,,,624.3252999999969,624.824599999994,623.8085999999939,624.3251999999954,621.5418999999985,623.8084999999999,624.824599999994,625.325099999994,625.3251999999954,627.334,683,627.334099999994,1,628.3248999999985,0,12,12,12,1,1.2,0.3,Time
,,614807,001,female,23,2025-06-02_20h40.11.892,Serial_Dependence_U,2023.2.3,Win32,58.8235294117647,,,,,,628.3253999999985,336,0,628.325599999994,336,,,,632.3091999999955,632.8086999999955,631.7926999999954,632.3090999999939,629.325599999994,631.792599999994,632.8086999999955,633.3090999999939,633.3091999999955,730.4854999999999,1134,730.485599999994,2,731.4851999999954,0,13,13,23,1,1.4,0.3,Time
,,614807,001,female,23,2025-06-02_20h40.11.892,Serial_Dependence_U,2023.2.3,Win32,58.8235294117647,,,,,,731.4854999999999,268,0,731.4856999999954,268,,,,734.8526999999955,735.3525,734.344099999994,734.8525999999939,732.5023999999984,734.344099999994,735.3525,735.8525,735.8525,736.7693999999984,550,736.7693999999984,1,737.769099999994,0,14,14,25,1,0.8,0.7,Time
,,614807,001,female,23,2025-06-02_20h40.11.892,Serial_Dependence_U,2023.2.3,Win32,58.8235294117647,,,,,,737.7694999999999,140,0,737.7695999999939,140,,,,741.1701999999955,741.6695999999939,740.653099999994,741.1700999999939,738.786599999994,740.653099999994,741.6695999999939,742.1697999999969,742.1698999999984,743.8036999999955,1317,743.803799999997,5,744.8035999999939,0,15,15,20,1,0.8,0.3,Time
,,614807,001,female,23,2025-06-02_20h40.11.892,Serial_Dependence_U,2023.2.3,Win32,58.8235294117647,,,,,,744.8041999999955,229,0,744.8043999999984,229,,,,748.4043999999984,748.903599999994,747.887599999994,748.4041999999954,745.8204999999999,747.8873999999985,748.903599999994,749.4038999999984,749.4038999999984,751.8874999999999,1865,751.8874999999999,5,752.8872999999969,0,16,16,21,1,1,0.3,Time
,,614807,001,female,23,2025-06-02_20h40.11.892,Serial_Dependence_U,2023.2.3,Win32,58.8235294117647,,,,,,752.887599999994,347,0,752.8876999999954,347,,,,756.4380999999939,756.937799999997,755.9216999999954,756.4379999999999,753.8876999999954,755.921599999994,756.9378999999984,757.4380999999939,757.4380999999939,760.6885,3051,760.6885999999939,5,761.6885,0,17,17,26,1,1,0.7,Time
,,614807,001,female,23,2025-06-02_20h40.11.892,Serial_Dependence_U,2023.2.3,Win32,58.8235294117647,,,,,,761.6888999999984,290,0,761.689,290,,,,765.8891999999954,766.388799999997,765.3726999999955,765.889099999994,762.7051999999954,765.372599999994,766.388799999997,766.8888999999984,766.8889999999999,769.5226999999954,2314,769.5227999999969,5,770.5228999999985,0,18,18,24,1,1.6,0.3,Time
,,614807,001,female,23,2025-06-02_20h40.11.892,Serial_Dependence_U,2023.2.3,Win32,58.8235294117647,,,,,,770.523299999997,359,0,770.5234999999999,359,,,,773.8818999999984,774.381,773.373099999994,773.8816999999955,771.5398999999984,773.3729999999999,774.381,774.8808999999984,774.881,806.384599999994,982,806.384599999994,4,807.376299999997,0,19,19,15,1,0.8,0.7,Time
,,614807,001,female,23,2025-06-02_20h40.11.892,Serial_Dependence_U,2023.2.3,Win32,58.8235294117647,,,,,,807.3767999999969,27,0,807.3768999999984,27,,,,811.3271999999954,811.826599999994,810.8138999999984,811.327099999994,808.3778999999985,810.8136999999955,811.826599999994,812.3264999999999,812.326599999994,813.8599999999999,1131,813.860099999994,2,814.860799999997,0,20,20,8,1,1.4,0.7,Time
,,614807,001,female,23,2025-06-02_20h40.11.892,Serial_Dependence_U,2023.2.3,Win32,58.8235294117647,,,,,,814.861299999997,9,0,814.8615999999939,9,,,,818.260799999997,818.7604999999999,817.7451999999954,818.2606999999955,815.8776999999955,817.7449999999999,818.7604999999999,819.2611999999955,819.2611999999955,822.4443999999984,2004,822.4443999999984,5,823.4443999999984,0,21,21,10,1,0.8,0.3,Time
,,614807,001,female,23,2025-06-02_20h40.11.892,Serial_Dependence_U,2023.2.3,Win32,58.8235294117647,,,,,,823.4446999999955,41,0,823.4447999999969,41,,,,827.4116999999954,827.9113999999985,826.8956999999955,827.411599999994,824.463,826.8955999999939,827.9114999999999,828.4114999999999,828.4114999999999,829.6450999999939,902,829.6451999999955,1,830.6449999999999,0,22,22,18,1,1.4,0.7,Time
,,614807,001,female,23,2025-06-02_20h40.11.892,Serial_Dependence_U,2023.2.3,Win32,58.8235294117647,,,,,,830.645299999997,87,0,830.6455,87,,,,834.846799999997,835.3453999999984,834.331099999994,834.8466999999954,831.6621999999954,834.3309999999999,835.3453999999984,835.8458999999984,835.8458999999984,836.9625,585,836.9625,1,837.9636999999955,0,23,23,4,1,1.6,0.3,Time
,,614807,001,female,23,2025-06-02_20h40.11.892,Serial_Dependence_U,2023.2.3,Win32,58.8235294117647,,,,,,837.9644999999999,316,0,837.9647999999969,316,,,,841.5141999999954,842.0141999999954,841.0131999999954,841.5139999999999,838.9793999999985,841.013099999994,842.0141999999954,842.513099999994,842.513099999994,844.047099999994,1239,844.0471999999954,4,845.0466999999954,0,24,24,16,1,1,0.7,Time
,,614807,001,female,23,2025-06-02_20h40.11.892,Serial_Dependence_U,2023.2.3,Win32,58.8235294117647,,,,,,845.0469999999999,193,0,845.0471999999954,193,,,,849.2149999999999,849.713599999994,848.6976999999955,849.2148999999985,846.0640999999939,848.6975999999939,849.713599999994,850.2147999999969,850.2147999999969,852.2471999999955,1894,852.2472999999969,4,853.2488999999985,0,25,25,19,1,1.6,0.7,Time
,,614807,001,female,23,2025-06-02_20h40.11.892,Serial_Dependence_U,2023.2.3,Win32,58.8235294117647,,,,,,853.2496999999954,347,0,853.250099999994,347,,,,857.0148999999984,857.515299999997,856.499099999994,857.014799999997,854.2644999999999,856.4989999999999,857.515299999997,858.015299999997,858.015299999997,859.6332999999969,1548,859.6334999999999,4,860.6315999999939,0,26,26,17,1,1.2,0.7,Time
,,614807,001,female,23,2025-06-02_20h40.11.892,Serial_Dependence_U,2023.2.3,Win32,58.8235294117647,,,,,,860.632,74,0,860.632099999994,74,,,,864.215599999994,864.7163999999984,863.7006999999954,864.2154999999999,861.6333999999985,863.7004999999999,864.7163999999984,865.2156999999954,865.2156999999954,867.1156999999954,1334,867.1156999999954,5,868.1158999999984,0,27,27,1,1,1,0.3,Time
,,614807,001,female,23,2025-06-02_20h40.11.892,Serial_Dependence_U,2023.2.3,Win32,58.8235294117647,,,,,,868.116299999997,188,0,868.1165999999939,188,,,,871.716299999997,872.2164999999999,871.1997999999969,871.7161999999954,869.132599999994,871.1996999999955,872.2164999999999,872.716099999994,872.716099999994,875.3332999999969,1912,875.3332999999969,5,876.3349999999999,0,28,28,11,1,1,0.3,Time
,,614807,001,female,23,2025-06-02_20h40.11.892,Serial_Dependence_U,2023.2.3,Win32,58.8235294117647,,,,,,876.336099999994,144,0,876.336299999997,144,,,,880.502099999994,881.0003999999984,879.9849999999999,880.5018999999984,877.350799999997,879.984799999997,881.0003999999984,881.5005999999939,881.5005999999939,882.850299999997,1319,882.850299999997,2,883.8503999999984,0,29,29,29,1,1.6,0.7,Time
,,614807,001,female,23,2025-06-02_20h40.11.892,Serial_Dependence_U,2023.2.3,Win32,58.8235294117647,,,,,,883.850599999994,289,1,959.1413999999984,289,s,75.27429999999708,,962.7169999999999,963.216299999997,962.2004999999999,962.7168999999984,960.1593999999984,962.2003999999985,963.216299999997,963.716799999997,963.7169999999999,964.901099999994,583,964.901099999994,1,964.9012999999969,1,0,30,6,1,1,0.7,Time
,,614807,001,female,23,2025-06-02_20h40.11.892,Serial_Dependence_U,2023.2.3,Win32,58.8235294117647,,,,,,964.9014999999999,49,1,964.9023999999985,49,,,,968.8841999999954,969.384299999997,968.3699999999999,968.8841999999954,965.902599999994,968.369799999997,969.3843999999984,969.8834999999999,969.883599999994,972.6353999999984,1500,972.6353999999984,4,972.6355999999939,1,1,31,13,1,1.4,0.3,Time
,,614807,001,female,23,2025-06-02_20h40.11.892,Serial_Dependence_U,2023.2.3,Win32,58.8235294117647,,,,,,972.635799999997,153,1,972.6358999999984,153,,,,976.2356999999954,976.7336999999955,975.7206999999954,976.2356999999954,973.651599999994,975.720599999994,976.7336999999955,977.234099999994,977.2341999999954,980.269299999997,2200,980.2693999999984,5,980.2694999999999,1,2,32,1,1,1,0.3,Time
,,614807,001,female,23,2025-06-02_20h40.11.892,Serial_Dependence_U,2023.2.3,Win32,58.8235294117647,,,,,,980.2696999999954,189,1,980.269799999997,189,,,,984.0713999999984,984.567299999997,983.5546999999955,984.0711999999954,981.287799999997,983.5545,984.567299999997,985.067299999997,985.067299999997,986.6363999999984,1083,986.6365,2,986.6366999999955,1,3,33,12,1,1.2,0.3,Time
,,614807,001,female,23,2025-06-02_20h40.11.892,Serial_Dependence_U,2023.2.3,Win32,58.8235294117647,,,,,,986.6368999999984,177,1,986.637,177,,,,990.4051999999955,990.9028999999985,989.9039999999999,990.4050999999939,987.637599999994,989.9038999999984,990.9028999999985,991.4029999999999,991.403099999994,994.2706999999955,2350,994.2706999999955,5,994.2708999999984,1,4,34,2,1,1.2,0.3,Time
,,614807,001,female,23,2025-06-02_20h40.11.892,Serial_Dependence_U,2023.2.3,Win32,58.8235294117647,,,,,,994.2710999999939,184,1,994.2711999999955,184,,,,997.6545999999939,998.153299999997,997.1386999999954,997.6544999999999,995.2723999999985,997.138599999994,998.153299999997,998.6517999999969,998.6517999999969,1002.7548999999984,2617,1002.7548999999984,5,1002.7551999999954,1,5,35,20,1,0.8,0.3,Time
,,614807,001,female,23,2025-06-02_20h40.11.892,Serial_Dependence_U,2023.2.3,Win32,58.8235294117647,,,,,,1002.7554999999999,106,1,1002.7555999999939,106,,,,1006.1216999999955,1006.619799999997,1005.605799999997,1006.1216999999955,1003.7719999999999,1005.6056999999954,1006.619799999997,1007.119799999997,1007.1198999999984,1053.1763999999985,1148,1053.1763999999985,5,1053.1766999999957,1,6,36,15,1,0.8,0.7,Time
,,614807,001,female,23,2025-06-02_20h40.11.892,Serial_Dependence_U,2023.2.3,Win32,58.8235294117647,,,,,,1053.1768999999986,314,1,1053.1770000000001,314,,,,1056.5688999999986,1057.0675999999942,1056.0616999999957,1056.568799999997,1054.179599999994,1056.0613999999985,1057.0675999999942,1057.5686999999955,1057.568799999997,1057.7843999999986,136,1057.7845,1,1057.784599999994,1,7,37,10,1,0.8,0.3,Time
,,614807,001,female,23,2025-06-02_20h40.11.892,Serial_Dependence_U,2023.2.3,Win32,58.8235294117647,,,,,,1057.7860999999941,8,1,1057.786599999994,8,,,,1061.9685,1062.4680999999941,1061.4531999999956,1061.9683999999986,1058.7856999999956,1061.453,1062.4681999999955,1062.9680999999941,1062.9681999999955,1064.7685000000001,1333,1064.7685000000001,2,1064.768799999997,1,8,38,4,1,1.6,0.3,Time
,,614807,001,female,23,2025-06-02_20h40.11.892,Serial_Dependence_U,2023.2.3,Win32,58.8235294117647,,,,,,1064.769,10,1,1064.7691999999956,10,,,,1068.5373999999986,1069.035599999994,1068.035599999994,1068.5371999999957,1065.77,1068.0355,1069.035599999994,1069.5367999999971,1069.5367999999971,1072.1695,2183,1072.169599999994,5,1072.1696999999956,1,9,39,22,1,1.2,0.3,Time
,,614807,001,female,23,2025-06-02_20h40.11.892,Serial_Dependence_U,2023.2.3,Win32,58.8235294117647,,,,,,1072.17,185,1,1072.1700999999941,185,,,,1075.7046999999955,1076.204099999994,1075.2031999999956,1075.7045,1073.1708999999985,1075.203099999994,1076.2041999999956,1076.7043999999985,1076.7043999999985,1078.2698999999986,1243,1078.2698999999986,4,1078.2701999999956,1,10,40,16,1,1,0.7,Time
,,614807,001,female,23,2025-06-02_20h40.11.892,Serial_Dependence_U,2023.2.3,Win32,58.8235294117647,,,,,,1078.2705,268,1,1078.2705999999941,268,,,,1082.0208999999986,1082.520299999997,1081.5045,1082.0208999999986,1079.2703999999985,1081.5043999999984,1082.520299999997,1083.0205999999941,1083.0205999999941,1084.7871999999957,1669,1084.7871999999957,5,1084.7875000000001,1,11,41,7,1,1.2,0.7,Time
,,614807,001,female,23,2025-06-02_20h40.11.892,Serial_Dependence_U,2023.2.3,Win32,58.8235294117647,,,,,,1084.787799999997,9,1,1084.7878999999984,9,,,,1088.155799999997,1088.6548999999986,1087.6466999999955,1088.1555,1085.8048999999985,1087.6465999999941,1088.655,1089.155,1089.155,1090.621299999997,1402,1090.621299999997,5,1090.621599999994,1,12,42,25,1,0.8,0.7,Time
,,614807,001,female,23,2025-06-02_20h40.11.892,Serial_Dependence_U,2023.2.3,Win32,58.8235294117647,,,,,,1090.6217999999972,80,1,1090.6218999999985,80,,,,1094.805,1095.3057999999971,1094.2885,1094.8048999999985,1091.6223999999986,1094.288299999997,1095.3058999999985,1095.8053999999986,1095.8055,1097.556799999997,1255,1097.5568999999984,2,1097.5575000000001,1,13,43,14,1,1.6,0.3,Time
,,614807,001,female,23,2025-06-02_20h40.11.892,Serial_Dependence_U,2023.2.3,Win32,58.8235294117647,,,,,,1097.558099999994,45,1,1097.5581999999956,45,,,,1101.3053999999986,1101.805599999994,1100.797599999994,1101.305299999997,1098.556799999997,1100.7975000000001,1101.8056999999956,1102.307299999997,1102.3073999999986,1102.4725999999941,152,1102.4725999999941,1,1102.472799999997,1,14,44,27,1,1.2,0.7,Time
,,614807,001,female,23,2025-06-02_20h40.11.892,Serial_Dependence_U,2023.2.3,Win32,58.8235294117647,,,,,,1102.473099999994,10,1,1102.4732999999972,10,,,,1106.0575999999942,1106.5557999999971,1105.5403999999985,1106.0575000000001,1103.4741999999956,1105.5401999999956,1106.5557999999971,1107.0575000000001,1107.0575999999942,1111.724099999994,1668,1111.7241999999956,5,1111.7246999999957,1,15,45,21,1,1,0.3,Time
,,614807,001,female,23,2025-06-02_20h40.11.892,Serial_Dependence_U,2023.2.3,Win32,58.8235294117647,,,,,,1111.725299999997,259,1,1111.7253999999984,259,,,,1115.6916999999955,1116.190299999997,1115.1745,1115.691599999994,1112.741,1115.1743999999985,1116.1903999999986,1116.6915000000001,1116.6915000000001,1119.7406999999955,2797,1119.7406999999955,5,1119.741099999994,1,16,46,18,1,1.4,0.7,Time
,,614807,001,female,23,2025-06-02_20h40.11.892,Serial_Dependence_U,2023.2.3,Win32,58.8235294117647,,,,,,1119.7413999999985,113,1,1119.7415,113,,,,1123.7083999999986,1124.209,1123.1925999999942,1123.708299999997,1120.759,1123.1925,1124.209,1124.7075,1124.7075,1126.808099999994,1527,1126.808099999994,4,1126.8083999999985,1,17,47,28,1,1.4,0.7,Time
,,614807,001,female,23,2025-06-02_20h40.11.892,Serial_Dependence_U,2023.2.3,Win32,58.8235294117647,,,,,,1126.8085999999942,100,1,1126.808799999997,100,,,,1130.9766999999956,1131.4761999999955,1130.46,1130.976599999994,1127.8256999999955,1130.4598999999985,1131.476299999997,1131.9750000000001,1131.9750000000001,1134.347,1776,1134.347,4,1134.347099999994,1,18,48,9,1,1.6,0.7,Time
,,614807,001,female,23,2025-06-02_20h40.11.892,Serial_Dependence_U,2023.2.3,Win32,58.8235294117647,,,,,,1134.347299999997,349,1,1134.347299999997,349,,,,1137.9425,1138.4428999999986,1137.427599999994,1137.9423999999985,1135.3598999999986,1137.4275,1138.4428999999986,1138.942799999997,1138.942799999997,1141.2440000000001,1736,1141.2440000000001,5,1141.244599999994,1,19,49,11,1,1,0.3,Time
,,614807,001,female,23,2025-06-02_20h40.11.892,Serial_Dependence_U,2023.2.3,Win32,58.8235294117647,,,,,,1141.2451999999955,60,1,1141.2455,60,,,,1145.010099999994,1145.5108999999986,1144.4950000000001,1145.01,1142.2603999999985,1144.4948999999986,1145.5108999999986,1146.0101999999956,1146.010299999997,1148.2273999999986,1851,1148.2273999999986,5,1148.2276999999956,1,20,50,17,1,1.2,0.7,Time
,,614807,001,female,23,2025-06-02_20h40.11.892,Serial_Dependence_U,2023.2.3,Win32,58.8235294117647,,,,,,1148.2278999999985,259,1,1148.2280999999941,259,,,,1152.4105,1152.9108999999985,1151.894799999997,1152.4105,1149.2285,1151.8946999999955,1152.911,1153.411299999997,1153.411299999997,1155.928,1720,1155.9280999999942,4,1155.9283999999986,1,21,51,24,1,1.6,0.3,Time
,,614807,001,female,23,2025-06-02_20h40.11.892,Serial_Dependence_U,2023.2.3,Win32,58.8235294117647,,,,,,1155.9288999999985,215,1,1155.9290999999942,215,,,,1159.8635,1160.3618999999985,1159.3613999999986,1159.863,1156.929,1159.361299999997,1160.362,1160.861799999997,1160.861799999997,1163.745599999994,2294,1163.745599999994,5,1163.745799999997,1,22,52,8,1,1.4,0.7,Time
,,614807,001,female,23,2025-06-02_20h40.11.892,Serial_Dependence_U,2023.2.3,Win32,58.8235294117647,,,,,,1163.7460999999942,226,1,1163.746299999997,226,,,,1167.312599999994,1167.8131999999955,1166.7958999999985,1167.3125,1164.7621999999956,1166.7958999999985,1167.8131999999955,1168.312799999997,1168.3128999999985,1171.5130000000001,2698,1171.513099999994,5,1171.513599999994,1,23,53,26,1,1,0.7,Time
,,614807,001,female,23,2025-06-02_20h40.11.892,Serial_Dependence_U,2023.2.3,Win32,58.8235294117647,,,,,,1171.5140000000001,355,1,1171.5141999999955,355,,,,1175.5141999999955,1176.013799999997,1174.9970999999941,1175.5140000000001,1172.5305999999941,1174.9968999999985,1176.0138999999986,1176.512799999997,1176.5128999999986,1178.9965,1922,1178.9965,5,1178.9967999999972,1,24,54,23,1,1.4,0.3,Time
,,614807,001,female,23,2025-06-02_20h40.11.892,Serial_Dependence_U,2023.2.3,Win32,58.8235294117647,,,,,,1178.997299999997,209,1,1178.997299999997,209,,,,1182.3973999999985,1182.8976999999957,1181.880299999997,1182.3973999999985,1180.0156999999956,1181.8801999999955,1182.8976999999957,1183.397799999997,1183.3978999999986,1184.6971999999955,855,1184.6971999999955,4,1184.6973999999987,1,25,55,0,1,0.8,0.3,Time
,,614807,001,female,23,2025-06-02_20h40.11.892,Serial_Dependence_U,2023.2.3,Win32,58.8235294117647,,,,,,1184.697599999994,137,1,1184.6976999999956,137,,,,1188.6980999999942,1189.1983999999986,1188.1828999999987,1188.6978999999985,1185.714799999997,1188.1826999999955,1189.1983999999986,1189.6976999999956,1189.697799999997,1192.2481999999957,1704,1192.248299999997,4,1192.248599999994,1,26,56,3,1,1.4,0.3,Time
,,614807,001,female,23,2025-06-02_20h40.11.892,Serial_Dependence_U,2023.2.3,Win32,58.8235294117647,,,,,,1192.2488999999985,40,1,1192.249,40,,,,1196.399799999997,1196.898099999994,1195.8986999999956,1196.399599999994,1193.266,1195.898599999994,1196.898099999994,1197.398599999994,1197.3986999999956,1200.3150999999941,2216,1200.3151999999955,5,1200.3153999999986,1,27,57,19,1,1.6,0.7,Time
,,614807,001,female,23,2025-06-02_20h40.11.892,Serial_Dependence_U,2023.2.3,Win32,58.8235294117647,,,,,,1200.315599999994,354,1,1200.3156999999956,354,,,,1203.6673999999985,1204.1661999999956,1203.150299999997,1203.667299999997,1201.317,1203.1500999999942,1204.1661999999956,1204.666599999994,1204.6666999999957,1207.392299999997,2063,1207.392299999997,5,1207.3925,1,28,58,5,1,0.8,0.7,Time
,,614807,001,female,23,2025-06-02_20h40.11.892,Serial_Dependence_U,2023.2.3,Win32,58.8235294117647,,,,,,1207.3927999999971,176,1,1207.393,176,,,,1211.533299999997,1212.0346999999956,1211.0183999999986,1211.5331999999955,1208.384299999997,1211.0181999999957,1212.0346999999956,1212.5331999999955,1212.5331999999955,1214.8178999999986,2257,1214.818099999994,5,1214.8185999999941,1,29,59,29,1,1.6,0.7,Time
,,614807,001,female,23,2025-06-02_20h40.11.892,Serial_Dependence_U,2023.2.3,Win32,58.8235294117647,,,,,,1214.8193999999985,321,2,1445.556299999997,321,s,230.70420000000308,,1448.9403999999986,1449.4398999999985,1448.425,1448.9401999999955,1446.558299999997,1448.424799999997,1449.44,1449.94,1449.94,1450.301799999997,336,1450.301799999997,1,1450.302099999994,2,0,60,0,1,0.8,0.3,Time
,,614807,001,female,23,2025-06-02_20h40.11.892,Serial_Dependence_U,2023.2.3,Win32,58.8235294117647,,,,,,1450.3023999999984,182,2,1450.303299999997,182,,,,1453.8575,1454.3572999999972,1453.3492999999971,1453.8573999999985,1451.307299999997,1453.3491999999956,1454.3573999999985,1454.8572999999972,1454.8573999999985,1455.424099999994,521,1455.4241999999956,1,1455.4243999999985,2,1,61,16,1,1,0.7,Time
,,614807,001,female,23,2025-06-02_20h40.11.892,Serial_Dependence_U,2023.2.3,Win32,58.8235294117647,,,,,,1455.4245999999941,218,2,1455.4246999999955,218,,,,1458.7751999999955,1459.274599999994,1458.259299999997,1458.7750999999942,1456.4258999999986,1458.259099999994,1459.274599999994,1459.7748999999985,1459.7748999999985,1461.091299999997,949,1461.091299999997,4,1461.0915,2,2,62,5,1,0.8,0.7,Time
,,614807,001,female,23,2025-06-02_20h40.11.892,Serial_Dependence_U,2023.2.3,Win32,58.8235294117647,,,,,,1461.091799999997,261,2,1461.0918999999985,261,,,,1464.6433999999986,1465.1420999999941,1464.1421999999955,1464.643299999997,1462.1085,1464.142,1465.1420999999941,1465.6426999999956,1465.6426999999956,1467.858799999997,1551,1467.8588999999986,5,1467.859099999994,2,3,63,26,1,1,0.7,Time
,,614807,001,female,23,2025-06-02_20h40.11.892,Serial_Dependence_U,2023.2.3,Win32,58.8235294117647,,,,,,1467.8593999999985,91,2,1467.8595,91,,,,1471.6105,1472.1092999999971,1471.1091999999956,1471.6103999999984,1468.8765999999941,1471.109,1472.1093999999985,1472.6100000000001,1472.610099999994,1474.8092999999972,1717,1474.8092999999972,5,1474.8095,2,4,64,27,1,1.2,0.7,Time
,,614807,001,female,23,2025-06-02_20h40.11.892,Serial_Dependence_U,2023.2.3,Win32,58.8235294117647,,,,,,1474.8096999999955,297,2,1474.809799999997,297,,,,1478.8101999999956,1479.310599999994,1478.2935,1478.810099999994,1475.8268999999984,1478.2933999999987,1479.310599999994,1479.8101999999956,1479.8101999999956,1482.9693999999986,2601,1482.9693999999986,5,1482.9695,2,5,65,13,1,1.4,0.3,Time
,,614807,001,female,23,2025-06-02_20h40.11.892,Serial_Dependence_U,2023.2.3,Win32,58.8235294117647,,,,,,1482.9696999999956,36,2,1482.9697999999971,36,,,,1486.928,1487.4271999999955,1486.4110999999941,1486.9278999999985,1483.9768999999985,1486.4110999999941,1487.4271999999955,1487.927599999994,1487.9276999999956,1488.210799999997,249,1488.2108999999984,1,1488.211,2,6,66,18,1,1.4,0.7,Time
,,614807,001,female,23,2025-06-02_20h40.11.892,Serial_Dependence_U,2023.2.3,Win32,58.8235294117647,,,,,,1488.2113999999985,180,2,1488.2113999999985,180,,,,1491.578099999994,1492.0785,1491.0613999999985,1491.578,1489.227599999994,1491.0612999999971,1492.0785999999941,1492.5785,1492.5785999999941,1495.2277999999972,2282,1495.2278999999985,5,1495.2280999999941,2,7,67,25,1,0.8,0.7,Time
,,614807,001,female,23,2025-06-02_20h40.11.892,Serial_Dependence_U,2023.2.3,Win32,58.8235294117647,,,,,,1495.228299999997,201,2,1495.2283999999986,201,,,,1499.4131999999956,1499.912599999994,1498.9121999999957,1499.413099999994,1496.2448999999986,1498.912099999994,1499.912599999994,1500.412599999994,1500.412599999994,1502.9955,2033,1502.995599999994,4,1502.995799999997,2,8,68,14,1,1.6,0.3,Time
,,614807,001,female,23,2025-06-02_20h40.11.892,Serial_Dependence_U,2023.2.3,Win32,58.8235294117647,,,,,,1502.996,92,2,1502.9960999999942,92,,,,1506.579799999997,1507.079799999997,1506.0791999999956,1506.579799999997,1504.0133999999985,1506.079099999994,1507.079799999997,1507.5798999999986,1507.5798999999986,1510.0140000000001,1868,1510.0140999999942,5,1510.0143999999984,2,9,69,21,1,1,0.3,Time
,,614807,001,female,23,2025-06-02_20h40.11.892,Serial_Dependence_U,2023.2.3,Win32,58.8235294117647,,,,,,1510.0148999999985,124,2,1510.0150999999942,124,,,,1513.6153999999985,1514.1133999999986,1513.0982999999972,1513.6151999999956,1511.031099999994,1513.098099999994,1514.1133999999986,1514.613299999997,1514.613299999997,1517.205099999994,2091,1517.2051999999956,5,1517.2053999999985,2,10,70,11,1,1,0.3,Time
,,614807,001,female,23,2025-06-02_20h40.11.892,Serial_Dependence_U,2023.2.3,Win32,58.8235294117647,,,,,,1517.205599999994,348,2,1517.205799999997,348,,,,1521.3820999999941,1521.8808999999985,1520.864599999994,1521.3818999999985,1518.2136999999955,1520.8638999999985,1521.8808999999985,1522.381299999997,1522.3815,1524.231099999994,1284,1524.231099999994,2,1524.231299999997,2,11,71,19,1,1.6,0.7,Time
,,614807,001,female,23,2025-06-02_20h40.11.892,Serial_Dependence_U,2023.2.3,Win32,58.8235294117647,,,,,,1524.231799999997,282,2,1524.232,282,,,,1528.383,1528.882,1527.8661999999956,1528.3826999999956,1525.2326999999955,1527.866099999994,1528.882,1529.3818999999985,1529.3818999999985,1531.682,1643,1531.6821999999956,3,1531.6823999999986,2,12,72,29,1,1.6,0.7,Time
,,614807,001,female,23,2025-06-02_20h40.11.892,Serial_Dependence_U,2023.2.3,Win32,58.8235294117647,,,,,,1531.6825999999942,65,2,1531.6825999999942,65,,,,1535.8655,1536.3661999999956,1535.3491999999956,1535.8653999999985,1532.682799999997,1535.349099999994,1536.366299999997,1536.8665,1536.8665,1540.0751999999957,2317,1540.075299999997,5,1540.0753999999986,2,13,73,4,1,1.6,0.3,Time
,,614807,001,female,23,2025-06-02_20h40.11.892,Serial_Dependence_U,2023.2.3,Win32,58.8235294117647,,,,,,1540.0757999999971,276,2,1540.0758999999985,276,,,,1544.217299999997,1544.717,1543.7163999999987,1544.2171999999955,1541.0825,1543.716299999997,1544.7170999999942,1545.217299999997,1545.2173999999986,1547.2665,1397,1547.2665,2,1547.2666999999956,2,14,74,9,1,1.6,0.7,Time
,,614807,001,female,23,2025-06-02_20h40.11.892,Serial_Dependence_U,2023.2.3,Win32,58.8235294117647,,,,,,1547.267,58,2,1547.267,58,,,,1551.0683999999985,1551.567,1550.551599999994,1551.0681999999956,1548.2840999999942,1550.5513999999985,1551.567,1552.067299999997,1552.067299999997,1554.6853999999985,2054,1554.6855,5,1554.686,2,15,75,22,1,1.2,0.3,Time
,,614807,001,female,23,2025-06-02_20h40.11.892,Serial_Dependence_U,2023.2.3,Win32,58.8235294117647,,,,,,1554.6866999999957,89,2,1554.687099999994,89,,,,1558.635,1559.135,1558.124099999994,1558.635,1555.6853999999985,1558.124099999994,1559.135,1559.6345000000001,1559.6345000000001,1562.301599999994,2217,1562.3016999999957,5,1562.3018999999986,2,16,76,8,1,1.4,0.7,Time
,,614807,001,female,23,2025-06-02_20h40.11.892,Serial_Dependence_U,2023.2.3,Win32,58.8235294117647,,,,,,1562.3021999999955,141,2,1562.3023999999984,141,,,,1566.052799999997,1566.552599999994,1565.5368999999985,1566.052799999997,1563.3026999999956,1565.5366999999956,1566.552599999994,1567.0523999999984,1567.0523999999984,1569.769299999997,2163,1569.769299999997,5,1569.7695,2,17,77,17,1,1.2,0.7,Time
,,614807,001,female,23,2025-06-02_20h40.11.892,Serial_Dependence_U,2023.2.3,Win32,58.8235294117647,,,,,,1569.769799999997,122,2,1569.7698999999986,122,,,,1573.972299999997,1574.4693999999986,1573.4538999999986,1573.9721999999956,1570.7856999999956,1573.453799999997,1574.4693999999986,1574.970299999997,1574.9703999999986,1577.0205999999941,1531,1577.0205999999941,3,1577.021,2,18,78,24,1,1.6,0.3,Time
,,614807,001,female,23,2025-06-02_20h40.11.892,Serial_Dependence_U,2023.2.3,Win32,58.8235294117647,,,,,,1577.0215,350,2,1577.0216999999955,350,,,,1580.4203999999986,1580.9201999999955,1579.905,1580.420299999997,1578.0363999999986,1579.904799999997,1580.920299999997,1581.4201999999955,1581.4201999999955,1583.7550999999942,1776,1583.755299999997,5,1583.7560999999941,2,19,79,10,1,0.8,0.3,Time
,,614807,001,female,23,2025-06-02_20h40.11.892,Serial_Dependence_U,2023.2.3,Win32,58.8235294117647,,,,,,1583.757,67,2,1583.757299999997,67,,,,1587.720799999997,1588.2205000000001,1587.2042999999971,1587.7206999999955,1584.7715,1587.2041999999956,1588.220599999994,1588.7216999999955,1588.7216999999955,1590.6373999999985,1502,1590.6375,4,1590.6376999999957,2,20,80,28,1,1.4,0.7,Time
,,614807,001,female,23,2025-06-02_20h40.11.892,Serial_Dependence_U,2023.2.3,Win32,58.8235294117647,,,,,,1590.6378999999986,82,2,1590.6378999999986,82,,,,1593.9881999999955,1594.4885,1593.473099999994,1593.9880999999941,1591.6390000000001,1593.473,1594.4885,1594.988,1594.9880999999941,1597.1382999999971,1685,1597.1382999999971,5,1597.1385,2,21,81,15,1,0.8,0.7,Time
,,614807,001,female,23,2025-06-02_20h40.11.892,Serial_Dependence_U,2023.2.3,Win32,58.8235294117647,,,,,,1597.1388999999986,334,2,1597.1388999999986,334,,,,1600.9217999999971,1601.4216999999956,1600.407099999994,1600.9216999999956,1598.1403999999986,1600.407,1601.4217999999971,1601.9216999999956,1601.9216999999956,1604.0222999999971,1615,1604.0222999999971,5,1604.022599999994,2,22,82,2,1,1.2,0.3,Time
,,614807,001,female,23,2025-06-02_20h40.11.892,Serial_Dependence_U,2023.2.3,Win32,58.8235294117647,,,,,,1604.0228999999986,127,2,1604.0230000000001,127,,,,1608.0061999999955,1608.5060999999941,1607.4901999999956,1608.0060999999941,1605.0240000000001,1607.490099999994,1608.5060999999941,1609.007,1609.0070999999941,1611.8066999999955,2410,1611.8066999999955,5,1611.807,2,23,83,23,1,1.4,0.3,Time
,,614807,001,female,23,2025-06-02_20h40.11.892,Serial_Dependence_U,2023.2.3,Win32,58.8235294117647,,,,,,1611.8071999999956,274,2,1611.807299999997,274,,,,1615.207299999997,1615.707599999994,1614.6915000000001,1615.2071999999955,1612.8230999999942,1614.691299999997,1615.707599999994,1616.207299999997,1616.207299999997,1618.773799999997,1913,1618.773799999997,5,1618.7740000000001,2,24,84,20,1,0.8,0.3,Time
,,614807,001,female,23,2025-06-02_20h40.11.892,Serial_Dependence_U,2023.2.3,Win32,58.8235294117647,,,,,,1618.774299999997,254,2,1618.7743999999986,254,,,,1622.516299999997,1623.0085000000001,1622.0076999999956,1622.516299999997,1619.7751999999955,1622.0076999999956,1623.0085000000001,1623.508799999997,1623.5088999999984,1625.8581999999956,1852,1625.8582999999971,5,1625.8585,2,25,85,7,1,1.2,0.7,Time
,,614807,001,female,23,2025-06-02_20h40.11.892,Serial_Dependence_U,2023.2.3,Win32,58.8235294117647,,,,,,1625.858799999997,345,2,1625.8588999999986,345,,,,1629.642,1630.142299999997,1629.1255999999942,1629.642,1626.858599999994,1629.1255999999942,1630.1423999999986,1630.6421999999955,1630.6421999999955,1633.9597999999971,2883,1633.9597999999971,5,1633.9603999999986,2,26,86,12,1,1.2,0.3,Time
,,614807,001,female,23,2025-06-02_20h40.11.892,Serial_Dependence_U,2023.2.3,Win32,58.8235294117647,,,,,,1633.961099999994,42,2,1633.961299999997,42,,,,1637.944099999994,1638.442299999997,1637.4268999999986,1637.9438999999986,1634.960299999997,1637.4266999999957,1638.442299999997,1638.9431999999956,1638.9431999999956,1641.318,2012,1641.318,5,1641.3181999999956,2,27,87,3,1,1.4,0.3,Time
,,614807,001,female,23,2025-06-02_20h40.11.892,Serial_Dependence_U,2023.2.3,Win32,58.8235294117647,,,,,,1641.3183999999985,108,2,1641.3185,108,,,,1644.9105,1645.4095,1644.3938999999984,1644.9103999999986,1642.3265999999942,1644.393799999997,1645.409599999994,1645.9096999999956,1645.9096999999956,1648.078,1664,1648.078099999994,5,1648.0785999999941,2,28,88,1,1,1,0.3,Time
,,614807,001,female,23,2025-06-02_20h40.11.892,Serial_Dependence_U,2023.2.3,Win32,58.8235294117647,,,,,,1648.0792999999971,161,2,1648.0795,161,,,,1651.645099999994,1652.1446999999955,1651.128,1651.6448999999986,1649.094,1651.128,1652.144799999997,1652.6433999999986,1652.6435000000001,1655.2945,2084,1655.2945,5,1655.2946999999956,2,29,89,6,1,1,0.7,Time
,,614807,001,female,23,2025-06-02_20h40.11.892,Serial_Dependence_U,2023.2.3,Win32,58.8235294117647,,,,,,1655.2950999999941,194,3,1671.8286999999955,194,s,16.502200000003086,,1675.398099999994,1675.8965,1674.880799999997,1675.3978999999986,1672.8465,1674.8806999999956,1675.8965,1676.3965999999941,1676.396799999997,1678.229799999997,1317,1678.229799999997,5,1678.23,3,0,90,6,1,1,0.7,Time
,,614807,001,female,23,2025-06-02_20h40.11.892,Serial_Dependence_U,2023.2.3,Win32,58.8235294117647,,,,,,1678.2301999999956,79,3,1678.231099999994,79,,,,1681.9808999999987,1682.4805999999942,1681.480099999994,1681.9806999999955,1679.2467999999972,1681.48,1682.4806999999955,1682.9798999999985,1682.9798999999985,1685.097,1668,1685.097,5,1685.0971999999956,3,1,91,27,1,1.2,0.7,Time
,,614807,001,female,23,2025-06-02_20h40.11.892,Serial_Dependence_U,2023.2.3,Win32,58.8235294117647,,,,,,1685.0973999999985,84,3,1685.0975999999941,84,,,,1689.2653999999986,1689.764799999997,1688.7493999999986,1689.265299999997,1686.115,1688.7491999999957,1689.7648999999985,1690.264299999997,1690.2643999999984,1692.547599999994,2001,1692.547599999994,4,1692.5478999999984,3,2,92,29,1,1.6,0.7,Time
,,614807,001,female,23,2025-06-02_20h40.11.892,Serial_Dependence_U,2023.2.3,Win32,58.8235294117647,,,,,,1692.548099999994,200,3,1692.5481999999956,200,,,,1696.1486999999956,1696.6490000000001,1695.6331999999957,1696.148599999994,1693.5650999999941,1695.633,1696.6490000000001,1697.1486999999956,1697.1486999999956,1699.482099999994,1861,1699.482099999994,5,1699.4822999999972,3,3,93,21,1,1,0.3,Time
,,614807,001,female,23,2025-06-02_20h40.11.892,Serial_Dependence_U,2023.2.3,Win32,58.8235294117647,,,,,,1699.4825,6,3,1699.4825999999941,6,,,,1703.4486999999956,1703.9495,1702.9326999999955,1703.4486999999956,1700.4988999999985,1702.9325999999942,1703.9495,1704.4491999999955,1704.4491999999955,1707.082799999997,2098,1707.082799999997,5,1707.083,3,4,94,8,1,1.4,0.7,Time
,,614807,001,female,23,2025-06-02_20h40.11.892,Serial_Dependence_U,2023.2.3,Win32,58.8235294117647,,,,,,1707.0831999999955,113,3,1707.083299999997,113,,,,1711.2843999999986,1711.7826999999957,1710.767599999994,1711.284299999997,1708.0996999999957,1710.7673999999986,1711.7826999999957,1712.2838999999985,1712.284,1714.567,1661,1714.567,3,1714.567299999997,3,5,95,14,1,1.6,0.3,Time
,,614807,001,female,23,2025-06-02_20h40.11.892,Serial_Dependence_U,2023.2.3,Win32,58.8235294117647,,,,,,1714.5675999999942,24,3,1714.567799999997,24,,,,1717.934099999994,1718.4342999999972,1717.4180999999942,1717.934,1715.5846999999956,1717.4180000000001,1718.4343999999985,1718.9333999999985,1718.9335,1720.133799999997,949,1720.1338999999984,4,1720.134099999994,3,6,96,5,1,0.8,0.7,Time
,,614807,001,female,23,2025-06-02_20h40.11.892,Serial_Dependence_U,2023.2.3,Win32,58.8235294117647,,,,,,1720.1343999999985,278,3,1720.1345000000001,278,,,,1724.1020999999942,1724.6015,1723.585599999994,1724.102,1721.152299999997,1723.5853999999986,1724.601599999994,1725.1010999999942,1725.1011999999955,1726.934799999997,1252,1726.934799999997,2,1726.935099999994,3,7,97,28,1,1.4,0.7,Time
,,614807,001,female,23,2025-06-02_20h40.11.892,Serial_Dependence_U,2023.2.3,Win32,58.8235294117647,,,,,,1726.9352999999971,114,3,1726.9353999999985,114,,,,1730.5025999999941,1731.0011999999956,1729.986299999997,1730.5023999999985,1727.9516999999955,1729.9861999999955,1731.0011999999956,1731.5018999999986,1731.5018999999986,1733.4185,1451,1733.4185,5,1733.4186999999956,3,8,98,26,1,1,0.7,Time
,,614807,001,female,23,2025-06-02_20h40.11.892,Serial_Dependence_U,2023.2.3,Win32,58.8235294117647,,,,,,1733.4190999999942,255,3,1733.4191999999955,255,,,,1736.819,1737.3193999999985,1736.3025,1736.818799999997,1734.436599999994,1736.3023999999984,1737.3193999999985,1737.8195,1737.8195999999941,1739.452299999997,996,1739.4523999999985,4,1739.4525999999942,3,9,99,0,1,0.8,0.3,Time
,,614807,001,female,23,2025-06-02_20h40.11.892,Serial_Dependence_U,2023.2.3,Win32,58.8235294117647,,,,,,1739.4528999999986,284,3,1739.453,284,,,,1742.8202999999971,1743.3195,1742.304299999997,1742.8201999999956,1740.4705000000001,1742.3041999999955,1743.3195,1743.8191999999956,1743.8191999999956,1745.5865999999942,1559,1745.5866999999955,5,1745.586799999997,3,10,100,15,1,0.8,0.7,Time
,,614807,001,female,23,2025-06-02_20h40.11.892,Serial_Dependence_U,2023.2.3,Win32,58.8235294117647,,,,,,1745.587099999994,217,3,1745.5871999999956,217,,,,1748.9878999999985,1749.488,1748.4715,1748.9877999999972,1746.603299999997,1748.4713999999985,1749.488,1749.9876999999956,1749.9877999999972,1750.9370000000001,447,1750.9370000000001,1,1750.937299999997,3,11,101,20,1,0.8,0.3,Time
,,614807,001,female,23,2025-06-02_20h40.11.892,Serial_Dependence_U,2023.2.3,Win32,58.8235294117647,,,,,,1750.9375,293,3,1750.937599999994,293,,,,1755.0875,1755.5875999999942,1754.572799999997,1755.087299999997,1751.9373999999984,1754.5726999999956,1755.5875999999942,1756.0885,1756.0885,1758.8218999999985,2051,1758.8220000000001,4,1758.8225,3,12,102,19,1,1.6,0.7,Time
,,614807,001,female,23,2025-06-02_20h40.11.892,Serial_Dependence_U,2023.2.3,Win32,58.8235294117647,,,,,,1758.823,32,3,1758.8231999999955,32,,,,1762.623,1763.1220999999941,1762.113299999997,1762.6227999999971,1759.838,1762.1131999999955,1763.1220999999941,1763.6213999999986,1763.6215,1764.1215,21,1764.121599999994,1,1764.1216999999956,3,13,103,12,1,1.2,0.3,Time
,,614807,001,female,23,2025-06-02_20h40.11.892,Serial_Dependence_U,2023.2.3,Win32,58.8235294117647,,,,,,1764.122,167,3,1764.1220999999941,167,,,,1768.3220000000001,1768.822299999997,1767.8066999999955,1768.3220000000001,1765.1303999999986,1767.806599999994,1768.822299999997,1769.3230999999942,1769.3231999999955,1771.272,1304,1771.272099999994,2,1771.2722999999971,3,14,104,24,1,1.6,0.3,Time
,,614807,001,female,23,2025-06-02_20h40.11.892,Serial_Dependence_U,2023.2.3,Win32,58.8235294117647,,,,,,1771.2725,83,3,1771.2725,83,,,,1775.2567999999972,1775.7568999999985,1774.7406999999955,1775.256599999994,1772.2743999999986,1774.7405999999942,1775.757,1776.2568999999985,1776.2568999999985,1779.7898999999986,2616,1779.7898999999986,5,1779.7901999999956,3,15,105,3,1,1.4,0.3,Time
,,614807,001,female,23,2025-06-02_20h40.11.892,Serial_Dependence_U,2023.2.3,Win32,58.8235294117647,,,,,,1779.7905,305,3,1779.7905,305,,,,1783.7746999999956,1784.273599999994,1783.2583999999986,1783.774599999994,1780.7908999999986,1783.2581999999957,1784.273599999994,1784.7736999999956,1784.7736999999956,1786.7570999999941,1521,1786.7570999999941,4,1786.757299999997,3,16,106,23,1,1.4,0.3,Time
,,614807,001,female,23,2025-06-02_20h40.11.892,Serial_Dependence_U,2023.2.3,Win32,58.8235294117647,,,,,,1786.7575,296,3,1786.7575,296,,,,1790.3096999999955,1790.807799999997,1789.8085999999942,1790.3093999999985,1787.775,1789.8085,1790.807799999997,1791.3078999999987,1791.3078999999987,1794.0586999999955,2031,1794.0586999999955,5,1794.059,3,17,107,16,1,1,0.7,Time
,,614807,001,female,23,2025-06-02_20h40.11.892,Serial_Dependence_U,2023.2.3,Win32,58.8235294117647,,,,,,1794.0592999999972,60,3,1794.0595,60,,,,1797.8263999999986,1798.325,1797.3091999999956,1797.826299999997,1795.075299999997,1797.309099999994,1798.325,1798.826,1798.826099999994,1802.3751999999956,2437,1802.3751999999956,5,1802.3753999999985,3,18,108,7,1,1.2,0.7,Time
,,614807,001,female,23,2025-06-02_20h40.11.892,Serial_Dependence_U,2023.2.3,Win32,58.8235294117647,,,,,,1802.3755999999942,153,3,1802.375799999997,153,,,,1806.561099999994,1807.0598999999986,1806.059799999997,1806.5608999999986,1803.3935000000001,1806.0596999999955,1807.0598999999986,1807.5598999999986,1807.5598999999986,1809.6941999999956,1405,1809.6943999999985,2,1809.695,3,19,109,4,1,1.6,0.3,Time
,,614807,001,female,23,2025-06-02_20h40.11.892,Serial_Dependence_U,2023.2.3,Win32,58.8235294117647,,,,,,1809.695599999994,107,3,1809.6958999999986,107,,,,1813.4950000000001,1813.9931999999956,1812.9773999999986,1813.494599999994,1810.711,1812.9773999999986,1813.9931999999956,1814.4945,1814.494599999994,1816.7435,1567,1816.743599999994,5,1816.743799999997,3,20,110,22,1,1.2,0.3,Time
,,614807,001,female,23,2025-06-02_20h40.11.892,Serial_Dependence_U,2023.2.3,Win32,58.8235294117647,,,,,,1816.7440000000001,106,3,1816.744099999994,106,,,,1820.895299999997,1821.3936999999955,1820.3941999999956,1820.8951999999956,1817.7605,1820.3941999999956,1821.393799999997,1821.895,1821.895,1825.128099999994,2293,1825.1281999999956,5,1825.1282999999971,3,21,111,9,1,1.6,0.7,Time
,,614807,001,female,23,2025-06-02_20h40.11.892,Serial_Dependence_U,2023.2.3,Win32,58.8235294117647,,,,,,1825.1286999999957,255,3,1825.128799999997,255,,,,1829.0795999999941,1829.578299999997,1828.5783999999985,1829.0793999999985,1826.145,1828.5783999999985,1829.578299999997,1830.079,1830.079,1832.3618999999985,1750,1832.3618999999985,4,1832.3621999999955,3,22,112,18,1,1.4,0.7,Time
,,614807,001,female,23,2025-06-02_20h40.11.892,Serial_Dependence_U,2023.2.3,Win32,58.8235294117647,,,,,,1832.3623999999986,276,3,1832.3625,276,,,,1835.9635999999941,1836.463099999994,1835.4468999999985,1835.9633999999985,1833.378599999994,1835.4466999999956,1836.4631999999956,1836.9625999999942,1836.9626999999955,1838.962299999997,1467,1838.9623999999985,5,1838.9625999999942,3,23,113,1,1,1,0.3,Time
,,614807,001,female,23,2025-06-02_20h40.11.892,Serial_Dependence_U,2023.2.3,Win32,58.8235294117647,,,,,,1838.962799999997,143,3,1838.9628999999986,143,,,,1842.5476999999955,1843.046,1842.0301999999956,1842.5475000000001,1839.9628999999986,1842.030099999994,1843.046,1843.5467999999971,1843.5467999999971,1845.7796999999955,1821,1845.7796999999955,5,1845.7798999999986,3,24,114,11,1,1,0.3,Time
,,614807,001,female,23,2025-06-02_20h40.11.892,Serial_Dependence_U,2023.2.3,Win32,58.8235294117647,,,,,,1845.780099999994,93,3,1845.780299999997,93,,,,1849.765,1850.2636999999957,1849.2563999999986,1849.765,1846.781799999997,1849.2563999999986,1850.2636999999957,1850.7641999999955,1850.7641999999955,1853.0305,1553,1853.0305,4,1853.0306999999955,3,25,115,13,1,1.4,0.3,Time
,,614807,001,female,23,2025-06-02_20h40.11.892,Serial_Dependence_U,2023.2.3,Win32,58.8235294117647,,,,,,1853.0308999999986,15,3,1853.031,15,,,,1856.798099999994,1857.297299999997,1856.282,1856.798,1854.048799999997,1856.2818999999986,1857.297299999997,1857.7976999999955,1857.7976999999955,1859.899299999997,1617,1859.899299999997,5,1859.9,3,26,116,17,1,1.2,0.7,Time
,,614807,001,female,23,2025-06-02_20h40.11.892,Serial_Dependence_U,2023.2.3,Win32,58.8235294117647,,,,,,1859.900599999994,359,3,1859.9008999999985,359,,,,1863.2823999999985,1863.7818999999986,1862.7740000000001,1863.2822999999971,1860.8983999999984,1862.7738999999985,1863.782,1864.2822999999971,1864.2822999999971,1866.8483999999985,1769,1866.8483999999985,5,1866.8486999999955,3,27,117,10,1,0.8,0.3,Time
,,614807,001,female,23,2025-06-02_20h40.11.892,Serial_Dependence_U,2023.2.3,Win32,58.8235294117647,,,,,,1866.8488999999986,24,3,1866.849,24,,,,1870.640599999994,1871.1318999999985,1870.1158999999986,1870.6405,1867.8500000000001,1870.115799999997,1871.132,1871.633,1871.633099999994,1873.7825,1581,1873.7825,5,1873.7826999999957,3,28,118,2,1,1.2,0.3,Time
,,614807,001,female,23,2025-06-02_20h40.11.892,Serial_Dependence_U,2023.2.3,Win32,58.8235294117647,,,,,,1873.7828999999986,42,3,1873.7830000000001,42,,,,1877.1168999999986,1877.616299999997,1876.6161999999956,1877.116799999997,1874.783599999994,1876.616099999994,1877.616299999997,1878.1165999999942,1878.1166999999955,1880.2328999999986,1435,1880.233,5,1880.2332999999971,3,29,119,25,1,0.8,0.7,Time
,,614807,001,female,23,2025-06-02_20h40.11.892,Serial_Dependence_U,2023.2.3,Win32,58.8235294117647,,,,,,1880.2335,324,4,1887.5336999999956,324,s,7.272299999997131,,1891.5025999999941,1892.0018999999986,1890.9845,1891.5025,1888.5521999999955,1890.9843999999985,1892.0018999999986,1892.501299999997,1892.5013999999985,1894.985599999994,1953,1894.985799999997,5,1894.9861999999955,4,0,120,8,1,1.4,0.7,Time
,,614807,001,female,23,2025-06-02_20h40.11.892,Serial_Dependence_U,2023.2.3,Win32,58.8235294117647,,,,,,1894.986799999997,334,4,1894.9887999999971,334,,,,1898.586799999997,1899.085099999994,1898.068799999997,1898.5865999999942,1896.001299999997,1898.068799999997,1899.085099999994,1899.585,1899.585,1902.035299999997,1698,1902.035299999997,5,1902.0355,4,1,121,11,1,1,0.3,Time
,,614807,001,female,23,2025-06-02_20h40.11.892,Serial_Dependence_U,2023.2.3,Win32,58.8235294117647,,,,,,1902.0358999999985,38,4,1902.036,38,,,,1906.2371999999955,1906.736,1905.720299999997,1906.2370999999941,1903.052299999997,1905.7201999999957,1906.736,1907.2375,1907.237599999994,1910.2696999999955,2182,1910.2696999999955,5,1910.270099999994,4,2,122,24,1,1.6,0.3,Time
,,614807,001,female,23,2025-06-02_20h40.11.892,Serial_Dependence_U,2023.2.3,Win32,58.8235294117647,,,,,,1910.270299999997,334,4,1910.2705,334,,,,1914.2206999999955,1914.720299999997,1913.7045999999941,1914.220599999994,1911.2713999999985,1913.7043999999985,1914.7203999999986,1915.22,1915.220099999994,1918.270099999994,2316,1918.270099999994,5,1918.270299999997,4,3,123,28,1,1.4,0.7,Time
,,614807,001,female,23,2025-06-02_20h40.11.892,Serial_Dependence_U,2023.2.3,Win32,58.8235294117647,,,,,,1918.2705,203,4,1918.2705999999941,203,,,,1921.6055999999942,1922.104099999994,1921.1045000000001,1921.6053999999986,1919.272,1921.1043999999986,1922.104099999994,1922.604299999997,1922.604299999997,1924.254599999994,1067,1924.254599999994,5,1924.254799999997,4,4,124,5,1,0.8,0.7,Time
,,614807,001,female,23,2025-06-02_20h40.11.892,Serial_Dependence_U,2023.2.3,Win32,58.8235294117647,,,,,,1924.2550999999942,204,4,1924.2550999999942,204,,,,1927.8058999999985,1928.3048999999985,1927.3047999999972,1927.8056999999956,1925.2713999999985,1927.3046999999956,1928.3048999999985,1928.8051999999955,1928.805299999997,1931.2381999999955,1847,1931.2381999999955,5,1931.2383999999986,4,5,125,16,1,1,0.7,Time
,,614807,001,female,23,2025-06-02_20h40.11.892,Serial_Dependence_U,2023.2.3,Win32,58.8235294117647,,,,,,1931.238599999994,345,4,1931.2386999999956,345,,,,1934.806599999994,1935.3057999999971,1934.289299999997,1934.8065000000001,1932.2548999999985,1934.2891999999956,1935.3057999999971,1935.806099999994,1935.806099999994,1938.2225,1850,1938.2225,5,1938.2226999999955,4,6,126,26,1,1,0.7,Time
,,614807,001,female,23,2025-06-02_20h40.11.892,Serial_Dependence_U,2023.2.3,Win32,58.8235294117647,,,,,,1938.223,143,4,1938.223099999994,143,,,,1942.3748999999984,1942.8723999999986,1941.8727999999971,1942.3746999999955,1939.2391999999957,1941.8727999999971,1942.8723999999986,1943.3735,1943.373599999994,1945.615099999994,1681,1945.615099999994,4,1945.615299999997,4,7,127,29,1,1.6,0.7,Time
,,614807,001,female,23,2025-06-02_20h40.11.892,Serial_Dependence_U,2023.2.3,Win32,58.8235294117647,,,,,,1945.6155999999942,157,4,1945.6155999999942,157,,,,1949.1746999999955,1949.673799999997,1948.658599999994,1949.1745999999941,1946.6238999999985,1948.6583999999984,1949.673799999997,1950.1735999999942,1950.1735999999942,1952.1907999999971,1453,1952.1908999999985,5,1952.191,4,8,128,6,1,1,0.7,Time
,,614807,001,female,23,2025-06-02_20h40.11.892,Serial_Dependence_U,2023.2.3,Win32,58.8235294117647,,,,,,1952.191299999997,300,4,1952.1913999999986,300,,,,1955.975299999997,1956.474599999994,1955.4588999999985,1955.975299999997,1953.191099999994,1955.458599999994,1956.474599999994,1956.9743999999985,1956.9743999999985,1959.2745,1664,1959.2745,5,1959.2746999999956,4,9,129,2,1,1.2,0.3,Time
,,614807,001,female,23,2025-06-02_20h40.11.892,Serial_Dependence_U,2023.2.3,Win32,58.8235294117647,,,,,,1959.275,74,4,1959.2750999999942,74,,,,1963.0592999999972,1963.5585,1962.5430999999942,1963.0591999999956,1960.2760999999941,1962.5430000000001,1963.5585,1964.0586999999955,1964.058799999997,1966.708299999997,2071,1966.708299999997,5,1966.7085,4,10,130,22,1,1.2,0.3,Time
,,614807,001,female,23,2025-06-02_20h40.11.892,Serial_Dependence_U,2023.2.3,Win32,58.8235294117647,,,,,,1966.7086999999956,42,4,1966.7088999999985,42,,,,1970.1091999999956,1970.6086999999955,1969.5933999999986,1970.109099999994,1967.7256999999956,1969.593299999997,1970.6086999999955,1971.109,1971.109,1973.326299999997,1811,1973.326299999997,5,1973.3265000000001,4,11,131,10,1,0.8,0.3,Time
,,614807,001,female,23,2025-06-02_20h40.11.892,Serial_Dependence_U,2023.2.3,Win32,58.8235294117647,,,,,,1973.326799999997,344,4,1973.3268999999984,344,,,,1977.527599999994,1978.0267999999971,1977.011799999997,1977.5275000000001,1974.3435,1977.0116999999955,1978.0267999999971,1978.5271999999957,1978.5271999999957,1980.7263999999986,1817,1980.7265,4,1980.7266999999956,4,12,132,4,1,1.6,0.3,Time
,,614807,001,female,23,2025-06-02_20h40.11.892,Serial_Dependence_U,2023.2.3,Win32,58.8235294117647,,,,,,1980.7268999999985,331,4,1980.727,331,,,,1984.3275999999942,1984.8268999999984,1983.8101999999956,1984.3275,1981.7446999999956,1983.810099999994,1984.8268999999984,1985.327099999994,1985.327099999994,1987.6606999999956,1785,1987.6607999999972,5,1987.661,4,13,133,21,1,1,0.3,Time
,,614807,001,female,23,2025-06-02_20h40.11.892,Serial_Dependence_U,2023.2.3,Win32,58.8235294117647,,,,,,1987.661299999997,179,4,1987.6613999999986,179,,,,1991.412,1991.9116999999956,1990.911299999997,1991.4117999999971,1988.677799999997,1990.9111999999955,1991.9117999999971,1992.4115,1992.4115,1994.9778999999985,2100,1994.978,5,1994.9781999999955,4,14,134,27,1,1.2,0.7,Time
,,614807,001,female,23,2025-06-02_20h40.11.892,Serial_Dependence_U,2023.2.3,Win32,58.8235294117647,,,,,,1994.9785,170,4,1994.9786999999956,170,,,,1998.3620999999941,1998.862599999994,1997.8458999999984,1998.362,1995.979299999997,1997.8456999999955,1998.862599999994,1999.3616999999956,1999.3616999999956,2001.1788999999985,1012,2001.179,4,2001.179299999997,4,15,135,20,1,0.8,0.3,Time
,,614807,001,female,23,2025-06-02_20h40.11.892,Serial_Dependence_U,2023.2.3,Win32,58.8235294117647,,,,,,2001.179599999994,328,4,2001.1796999999956,328,,,,2004.763099999994,2005.2622999999971,2004.2622999999971,2004.7630000000001,2002.1963999999984,2004.2622999999971,2005.2622999999971,2005.7625,2005.7625,2008.195799999997,1801,2008.1958999999986,5,2008.196099999994,4,16,136,1,1,1,0.3,Time
,,614807,001,female,23,2025-06-02_20h40.11.892,Serial_Dependence_U,2023.2.3,Win32,58.8235294117647,,,,,,2008.196299999997,36,4,2008.1963999999984,36,,,,2011.5982999999972,2012.096799999997,2011.0811999999955,2011.598099999994,2009.2145,2011.081099999994,2012.096799999997,2012.596099999994,2012.596099999994,2014.4631999999956,1383,2014.4631999999956,5,2014.4633999999985,4,17,137,0,1,0.8,0.3,Time
,,614807,001,female,23,2025-06-02_20h40.11.892,Serial_Dependence_U,2023.2.3,Win32,58.8235294117647,,,,,,2014.4635999999941,265,4,2014.463799999997,265,,,,2018.214799999997,2018.7136999999955,2017.6986999999956,2018.2146999999957,2015.4636999999955,2017.6985,2018.7136999999955,2019.2136999999955,2019.213799999997,2021.1475,1436,2021.1475,4,2021.1476999999957,4,18,138,7,1,1.2,0.7,Time
,,614807,001,female,23,2025-06-02_20h40.11.892,Serial_Dependence_U,2023.2.3,Win32,58.8235294117647,,,,,,2021.1480000000001,59,4,2021.148099999994,59,,,,2024.9152999999972,2025.415,2024.3991999999955,2024.915099999994,2022.164299999997,2024.3990999999942,2025.415,2025.914299999997,2025.914299999997,2028.0647999999971,1513,2028.0648999999985,4,2028.0650999999941,4,19,139,17,1,1.2,0.7,Time
,,614807,001,female,23,2025-06-02_20h40.11.892,Serial_Dependence_U,2023.2.3,Win32,58.8235294117647,,,,,,2028.0653999999986,280,4,2028.0653999999986,280,,,,2032.049799999997,2032.549,2031.5418999999986,2032.0496999999955,2029.0655,2031.541799999997,2032.549,2033.0481999999956,2033.0481999999956,2034.748599999994,1334,2034.748599999994,3,2034.7487999999971,4,20,140,3,1,1.4,0.3,Time
,,614807,001,female,23,2025-06-02_20h40.11.892,Serial_Dependence_U,2023.2.3,Win32,58.8235294117647,,,,,,2034.749099999994,72,4,2034.7491999999957,72,,,,2038.7495999999942,2039.249099999994,2038.2340000000004,2038.7495000000004,2035.7661999999957,2038.2337999999972,2039.249099999994,2039.7487999999971,2039.7487999999971,2042.208199999996,1917,2042.2082999999975,5,2042.2085000000002,4,21,141,23,1,1.4,0.3,Time
,,614807,001,female,23,2025-06-02_20h40.11.892,Serial_Dependence_U,2023.2.3,Win32,58.8235294117647,,,,,,2042.2086999999956,237,4,2042.2088999999987,237,,,,2046.3497999999972,2046.8502999999973,2045.8347999999974,2046.3496999999957,2043.2003999999988,2045.8345999999942,2046.8502999999973,2047.3496999999957,2047.3496999999957,2049.7500000000005,1814,2049.7500000000005,4,2049.750199999996,4,22,142,9,1,1.6,0.7,Time
,,614807,001,female,23,2025-06-02_20h40.11.892,Serial_Dependence_U,2023.2.3,Win32,58.8235294117647,,,,,,2049.7505,175,4,2049.7505999999944,175,,,,2053.1182999999974,2053.617899999999,2052.604599999994,2053.1180999999942,2050.7682999999975,2052.604599999994,2053.6180000000004,2054.117599999994,2054.1176999999957,2056.4178999999986,1488,2056.418,5,2056.418299999997,4,23,143,15,1,0.8,0.7,Time
,,614807,001,female,23,2025-06-02_20h40.11.892,Serial_Dependence_U,2023.2.3,Win32,58.8235294117647,,,,,,2056.4186999999956,67,4,2056.418799999997,67,,,,2060.401899999999,2060.901899999999,2059.8851999999956,2060.4017999999974,2057.419099999994,2059.8850999999945,2060.902,2061.4017999999974,2061.401899999999,2064.1847999999973,2197,2064.184899999999,5,2064.1850999999942,4,24,144,13,1,1.4,0.3,Time
,,614807,001,female,23,2025-06-02_20h40.11.892,Serial_Dependence_U,2023.2.3,Win32,58.8235294117647,,,,,,2064.185399999999,234,4,2064.185399999999,234,,,,2067.536799999997,2068.0360999999943,2067.0205999999944,2067.5365999999945,2065.1855,2067.020399999999,2068.0360999999943,2068.5360999999943,2068.5360999999943,2071.3353999999986,2582,2071.3355,5,2071.335699999996,4,25,145,25,1,0.8,0.7,Time
,,614807,001,female,23,2025-06-02_20h40.11.892,Serial_Dependence_U,2023.2.3,Win32,58.8235294117647,,,,,,2071.3360000000002,135,4,2071.3360000000002,135,,,,2075.4870999999944,2075.9865999999943,2074.9695999999944,2075.487,2072.337199999996,2074.9695999999944,2075.9865999999943,2076.486099999994,2076.486099999994,2079.7027999999973,2536,2079.702899999999,5,2079.7030999999943,4,26,146,19,1,1.6,0.7,Time
,,614807,001,female,23,2025-06-02_20h40.11.892,Serial_Dependence_U,2023.2.3,Win32,58.8235294117647,,,,,,2079.7032999999974,66,4,2079.703399999999,66,,,,2083.5040000000004,2084.003599999994,2082.988599999994,2083.503899999999,2080.720299999997,2082.988399999999,2084.0036999999957,2084.5033999999987,2084.5033999999987,2086.320299999997,1150,2086.320299999997,3,2086.3205000000003,4,27,147,12,1,1.2,0.3,Time
,,614807,001,female,23,2025-06-02_20h40.11.892,Serial_Dependence_U,2023.2.3,Win32,58.8235294117647,,,,,,2086.3206999999957,269,4,2086.320899999999,269,,,,2090.5042999999973,2091.0047999999974,2089.9890000000005,2090.5041999999958,2087.322,2089.9887999999974,2091.004899999999,2091.504099999994,2091.5041999999958,2093.1207999999974,1570,2093.120899999999,3,2093.121,4,28,148,14,1,1.6,0.3,Time
,,614807,001,female,23,2025-06-02_20h40.11.892,Serial_Dependence_U,2023.2.3,Win32,58.8235294117647,,,,,,2093.121299999997,142,4,2093.1213999999986,142,,,,2097.056,2097.554799999997,2096.5551999999957,2097.055899999999,2094.122899999999,2096.555099999994,2097.5548999999987,2098.0552999999973,2098.055399999999,2100.773,2165,2100.773199999996,5,2100.773599999994,4,29,149,18,1,1.4,0.7,Time
,,614807,001,female,23,2025-06-02_20h40.11.892,Serial_Dependence_U,2023.2.3,Win32,58.8235294117647,,,,,,2100.7742999999973,47,5,2113.073099999994,47,s,12.268600000001697,,2116.4746999999957,2116.9740999999945,2115.959399999999,2116.4745000000003,2114.0905000000002,2115.9592999999973,2116.9740999999945,2117.4737999999975,2117.4737999999975,2119.9906999999957,1931,2119.9907999999973,5,2119.990899999999,5,0,150,20,1,0.8,0.3,Time
,,614807,001,female,23,2025-06-02_20h40.11.892,Serial_Dependence_U,2023.2.3,Win32,58.8235294117647,,,,,,2119.991199999996,220,5,2119.992,220,,,,2123.5422999999973,2124.0408999999986,2123.0253999999986,2123.542199999996,2120.9918999999986,2123.025299999997,2124.0408999999986,2124.541,2124.5410999999945,2127.191599999994,2130,2127.1916999999958,5,2127.191899999999,5,1,151,6,1,1,0.7,Time
,,614807,001,female,23,2025-06-02_20h40.11.892,Serial_Dependence_U,2023.2.3,Win32,58.8235294117647,,,,,,2127.1920999999943,308,5,2127.192199999996,308,,,,2130.543299999997,2131.0422999999973,2130.041599999994,2130.543199999996,2128.2083999999986,2130.0415000000003,2131.0422999999973,2131.5417999999972,2131.541899999999,2133.6931999999956,1527,2133.693299999997,5,2133.693899999999,5,2,152,5,1,0.8,0.7,Time
,,614807,001,female,23,2025-06-02_20h40.11.892,Serial_Dependence_U,2023.2.3,Win32,58.8235294117647,,,,,,2133.6945999999944,43,5,2133.6948999999986,43,,,,2137.859399999999,2138.3586999999957,2137.3493999999987,2137.8592999999973,2134.7090000000003,2137.349299999997,2138.3586999999957,2138.858599999994,2138.858599999994,2141.4425999999944,1633,2141.4425999999944,3,2141.4428999999986,5,3,153,19,1,1.6,0.7,Time
,,614807,001,female,23,2025-06-02_20h40.11.892,Serial_Dependence_U,2023.2.3,Win32,58.8235294117647,,,,,,2141.4430999999945,259,5,2141.443299999997,259,,,,2145.626299999997,2146.1265000000003,2145.1110000000003,2145.626299999997,2142.444399999999,2145.1108999999988,2146.1265000000003,2146.6275,2146.6275999999943,2148.8766999999957,1669,2148.8767999999973,3,2148.8770000000004,5,4,154,24,1,1.6,0.3,Time
,,614807,001,female,23,2025-06-02_20h40.11.892,Serial_Dependence_U,2023.2.3,Win32,58.8235294117647,,,,,,2148.877199999996,324,5,2148.8772999999974,324,,,,2152.827299999997,2153.327599999994,2152.3116999999957,2152.8271999999956,2149.8785000000003,2152.311599999994,2153.3276999999957,2153.8280999999943,2153.828199999996,2156.0775000000003,1632,2156.0775000000003,4,2156.0776999999957,5,5,155,18,1,1.4,0.7,Time
,,614807,001,female,23,2025-06-02_20h40.11.892,Serial_Dependence_U,2023.2.3,Win32,58.8235294117647,,,,,,2156.0780000000004,228,5,2156.0780999999943,228,,,,2159.4447999999975,2159.944199999996,2158.929,2159.4447999999975,2157.0951999999957,2158.928899999999,2159.9442999999974,2160.444399999999,2160.444399999999,2162.6291999999958,1182,2162.6295000000005,5,2162.629899999999,5,6,156,25,1,0.8,0.7,Time
,,614807,001,female,23,2025-06-02_20h40.11.892,Serial_Dependence_U,2023.2.3,Win32,58.8235294117647,,,,,,2162.6305999999945,132,5,2162.630799999997,132,,,,2166.028399999999,2166.5290000000005,2165.5125000000003,2166.028399999999,2163.6447999999973,2165.5123999999987,2166.5290000000005,2167.0290000000005,2167.0290999999943,2169.1622999999972,943,2169.1622999999972,4,2169.1625000000004,5,7,157,0,1,0.8,0.3,Time
,,614807,001,female,23,2025-06-02_20h40.11.892,Serial_Dependence_U,2023.2.3,Win32,58.8235294117647,,,,,,2169.1626999999958,333,5,2169.1627999999973,333,,,,2173.162599999994,2173.6630999999943,2172.6472999999974,2173.1625000000004,2170.1793999999986,2172.647199999996,2173.6630999999943,2174.162099999994,2174.1621999999957,2176.2463999999986,1561,2176.2463999999986,4,2176.2465999999945,5,8,158,23,1,1.4,0.3,Time
,,614807,001,female,23,2025-06-02_20h40.11.892,Serial_Dependence_U,2023.2.3,Win32,58.8235294117647,,,,,,2176.246799999997,107,5,2176.2470000000003,107,,,,2179.9975999999942,2180.496299999997,2179.481299999997,2179.9975000000004,2177.2477999999974,2179.4810999999945,2180.496299999997,2180.9965,2180.9966999999956,2182.9133999999985,1467,2182.9135,4,2182.913699999996,5,9,159,17,1,1.2,0.7,Time
,,614807,001,female,23,2025-06-02_20h40.11.892,Serial_Dependence_U,2023.2.3,Win32,58.8235294117647,,,,,,2182.914,290,5,2182.9140999999945,290,,,,2187.1151999999956,2187.6140000000005,2186.598399999999,2187.1150999999945,2183.9313999999986,2186.5982999999974,2187.6140000000005,2188.1142999999975,2188.1142999999975,2190.398,1600,2190.3980999999944,3,2190.3985000000002,5,10,160,4,1,1.6,0.3,Time
,,614807,001,female,23,2025-06-02_20h40.11.892,Serial_Dependence_U,2023.2.3,Win32,58.8235294117647,,,,,,2190.398899999999,299,5,2190.3990000000003,299,,,,2194.182899999999,2194.682099999994,2193.6815999999944,2194.1826999999957,2191.4145000000003,2193.6815,2194.682099999994,2195.181699999996,2195.181699999996,2197.5145,1752,2197.5145,5,2197.5146999999956,5,11,161,22,1,1.2,0.3,Time
,,614807,001,female,23,2025-06-02_20h40.11.892,Serial_Dependence_U,2023.2.3,Win32,58.8235294117647,,,,,,2197.515099999994,319,5,2197.5152999999973,319,,,,2201.4997999999973,2201.9997999999973,2200.9985999999944,2201.499599999994,2198.531699999996,2200.9985,2201.9997999999973,2202.499299999997,2202.499399999999,2204.883399999999,1648,2204.883399999999,4,2204.883899999999,5,12,162,13,1,1.4,0.3,Time
,,614807,001,female,23,2025-06-02_20h40.11.892,Serial_Dependence_U,2023.2.3,Win32,58.8235294117647,,,,,,2204.8845,120,5,2204.884799999997,120,,,,2208.6173999999987,2209.1165999999944,2208.1162999999974,2208.617299999997,2205.883899999999,2208.1160999999943,2209.116699999996,2209.616699999996,2209.616699999996,2211.9837999999972,1505,2211.983899999999,4,2211.9842999999973,5,13,163,27,1,1.2,0.7,Time
,,614807,001,female,23,2025-06-02_20h40.11.892,Serial_Dependence_U,2023.2.3,Win32,58.8235294117647,,,,,,2211.9848999999986,209,5,2211.985,209,,,,2215.7840999999944,2216.284299999997,2215.2672999999972,2215.784,2212.9996999999958,2215.2671999999957,2216.284299999997,2216.783699999996,2216.783699999996,2218.8501999999958,1387,2218.8501999999958,4,2218.850399999999,5,14,164,12,1,1.2,0.3,Time
,,614807,001,female,23,2025-06-02_20h40.11.892,Serial_Dependence_U,2023.2.3,Win32,58.8235294117647,,,,,,2218.850699999996,68,5,2218.8507999999974,68,,,,2222.617599999994,2223.1180999999942,2222.101,2222.6175000000003,2219.868399999999,2222.1008999999985,2223.1180999999942,2223.618199999996,2223.618199999996,2225.050899999999,979,2225.050899999999,2,2225.051099999994,5,15,165,7,1,1.2,0.7,Time
,,614807,001,female,23,2025-06-02_20h40.11.892,Serial_Dependence_U,2023.2.3,Win32,58.8235294117647,,,,,,2225.051399999999,276,5,2225.051399999999,276,,,,2228.634799999997,2229.1353999999915,2228.1190999999944,2228.6347000000032,2226.0525000000002,2228.119,2229.1353999999915,2229.6352000000034,2229.6352000000034,2231.4682000000034,1365,2231.4682000000034,5,2231.468399999991,5,16,166,21,1,1,0.3,Time
,,614807,001,female,23,2025-06-02_20h40.11.892,Serial_Dependence_U,2023.2.3,Win32,58.8235294117647,,,,,,2231.4685999999942,330,5,2231.4687999999974,330,,,,2235.0702000000033,2235.569399999991,2234.5527000000034,2235.07,2232.485799999997,2234.5525000000002,2235.5695,2236.0692999999974,2236.069399999991,2238.0855999999944,1403,2238.0857000000033,5,2238.0860000000002,5,17,167,11,1,1,0.3,Time
,,614807,001,female,23,2025-06-02_20h40.11.892,Serial_Dependence_U,2023.2.3,Win32,58.8235294117647,,,,,,2238.086299999997,149,5,2238.086599999994,149,,,,2241.4375999999943,2241.9357999999975,2240.9365000000003,2241.4375000000005,2239.1033999999913,2240.9363999999914,2241.9357999999975,2242.4368999999915,2242.437099999994,2243.9695,937,2243.9695,4,2243.9695999999944,5,18,168,15,1,0.8,0.7,Time
,,614807,001,female,23,2025-06-02_20h40.11.892,Serial_Dependence_U,2023.2.3,Win32,58.8235294117647,,,,,,2243.9698999999914,142,5,2243.9700000000003,142,,,,2247.3385000000003,2247.836899999991,2246.8367999999973,2247.3382000000033,2244.970700000003,2246.8367999999973,2247.8370000000004,2248.3373999999912,2248.3375,2250.5707999999972,1457,2250.5708999999915,5,2250.571200000003,5,19,169,10,1,0.8,0.3,Time
,,614807,001,female,23,2025-06-02_20h40.11.892,Serial_Dependence_U,2023.2.3,Win32,58.8235294117647,,,,,,2250.571700000003,90,5,2250.572,90,,,,2254.3722999999973,2254.8713999999914,2253.8645,2254.3720000000003,2251.5870999999943,2253.8643999999913,2254.8715,2255.3715,2255.3715,2257.254099999994,1464,2257.254099999994,4,2257.2542999999973,5,20,170,2,1,1.2,0.3,Time
,,614807,001,female,23,2025-06-02_20h40.11.892,Serial_Dependence_U,2023.2.3,Win32,58.8235294117647,,,,,,2257.2545999999943,92,5,2257.254700000003,92,,,,2261.237799999997,2261.7390000000005,2260.722599999994,2261.237799999997,2258.2555,2260.7223999999915,2261.7390000000005,2262.238700000003,2262.2387999999974,2264.6217000000033,1913,2264.621799999997,5,2264.6220000000003,5,21,171,3,1,1.4,0.3,Time
,,614807,001,female,23,2025-06-02_20h40.11.892,Serial_Dependence_U,2023.2.3,Win32,58.8235294117647,,,,,,2264.6222000000034,161,5,2264.6222999999973,161,,,,2268.773599999994,2269.2725,2268.2560000000003,2268.7733999999914,2265.622899999991,2268.2558999999915,2269.2725,2269.7722999999974,2269.7722999999974,2272.0720999999944,1854,2272.0722000000032,4,2272.072299999997,5,22,172,9,1,1.6,0.7,Time
,,614807,001,female,23,2025-06-02_20h40.11.892,Serial_Dependence_U,2023.2.3,Win32,58.8235294117647,,,,,,2272.0725,347,5,2272.0725999999945,347,,,,2275.6730999999945,2276.1730000000002,2275.1578999999915,2275.6730999999945,2273.0897999999975,2275.1577000000034,2276.1730000000002,2276.6727000000033,2276.6727000000033,2279.539599999994,1665,2279.5397000000034,5,2279.539899999991,5,23,173,1,1,1,0.3,Time
,,614807,001,female,23,2025-06-02_20h40.11.892,Serial_Dependence_U,2023.2.3,Win32,58.8235294117647,,,,,,2279.540200000003,24,5,2279.540200000003,24,,,,2283.707099999994,2284.206299999997,2283.1907000000033,2283.707099999994,2280.557099999994,2283.1905999999944,2284.206299999997,2284.7075999999943,2284.7075999999943,2287.4240000000004,2267,2287.4240999999943,5,2287.424200000003,5,24,174,29,1,1.6,0.7,Time
,,614807,001,female,23,2025-06-02_20h40.11.892,Serial_Dependence_U,2023.2.3,Win32,58.8235294117647,,,,,,2287.4245,342,5,2287.4245999999944,342,,,,2291.3750000000005,2291.874700000003,2290.8592999999973,2291.374899999991,2288.4245999999944,2290.859099999994,2291.8747999999973,2292.3742000000034,2292.3742000000034,2294.9077000000034,1850,2294.907799999997,5,2294.9078999999915,5,25,175,8,1,1.4,0.7,Time
,,614807,001,female,23,2025-06-02_20h40.11.892,Serial_Dependence_U,2023.2.3,Win32,58.8235294117647,,,,,,2294.908099999994,150,5,2294.9082999999973,150,,,,2298.4750000000004,2298.975700000003,2297.959599999994,2298.4748999999915,2295.924700000003,2297.9595000000004,2298.975700000003,2299.4752999999973,2299.475399999991,2301.6753999999914,1770,2301.675599999994,5,2301.6757999999973,5,26,176,16,1,1,0.7,Time
,,614807,001,female,23,2025-06-02_20h40.11.892,Serial_Dependence_U,2023.2.3,Win32,58.8235294117647,,,,,,2301.676099999994,250,5,2301.6762999999974,250,,,,2305.859700000003,2306.359700000003,2305.3440999999943,2305.8595000000005,2302.6768999999913,2305.343899999991,2306.359700000003,2306.8587999999972,2306.8587999999972,2309.9422999999974,2124,2309.9422999999974,5,2309.9425,5,27,177,14,1,1.6,0.3,Time
,,614807,001,female,23,2025-06-02_20h40.11.892,Serial_Dependence_U,2023.2.3,Win32,58.8235294117647,,,,,,2309.9427000000032,42,5,2309.942799999997,42,,,,2313.4940999999944,2313.9927000000034,2312.977899999991,2313.4940999999944,2310.9432000000033,2312.977700000003,2313.9927000000034,2314.494,2314.494,2317.0600000000004,1744,2317.0600000000004,5,2317.060200000003,5,28,178,26,1,1,0.7,Time
,,614807,001,female,23,2025-06-02_20h40.11.892,Serial_Dependence_U,2023.2.3,Win32,58.8235294117647,,,,,,2317.0605,71,5,2317.0605,71,,,,2321.0117999999975,2321.511399999991,2320.4948999999915,2321.011700000003,2318.060399999991,2320.494799999997,2321.511399999991,2322.0110000000004,2322.0110000000004,2324.943899999991,1912,2324.9440000000004,5,2324.944200000003,5,29,179,28,1,1.4,0.7,Time
,,614807,001,female,23,2025-06-02_20h40.11.892,Serial_Dependence_U,2023.2.3,Win32,58.8235294117647,,,,,,2324.944399999991,212,6,2327.561299999997,212,s,2.583600000009028,,2331.5462000000034,2332.0448999999912,2331.029799999997,2331.546099999994,2328.5625999999943,2331.0297000000032,2332.0448999999912,2332.5448999999912,2332.5448999999912,2335.1948999999913,1952,2335.195,5,2335.1950999999945,6,0,180,13,1,1.4,0.3,Time
,,614807,001,female,23,2025-06-02_20h40.11.892,Serial_Dependence_U,2023.2.3,Win32,58.8235294117647,,,,,,2335.1953999999914,331,6,2335.196200000003,331,,,,2338.947,2339.4457999999972,2338.4460000000004,2338.9467999999974,2336.2133999999915,2338.4457999999972,2339.4457999999972,2339.946399999991,2339.946399999991,2342.5627999999974,1984,2342.5627999999974,5,2342.563,6,1,181,27,1,1.2,0.7,Time
,,614807,001,female,23,2025-06-02_20h40.11.892,Serial_Dependence_U,2023.2.3,Win32,58.8235294117647,,,,,,2342.563299999997,173,6,2342.5633999999914,173,,,,2346.5478999999914,2347.0463999999915,2346.046899999991,2346.547799999997,2343.5812000000033,2346.046700000003,2347.0463999999915,2347.546599999994,2347.546599999994,2350.0135999999943,1432,2350.013700000003,3,2350.0137999999974,6,2,182,3,1,1.4,0.3,Time
,,614807,001,female,23,2025-06-02_20h40.11.892,Serial_Dependence_U,2023.2.3,Win32,58.8235294117647,,,,,,2350.0142000000033,136,6,2350.0142000000033,136,,,,2353.3885000000005,2353.8812000000034,2352.8640000000005,2353.3885000000005,2351.0302000000033,2352.8640000000005,2353.8812000000034,2354.3812000000034,2354.3812000000034,2356.4817999999973,1502,2356.4817999999973,5,2356.4822999999974,6,3,183,15,1,0.8,0.7,Time
,,614807,001,female,23,2025-06-02_20h40.11.892,Serial_Dependence_U,2023.2.3,Win32,58.8235294117647,,,,,,2356.4828999999913,25,6,2356.4830999999945,25,,,,2360.6310000000003,2361.1315000000004,2360.116799999997,2360.6308999999915,2357.4822999999974,2360.1165999999944,2361.1315000000004,2361.632,2361.6320999999944,2363.673599999994,1867,2363.6737000000035,4,2363.6737999999973,6,4,184,29,1,1.6,0.7,Time
,,614807,001,female,23,2025-06-02_20h40.11.892,Serial_Dependence_U,2023.2.3,Win32,58.8235294117647,,,,,,2363.6740000000004,280,6,2363.674200000003,280,,,,2367.4565999999945,2367.948899999991,2366.9332999999974,2367.4565999999945,2364.6650999999943,2366.9330999999943,2367.948899999991,2368.4490999999944,2368.4490999999944,2370.5485000000003,1570,2370.548599999994,5,2370.5487999999973,6,5,185,22,1,1.2,0.3,Time
,,614807,001,female,23,2025-06-02_20h40.11.892,Serial_Dependence_U,2023.2.3,Win32,58.8235294117647,,,,,,2370.5490999999943,358,6,2370.5490999999943,358,,,,2374.749700000003,2375.2490000000003,2374.2337999999972,2374.749700000003,2371.566299999997,2374.2337000000034,2375.249099999994,2375.7500000000005,2375.7500000000005,2378.1992999999975,1767,2378.1992999999975,4,2378.1995999999945,6,6,186,14,1,1.6,0.3,Time
,,614807,001,female,23,2025-06-02_20h40.11.892,Serial_Dependence_U,2023.2.3,Win32,58.8235294117647,,,,,,2378.1998999999914,296,6,2378.1998999999914,296,,,,2382.151099999994,2382.6507000000033,2381.6347000000032,2382.1508999999915,2379.2000000000003,2381.6345999999944,2382.6507000000033,2383.1505,2383.1505999999945,2385.6668999999915,1917,2385.6668999999915,5,2385.667099999994,6,7,187,8,1,1.4,0.7,Time
,,614807,001,female,23,2025-06-02_20h40.11.892,Serial_Dependence_U,2023.2.3,Win32,58.8235294117647,,,,,,2385.667399999991,205,6,2385.6675999999943,205,,,,2389.0687999999973,2389.5670000000005,2388.551700000003,2389.0687000000034,2386.683799999997,2388.5515999999943,2389.5670000000005,2390.0685000000003,2390.0685000000003,2391.2842000000032,700,2391.2842000000032,2,2391.2843999999914,6,8,188,20,1,0.8,0.3,Time
,,614807,001,female,23,2025-06-02_20h40.11.892,Serial_Dependence_U,2023.2.3,Win32,58.8235294117647,,,,,,2391.2847000000033,283,6,2391.284799999997,283,,,,2395.4518999999914,2395.9522000000034,2394.9357999999975,2395.4517000000033,2392.3022000000033,2394.9355999999943,2395.9522000000034,2396.4520999999945,2396.4522000000034,2398.8015000000005,2013,2398.8015000000005,4,2398.801700000003,6,9,189,9,1,1.6,0.7,Time
,,614807,001,female,23,2025-06-02_20h40.11.892,Serial_Dependence_U,2023.2.3,Win32,58.8235294117647,,,,,,2398.8018999999913,193,6,2398.802,193,,,,2402.1852999999974,2402.685700000003,2401.6685999999945,2402.1850999999942,2399.8027000000034,2401.6685,2402.6857999999975,2403.1857999999975,2403.1857999999975,2405.4532999999974,1689,2405.4533999999912,5,2405.4538999999913,6,10,190,10,1,0.8,0.3,Time
,,614807,001,female,23,2025-06-02_20h40.11.892,Serial_Dependence_U,2023.2.3,Win32,58.8235294117647,,,,,,2405.4543999999914,276,6,2405.4547000000034,276,,,,2409.0205999999944,2409.5197999999973,2408.504200000003,2409.0205,2406.469200000003,2408.504099999994,2409.519899999991,2410.019299999997,2410.0193999999915,2412.4030000000002,1831,2412.403099999994,5,2412.403299999997,6,11,191,26,1,1,0.7,Time
,,614807,001,female,23,2025-06-02_20h40.11.892,Serial_Dependence_U,2023.2.3,Win32,58.8235294117647,,,,,,2412.403599999994,214,6,2412.403700000003,214,,,,2415.9540999999945,2416.4542000000033,2415.4377999999974,2415.954,2413.4040999999943,2415.4375999999943,2416.4542000000033,2416.9542000000033,2416.954299999997,2419.370399999991,1934,2419.3705000000004,5,2419.3707999999974,6,12,192,16,1,1,0.7,Time
,,614807,001,female,23,2025-06-02_20h40.11.892,Serial_Dependence_U,2023.2.3,Win32,58.8235294117647,,,,,,2419.371,156,6,2419.3710999999944,156,,,,2423.155299999997,2423.6545,2422.6382999999973,2423.1552000000033,2420.3720000000003,2422.638200000003,2423.6545999999944,2424.1548999999914,2424.1548999999914,2426.954299999997,2109,2426.954299999997,5,2426.9545000000003,6,13,193,12,1,1.2,0.3,Time
,,614807,001,female,23,2025-06-02_20h40.11.892,Serial_Dependence_U,2023.2.3,Win32,58.8235294117647,,,,,,2426.9547999999972,174,6,2426.9547999999972,174,,,,2430.555099999994,2431.055399999991,2430.0392000000033,2430.5550000000003,2427.9715999999944,2430.039,2431.055399999991,2431.5552000000034,2431.5552999999973,2433.405299999997,1280,2433.4053999999915,4,2433.405599999994,6,14,194,21,1,1,0.3,Time
,,614807,001,female,23,2025-06-02_20h40.11.892,Serial_Dependence_U,2023.2.3,Win32,58.8235294117647,,,,,,2433.4057999999973,197,6,2433.4060999999942,197,,,,2437.155899999991,2437.655,2436.639,2437.1557999999973,2434.405599999994,2436.6388999999913,2437.6550999999945,2438.156200000003,2438.1562999999974,2440.8390000000004,1313,2440.8390000000004,4,2440.839200000003,6,15,195,17,1,1.2,0.7,Time
,,614807,001,female,23,2025-06-02_20h40.11.892,Serial_Dependence_U,2023.2.3,Win32,58.8235294117647,,,,,,2440.8395,40,6,2440.8395999999943,40,,,,2444.3907999999974,2444.8893999999914,2443.8745000000004,2444.390700000003,2441.8397999999975,2443.8743999999915,2444.8893999999914,2445.3900000000003,2445.3900000000003,2447.039599999994,1057,2447.039599999994,4,2447.039899999991,6,16,196,6,1,1,0.7,Time
,,614807,001,female,23,2025-06-02_20h40.11.892,Serial_Dependence_U,2023.2.3,Win32,58.8235294117647,,,,,,2447.0400999999943,69,6,2447.0402999999974,69,,,,2451.1903999999913,2451.6897999999974,2450.6740000000004,2451.1903999999913,2448.0410999999945,2450.6740000000004,2451.6897999999974,2452.1900999999943,2452.190200000003,2454.1237000000033,1333,2454.1237000000033,2,2454.1238999999914,6,17,197,19,1,1.6,0.7,Time
,,614807,001,female,23,2025-06-02_20h40.11.892,Serial_Dependence_U,2023.2.3,Win32,58.8235294117647,,,,,,2454.1242000000034,259,6,2454.124299999997,259,,,,2457.4912999999974,2457.9913999999912,2456.984399999991,2457.4912999999974,2455.141799999997,2456.984200000003,2457.9915,2458.4915999999944,2458.491700000003,2460.3075000000003,1167,2460.307599999994,5,2460.307899999991,6,18,198,25,1,0.8,0.7,Time
,,614807,001,female,23,2025-06-02_20h40.11.892,Serial_Dependence_U,2023.2.3,Win32,58.8235294117647,,,,,,2460.308200000003,175,6,2460.3082999999974,175,,,,2463.692799999997,2464.1910000000003,2463.1752000000033,2463.6927000000032,2461.3095000000003,2463.1752000000033,2464.1910000000003,2464.6915000000004,2464.691599999994,2467.6417000000033,1368,2467.6417000000033,5,2467.6418999999914,6,19,199,0,1,0.8,0.3,Time
,,614807,001,female,23,2025-06-02_20h40.11.892,Serial_Dependence_U,2023.2.3,Win32,58.8235294117647,,,,,,2467.6422000000034,109,6,2467.6422999999972,109,,,,2471.4258999999915,2471.925599999994,2470.910399999991,2471.4257999999973,2468.6435,2470.9102000000034,2471.925599999994,2472.425299999997,2472.425299999997,2474.5260000000003,1849,2474.5260000000003,5,2474.5262000000034,6,20,200,2,1,1.2,0.3,Time
,,614807,001,female,23,2025-06-02_20h40.11.892,Serial_Dependence_U,2023.2.3,Win32,58.8235294117647,,,,,,2474.5265000000004,112,6,2474.5265999999942,112,,,,2478.4763999999914,2478.9770000000003,2477.9595000000004,2478.476299999997,2475.527200000003,2477.9592999999973,2478.9770000000003,2479.476299999997,2479.476299999997,2481.2765999999942,1746,2481.2765999999942,4,2481.276899999991,6,21,201,28,1,1.4,0.7,Time
,,614807,001,female,23,2025-06-02_20h40.11.892,Serial_Dependence_U,2023.2.3,Win32,58.8235294117647,,,,,,2481.277200000003,130,6,2481.2773999999913,130,,,,2485.4772999999973,2485.977399999991,2484.9603999999913,2485.4772000000034,2482.293299999997,2484.9602999999975,2485.9775999999943,2486.478,2486.478,2489.0607999999975,1717,2489.0608999999913,4,2489.061,6,22,202,4,1,1.6,0.3,Time
,,614807,001,female,23,2025-06-02_20h40.11.892,Serial_Dependence_U,2023.2.3,Win32,58.8235294117647,,,,,,2489.061299999997,8,6,2489.0613999999914,8,,,,2492.4122999999972,2492.9110999999943,2491.903299999997,2492.4122000000034,2490.062099999994,2491.9032000000034,2492.9110999999943,2493.4115,2493.4115,2495.4533999999912,1333,2495.4535,5,2495.4535999999944,6,23,203,5,1,0.8,0.7,Time
,,614807,001,female,23,2025-06-02_20h40.11.892,Serial_Dependence_U,2023.2.3,Win32,58.8235294117647,,,,,,2495.4537999999975,163,6,2495.4538999999913,163,,,,2499.2133999999915,2499.712200000003,2498.6968999999913,2499.2132000000033,2496.4620999999943,2498.696700000003,2499.712200000003,2500.211299999997,2500.2113999999915,2502.512,1576,2502.512,5,2502.512299999997,6,24,204,7,1,1.2,0.7,Time
,,614807,001,female,23,2025-06-02_20h40.11.892,Serial_Dependence_U,2023.2.3,Win32,58.8235294117647,,,,,,2502.512599999994,347,6,2502.5127000000034,347,,,,2506.0960000000005,2506.596799999997,2505.5805999999943,2506.095899999991,2503.5138999999913,2505.5805000000005,2506.5968999999914,2507.096200000003,2507.0962999999974,2509.5462000000034,1715,2509.5462000000034,5,2509.5463999999915,6,25,205,1,1,1,0.3,Time
,,614807,001,female,23,2025-06-02_20h40.11.892,Serial_Dependence_U,2023.2.3,Win32,58.8235294117647,,,,,,2509.546599999994,277,6,2509.5467999999973,277,,,,2513.4965999999945,2513.9965999999945,2512.9815000000003,2513.4965999999945,2510.5470000000005,2512.981299999997,2513.9967000000033,2514.4962000000032,2514.4962000000032,2517.1463999999914,1598,2517.1465000000003,4,2517.146599999994,6,26,206,18,1,1.4,0.7,Time
,,614807,001,female,23,2025-06-02_20h40.11.892,Serial_Dependence_U,2023.2.3,Win32,58.8235294117647,,,,,,2517.1468999999915,307,6,2517.1470000000004,307,,,,2521.347899999991,2521.8467000000032,2520.831799999997,2521.3477999999973,2518.1637000000032,2520.8315999999945,2521.8467000000032,2522.3480999999942,2522.3480999999942,2525.014,1617,2525.014,3,2525.0142000000033,6,27,207,24,1,1.6,0.3,Time
,,614807,001,female,23,2025-06-02_20h40.11.892,Serial_Dependence_U,2023.2.3,Win32,58.8235294117647,,,,,,2525.0143999999914,352,6,2525.0145999999945,352,,,,2528.9988999999914,2529.4980999999943,2528.4820999999943,2528.9987000000033,2526.0155000000004,2528.481899999991,2529.4980999999943,2529.9980999999943,2529.9980999999943,2532.6145999999944,1740,2532.6147000000033,4,2532.6148999999914,6,28,208,23,1,1.4,0.3,Time
,,614807,001,female,23,2025-06-02_20h40.11.892,Serial_Dependence_U,2023.2.3,Win32,58.8235294117647,,,,,,2532.6153999999915,171,6,2532.6155000000003,171,,,,2536.1997000000033,2536.6993999999913,2535.6835999999944,2536.1995999999945,2533.616200000003,2535.6833999999913,2536.6993999999913,2537.1990999999944,2537.1992999999975,2539.4823999999912,1595,2539.4825,5,2539.482700000003,6,29,209,11,1,1,0.3,Time
,,614807,001,female,23,2025-06-02_20h40.11.892,Serial_Dependence_U,2023.2.3,Win32,58.8235294117647,,,,,,2539.4828999999913,59,7,2541.9000999999944,59,s,2.3849000000059277,,2545.8837999999973,2546.3835000000004,2545.3670999999945,2545.883700000003,2542.8995999999943,2545.367,2546.3835000000004,2546.8837999999973,2546.883899999991,2551.8177000000032,1423,2551.817799999997,3,2551.8183999999915,7,0,210,23,1,1.4,0.3,Time
,,614807,001,female,23,2025-06-02_20h40.11.892,Serial_Dependence_U,2023.2.3,Win32,58.8235294117647,,,,,,2551.8190999999943,126,7,2551.822,126,,,,2556.002200000003,2556.5007000000032,2555.4848999999913,2556.0020000000004,2552.8185000000003,2555.4847999999974,2556.5007000000032,2557.0008999999914,2557.0008999999914,2558.8685999999943,1152,2558.8687999999975,2,2558.8692000000033,7,1,211,4,1,1.6,0.3,Time
,,614807,001,female,23,2025-06-02_20h40.11.892,Serial_Dependence_U,2023.2.3,Win32,58.8235294117647,,,,,,2558.869799999997,356,7,2558.8702999999973,356,,,,2563.017899999991,2563.518799999997,2562.502200000003,2563.0177999999974,2559.869,2562.5020000000004,2563.518799999997,2564.0197999999973,2564.019899999991,2566.6180999999942,1905,2566.618200000003,4,2566.6182999999974,7,2,212,29,1,1.6,0.7,Time
,,614807,001,female,23,2025-06-02_20h40.11.892,Serial_Dependence_U,2023.2.3,Win32,58.8235294117647,,,,,,2566.6185999999943,134,7,2566.6187999999975,134,,,,2570.2187999999974,2570.7182999999973,2569.7023999999915,2570.2185999999942,2567.6350999999945,2569.702299999997,2570.718399999991,2571.2193999999913,2571.2193999999913,2572.7852999999973,1400,2572.7852999999973,5,2572.7855000000004,7,3,213,21,1,1,0.3,Time
,,614807,001,female,23,2025-06-02_20h40.11.892,Serial_Dependence_U,2023.2.3,Win32,58.8235294117647,,,,,,2572.7857999999974,155,7,2572.785899999991,155,,,,2576.3543999999915,2576.8532999999975,2575.8373999999912,2576.3542000000034,2573.8025000000002,2575.8372999999974,2576.8532999999975,2577.352399999991,2577.352399999991,2580.2362000000035,1477,2580.2362999999973,5,2580.2365000000004,7,4,214,6,1,1,0.7,Time
,,614807,001,female,23,2025-06-02_20h40.11.892,Serial_Dependence_U,2023.2.3,Win32,58.8235294117647,,,,,,2580.2367999999974,106,7,2580.237,106,,,,2583.6035,2584.1032999999975,2583.087700000003,2583.6033999999913,2581.253799999997,2583.0875,2584.1033999999913,2584.6032999999975,2584.6032999999975,2586.4698999999914,1306,2586.4700000000003,5,2586.470099999994,7,5,215,25,1,0.8,0.7,Time
,,614807,001,female,23,2025-06-02_20h40.11.892,Serial_Dependence_U,2023.2.3,Win32,58.8235294117647,,,,,,2586.4703999999915,353,7,2586.4705000000004,353,,,,2590.0543999999913,2590.5537999999974,2589.5388999999914,2590.054299999997,2587.471799999997,2589.538799999997,2590.5537999999974,2591.0535999999943,2591.053700000003,2593.3477999999973,1515,2593.347899999991,5,2593.348200000003,7,6,216,1,1,1,0.3,Time
,,614807,001,female,23,2025-06-02_20h40.11.892,Serial_Dependence_U,2023.2.3,Win32,58.8235294117647,,,,,,2593.348700000003,43,7,2593.3488999999913,43,,,,2596.8892000000033,2597.3882999999973,2596.3877000000034,2596.8890999999944,2594.3558999999914,2596.3877000000034,2597.3882999999973,2597.8885999999943,2597.8885999999943,2599.921899999991,1350,2599.9220000000005,5,2599.922200000003,7,7,217,26,1,1,0.7,Time
,,614807,001,female,23,2025-06-02_20h40.11.892,Serial_Dependence_U,2023.2.3,Win32,58.8235294117647,,,,,,2599.9225,302,7,2599.9225999999944,302,,,,2603.8720000000003,2604.373,2603.360299999997,2603.8718999999915,2600.923299999997,2603.3600999999944,2604.3730999999943,2604.8718999999915,2604.8718999999915,2607.1647000000034,1534,2607.1647999999973,4,2607.1650000000004,7,8,218,18,1,1.4,0.7,Time
,,614807,001,female,23,2025-06-02_20h40.11.892,Serial_Dependence_U,2023.2.3,Win32,58.8235294117647,,,,,,2607.165200000003,292,7,2607.1652999999974,292,,,,2610.5580999999943,2611.056799999997,2610.0400999999943,2610.557899999991,2608.1727000000033,2610.039899999991,2611.056799999997,2611.5563999999913,2611.5565,2613.9065,1336,2613.9065999999943,5,2613.9067999999975,7,9,219,0,1,0.8,0.3,Time
,,614807,001,female,23,2025-06-02_20h40.11.892,Serial_Dependence_U,2023.2.3,Win32,58.8235294117647,,,,,,2613.907,42,7,2613.9072000000033,42,,,,2617.2902999999974,2617.7905999999944,2616.774200000003,2617.290200000003,2614.908200000003,2616.7740000000003,2617.790700000003,2618.290700000003,2618.2907999999975,2620.5567000000033,1572,2620.5568999999914,5,2620.557099999994,7,10,220,10,1,0.8,0.3,Time
,,614807,001,female,23,2025-06-02_20h40.11.892,Serial_Dependence_U,2023.2.3,Win32,58.8235294117647,,,,,,2620.5575000000003,202,7,2620.557599999994,202,,,,2624.6925,2625.1908999999914,2624.190799999997,2624.6922999999974,2621.5585999999944,2624.1907000000033,2625.1908999999914,2625.691299999997,2625.691299999997,2628.024399999991,1748,2628.0245999999943,4,2628.024700000003,7,11,221,19,1,1.6,0.7,Time
,,614807,001,female,23,2025-06-02_20h40.11.892,Serial_Dependence_U,2023.2.3,Win32,58.8235294117647,,,,,,2628.0248999999912,4,7,2628.0250999999944,4,,,,2631.8097000000034,2632.3085999999944,2631.3082999999974,2631.809599999994,2629.0415000000003,2631.308200000003,2632.3087000000032,2632.8087000000032,2632.8087000000032,2635.408200000003,1590,2635.408200000003,5,2635.408399999991,7,12,222,12,1,1.2,0.3,Time
,,614807,001,female,23,2025-06-02_20h40.11.892,Serial_Dependence_U,2023.2.3,Win32,58.8235294117647,,,,,,2635.4085999999943,285,7,2635.408700000003,285,,,,2639.3938999999914,2639.892700000003,2638.892899999991,2639.3937000000033,2636.4267999999975,2638.8927999999974,2639.892700000003,2640.392700000003,2640.392700000003,2643.3758999999914,1867,2643.376,5,2643.376299999997,7,13,223,3,1,1.4,0.3,Time
,,614807,001,female,23,2025-06-02_20h40.11.892,Serial_Dependence_U,2023.2.3,Win32,58.8235294117647,,,,,,2643.376599999994,344,7,2643.3767999999973,344,,,,2646.9437000000034,2647.4427000000032,2646.427,2646.9435000000003,2644.3935999999944,2646.4268999999913,2647.4427000000032,2647.9430999999945,2647.9430999999945,2650.559899999991,1716,2650.5600000000004,5,2650.560200000003,7,14,224,16,1,1,0.7,Time
,,614807,001,female,23,2025-06-02_20h40.11.892,Serial_Dependence_U,2023.2.3,Win32,58.8235294117647,,,,,,2650.560399999991,340,7,2650.5605999999943,340,,,,2654.144299999997,2654.6442000000034,2653.6285000000003,2654.1442000000034,2651.5615000000003,2653.6283999999914,2654.6442000000034,2655.144299999997,2655.144299999997,2657.477099999994,1385,2657.477099999994,5,2657.4772999999973,7,15,225,11,1,1,0.3,Time
,,614807,001,female,23,2025-06-02_20h40.11.892,Serial_Dependence_U,2023.2.3,Win32,58.8235294117647,,,,,,2657.4775000000004,67,7,2657.4775999999943,67,,,,2660.8450000000003,2661.3452000000034,2660.344200000003,2660.844799999997,2658.478799999997,2660.3440999999943,2661.3452000000034,2661.8445,2661.8445,2664.5612000000033,1726,2664.5612000000033,5,2664.561299999997,7,16,226,20,1,0.8,0.3,Time
,,614807,001,female,23,2025-06-02_20h40.11.892,Serial_Dependence_U,2023.2.3,Win32,58.8235294117647,,,,,,2664.5615000000003,346,7,2664.5617000000034,346,,,,2667.8963999999914,2668.394899999991,2667.3955,2667.896299999997,2665.561599999994,2667.3953999999912,2668.3950000000004,2668.8950000000004,2668.8950000000004,2670.6168999999913,1112,2670.6168999999913,5,2670.6172000000033,7,17,227,15,1,0.8,0.7,Time
,,614807,001,female,23,2025-06-02_20h40.11.892,Serial_Dependence_U,2023.2.3,Win32,58.8235294117647,,,,,,2670.617599999994,211,7,2670.6177999999973,211,,,,2674.3633999999915,2674.8623999999913,2673.8465,2674.3632000000034,2671.613599999994,2673.8463999999913,2674.8625,2675.3622999999975,2675.3622999999975,2677.246,1031,2677.2460999999944,2,2677.246299999997,7,18,228,7,1,1.2,0.7,Time
,,614807,001,female,23,2025-06-02_20h40.11.892,Serial_Dependence_U,2023.2.3,Win32,58.8235294117647,,,,,,2677.2465999999945,344,7,2677.2467000000033,344,,,,2681.0475,2681.5475999999944,2680.5310999999942,2681.0472999999974,2678.2630000000004,2680.5310000000004,2681.5475999999944,2682.0462000000034,2682.0462999999972,2684.263399999991,1429,2684.263399999991,4,2684.2635999999943,7,19,229,2,1,1.2,0.3,Time
,,614807,001,female,23,2025-06-02_20h40.11.892,Serial_Dependence_U,2023.2.3,Win32,58.8235294117647,,,,,,2684.264,76,7,2684.2642000000033,76,,,,2688.448700000003,2688.9477000000034,2687.947299999997,2688.4485000000004,2685.281200000003,2687.9472000000032,2688.947799999997,2689.448899999991,2689.448899999991,2691.7477999999974,934,2691.747899999991,1,2691.7480999999943,7,20,230,24,1,1.6,0.3,Time
,,614807,001,female,23,2025-06-02_20h40.11.892,Serial_Dependence_U,2023.2.3,Win32,58.8235294117647,,,,,,2691.7483999999913,233,7,2691.7485,233,,,,2695.949200000003,2696.4475,2695.4385,2695.9490999999944,2692.7645,2695.438299999997,2696.4475,2696.9482999999973,2696.948399999991,2698.9983999999913,1553,2698.9983999999913,3,2698.9985999999944,7,21,231,14,1,1.6,0.3,Time
,,614807,001,female,23,2025-06-02_20h40.11.892,Serial_Dependence_U,2023.2.3,Win32,58.8235294117647,,,,,,2698.9988999999914,70,7,2698.9990000000003,70,,,,2702.9660000000003,2703.4658999999915,2702.4570000000003,2702.965799999997,2700.0150000000003,2702.4568999999915,2703.4658999999915,2703.9660000000003,2703.966099999994,2706.182099999994,1351,2706.1822000000034,3,2706.1823999999915,7,22,232,28,1,1.4,0.7,Time
,,614807,001,female,23,2025-06-02_20h40.11.892,Serial_Dependence_U,2023.2.3,Win32,58.8235294117647,,,,,,2706.182700000003,8,7,2706.1827999999973,8,,,,2710.1705,2710.666599999994,2709.666,2710.1705,2707.1995999999945,2709.6658999999913,2710.666599999994,2711.1665000000003,2711.1665000000003,2713.182599999994,1221,2713.182599999994,2,2713.182899999991,7,23,233,13,1,1.4,0.3,Time
,,614807,001,female,23,2025-06-02_20h40.11.892,Serial_Dependence_U,2023.2.3,Win32,58.8235294117647,,,,,,2713.1830999999943,44,7,2713.1833999999913,44,,,,2717.3513999999914,2717.8505000000005,2716.8415999999943,2717.3512000000032,2714.2010999999943,2716.8415000000005,2717.8505000000005,2718.3505999999943,2718.3505999999943,2720.5000999999943,1849,2720.500200000003,4,2720.5003999999913,7,24,234,9,1,1.6,0.7,Time
,,614807,001,female,23,2025-06-02_20h40.11.892,Serial_Dependence_U,2023.2.3,Win32,58.8235294117647,,,,,,2720.500799999997,325,7,2720.5010999999945,325,,,,2724.301099999994,2724.8005000000003,2723.7877999999973,2724.3010000000004,2721.5173999999915,2723.787599999994,2724.8005000000003,2725.3007000000034,2725.3007000000034,2727.8353999999913,1745,2727.8355,5,2727.836099999994,7,25,235,22,1,1.2,0.3,Time
,,614807,001,female,23,2025-06-02_20h40.11.892,Serial_Dependence_U,2023.2.3,Win32,58.8235294117647,,,,,,2727.836899999991,215,7,2727.8372999999974,215,,,,2731.5697999999975,2732.0687000000034,2731.0687999999973,2731.5695999999944,2728.834599999994,2731.0687000000034,2732.0687000000034,2732.568899999991,2732.5690000000004,2734.8020999999944,1539,2734.8020999999944,4,2734.802299999997,7,26,236,17,1,1.2,0.7,Time
,,614807,001,female,23,2025-06-02_20h40.11.892,Serial_Dependence_U,2023.2.3,Win32,58.8235294117647,,,,,,2734.8025999999945,124,7,2734.802799999997,124,,,,2738.5700999999945,2739.0695999999944,2738.0525999999945,2738.5698999999913,2735.8187999999973,2738.0525000000002,2739.0695999999944,2739.5695,2739.5695,2741.5690999999943,1445,2741.569200000003,4,2741.569399999991,7,27,237,27,1,1.2,0.7,Time
,,614807,001,female,23,2025-06-02_20h40.11.892,Serial_Dependence_U,2023.2.3,Win32,58.8235294117647,,,,,,2741.569700000003,334,7,2741.5697999999975,334,,,,2744.921099999994,2745.4192999999973,2744.404200000003,2744.9210000000003,2742.570599999994,2744.4040000000005,2745.419399999991,2745.920200000003,2745.9202999999975,2747.553200000003,1062,2747.553200000003,5,2747.553399999991,7,28,238,5,1,0.8,0.7,Time
,,614807,001,female,23,2025-06-02_20h40.11.892,Serial_Dependence_U,2023.2.3,Win32,58.8235294117647,,,,,,2747.553700000003,145,7,2747.5538999999912,145,,,,2751.487200000003,2751.9875999999945,2750.986700000003,2751.4870999999944,2748.5545999999945,2750.9865000000004,2751.9875999999945,2752.4877000000033,2752.4877000000033,2754.2872000000034,1285,2754.2872000000034,2,2754.2873999999915,7,29,239,8,1,1.4,0.7,Time
,,614807,001,female,23,2025-06-02_20h40.11.892,Serial_Dependence_U,2023.2.3,Win32,58.8235294117647,,,,,,2754.287599999994,191,8,2756.854700000003,191,s,2.535399999991114,,2760.405599999994,2760.9050999999945,2759.8958999999913,2760.4055000000003,2757.856,2759.8958999999913,2760.9050999999945,2761.4042999999974,2761.4045,2763.2047000000034,1250,2763.2047000000034,4,2763.2047999999972,8,0,240,16,1,1,0.7,Time
,,614807,001,female,23,2025-06-02_20h40.11.892,Serial_Dependence_U,2023.2.3,Win32,58.8235294117647,,,,,,2763.205099999994,28,8,2763.2062000000033,28,,,,2766.7895000000003,2767.289299999997,2766.2727999999975,2766.789299999997,2764.2065000000002,2766.272700000003,2767.2893999999915,2767.788799999997,2767.788799999997,2770.1055,1465,2770.1055,5,2770.1057000000033,8,1,241,21,1,1,0.3,Time
,,614807,001,female,23,2025-06-02_20h40.11.892,Serial_Dependence_U,2023.2.3,Win32,58.8235294117647,,,,,,2770.106,12,8,2770.1062000000034,12,,,,2774.3055999999942,2774.8062999999975,2773.790399999991,2774.3055999999942,2771.1232999999975,2773.7900999999943,2774.8062999999975,2775.3065,2775.3065999999944,2777.556200000003,1382,2777.556200000003,2,2777.5563999999913,8,2,242,14,1,1.6,0.3,Time
,,614807,001,female,23,2025-06-02_20h40.11.892,Serial_Dependence_U,2023.2.3,Win32,58.8235294117647,,,,,,2777.5565999999944,170,8,2777.556799999997,170,,,,2781.506399999991,2782.007200000003,2780.9918999999913,2781.5062999999973,2778.5577999999973,2780.991700000003,2782.0072999999975,2782.506700000003,2782.5067999999974,2784.3575999999944,1631,2784.357700000003,4,2784.3580999999945,8,3,243,28,1,1.4,0.7,Time
,,614807,001,female,23,2025-06-02_20h40.11.892,Serial_Dependence_U,2023.2.3,Win32,58.8235294117647,,,,,,2784.3587000000034,298,8,2784.359200000003,298,,,,2787.7585000000004,2788.2578999999914,2787.2412999999974,2787.7583999999915,2785.373799999997,2787.241200000003,2788.2578999999914,2788.7567999999974,2788.7567999999974,2790.8408999999915,1432,2790.8408999999915,5,2790.841200000003,8,4,244,0,1,0.8,0.3,Time
,,614807,001,female,23,2025-06-02_20h40.11.892,Serial_Dependence_U,2023.2.3,Win32,58.8235294117647,,,,,,2790.841399999991,271,8,2790.8415000000005,271,,,,2795.008099999994,2795.5072999999975,2794.4913999999912,2795.008099999994,2791.8582000000033,2794.4913999999912,2795.5073999999913,2796.0077000000033,2796.0077000000033,2797.841099999994,1769,2797.841099999994,4,2797.8412999999973,8,5,245,19,1,1.6,0.7,Time
,,614807,001,female,23,2025-06-02_20h40.11.892,Serial_Dependence_U,2023.2.3,Win32,58.8235294117647,,,,,,2797.8415000000005,189,8,2797.841700000003,189,,,,2801.1762999999974,2801.6755000000003,2800.6750999999945,2801.176200000003,2798.8418999999913,2800.675,2801.6755000000003,2802.176099999994,2802.176099999994,2804.1250000000005,1500,2804.1250000000005,5,2804.125200000003,8,6,246,25,1,0.8,0.7,Time
,,614807,001,female,23,2025-06-02_20h40.11.892,Serial_Dependence_U,2023.2.3,Win32,58.8235294117647,,,,,,2804.1255,65,8,2804.1255999999944,65,,,,2808.111399999991,2808.6092999999973,2807.593700000003,2808.1112999999973,2805.1255,2807.5935999999942,2808.6092999999973,2809.1092999999973,2809.109399999991,2811.6260999999945,1553,2811.6260999999945,4,2811.626299999997,8,7,247,3,1,1.4,0.3,Time
,,614807,001,female,23,2025-06-02_20h40.11.892,Serial_Dependence_U,2023.2.3,Win32,58.8235294117647,,,,,,2811.626599999994,262,8,2811.6267999999973,262,,,,2815.393799999997,2815.8937000000033,2814.8770000000004,2815.3935999999944,2812.642700000003,2814.876899999991,2815.893799999997,2816.393200000003,2816.393200000003,2817.8935,1383,2817.8935999999944,4,2817.8937000000033,8,8,248,17,1,1.2,0.7,Time
,,614807,001,female,23,2025-06-02_20h40.11.892,Serial_Dependence_U,2023.2.3,Win32,58.8235294117647,,,,,,2817.8940000000002,128,8,2817.8942000000034,128,,,,2821.2625000000003,2821.760899999991,2820.760299999997,2821.262299999997,2818.8957999999975,2820.7602000000034,2821.7610000000004,2822.260599999994,2822.260599999994,2823.1110000000003,312,2823.1110000000003,1,2823.1112999999973,8,9,249,10,1,0.8,0.3,Time
,,614807,001,female,23,2025-06-02_20h40.11.892,Serial_Dependence_U,2023.2.3,Win32,58.8235294117647,,,,,,2823.111700000003,187,8,2823.1118999999912,187,,,,2827.0608999999913,2827.5622999999973,2826.5457000000033,2827.060700000003,2824.111099999994,2826.5455999999945,2827.562399999991,2828.061299999997,2828.061299999997,2829.827599999994,1243,2829.8277000000035,2,2829.8280000000004,8,10,250,8,1,1.4,0.7,Time
