Scale_setup.started,Scale_setup.stopped,participant,session,sex,age,date,expName,psychopyVersion,OS,frameRate,Intro.started,Intro.stopped,key_resp_2.keys,key_resp_2.rt,key_resp_2.duration,block.started,direction,Block_id,block.stopped,trial_direction,Block_resp_2.keys,Block_resp_2.rt,Block_resp_2.duration,ITI.started,ITI.stopped,Mask_2.started,Mask_2.stopped,encoding.started,encoding.stopped,Cue.started,Cue.stopped,Response.started,Response.stopped,keyDuration,Feedback_Time.started,FeedbackID_T,Feedback_Time.stopped,trials.thisRepN,trials.thisTrialN,trials.thisN,trials.thisIndex,trials.ran,TimeDur,Coherence1,TrialType
0.00029999995231833054,0.0003999998569526042,649241,001,,,2025-06-04_17h24.28.488,Serial_Dependence_U,2023.2.3,Win32,60.240963855400565,,,,,,,,,,,,,,,,,,,,,,,,,,,,,,,,,,,
,,649241,001,,,2025-06-04_17h24.28.488,Serial_Dependence_U,2023.2.3,Win32,60.240963855400565,53.6035,62.73229999995229,space,9.109099999904657,,,,,,,,,,,,,,,,,,,,,,,,,,,,,,,
,,649241,001,,,2025-06-04_17h24.28.488,Serial_Dependence_U,2023.2.3,Win32,60.240963855400565,,,,,,62.74059999990462,34,0,64.63199999999998,34,s,1.8647000000476908,,68.81949999999998,69.31509999990462,68.303,68.81939999985693,65.63509999990461,68.303,69.31520000004767,69.81859999990462,69.81859999990462,70.38629999995231,118,70.38639999985693,1,71.38189999985693,0,0,0,14,1,1.6,0.3,Time
,,649241,001,,,2025-06-04_17h24.28.488,Serial_Dependence_U,2023.2.3,Win32,60.240963855400565,,,,,,71.38220000004767,355,0,71.38289999985693,355,,,,74.74870000004768,75.24839999985693,74.23609999990461,74.74859999990463,72.40139999985692,74.23609999990461,75.24839999985693,75.74829999995231,75.74839999985693,77.43609999990463,1062,77.43609999990463,5,78.43179999995229,0,1,1,15,1,0.8,0.7,Time
,,649241,001,,,2025-06-04_17h24.28.488,Serial_Dependence_U,2023.2.3,Win32,60.240963855400565,,,,,,78.43199999999999,54,0,78.43199999999999,54,,,,82.61520000004768,83.11479999995231,82.1022999999523,82.61509999990463,79.43579999995231,82.1022999999523,83.11479999995231,83.61489999985693,83.61489999985693,84.23589999985694,201,84.23599999999999,1,85.23139999985693,0,2,2,24,1,1.6,0.3,Time
,,649241,001,,,2025-06-04_17h24.28.488,Serial_Dependence_U,2023.2.3,Win32,60.240963855400565,,,,,,85.23170000004768,122,0,85.2317999999523,122,,,,89.00220000004768,89.49809999990461,88.48579999995229,89.00220000004768,86.25220000004768,88.48579999995229,89.49809999990461,89.99820000004766,89.99820000004766,91.5355999999046,1018,91.5355999999046,2,92.535,0,3,3,17,1,1.2,0.7,Time
,,649241,001,,,2025-06-04_17h24.28.488,Serial_Dependence_U,2023.2.3,Win32,60.240963855400565,,,,,,92.53520000004767,291,0,92.53520000004767,291,,,,96.08149999999998,96.58120000004766,95.56759999990462,96.08149999999998,93.53420000004766,95.5675,96.58120000004766,97.08129999995231,97.08129999995231,98.8687999999523,1333,98.8687999999523,5,99.86449999999999,0,4,4,6,1,1,0.7,Time
,,649241,001,,,2025-06-04_17h24.28.488,Serial_Dependence_U,2023.2.3,Win32,60.240963855400565,,,,,,99.86459999990461,256,0,99.86470000004766,256,,,,103.8017999999523,104.2975999999046,103.30059999990462,103.8017999999523,100.86729999995231,103.30049999999997,104.2975999999046,104.80099999999999,104.80099999999999,107.452,1317,107.452,2,108.44759999990461,0,5,5,28,1,1.4,0.7,Time
,,649241,001,,,2025-06-04_17h24.28.488,Serial_Dependence_U,2023.2.3,Win32,60.240963855400565,,,,,,108.44770000004766,79,0,108.44789999985693,79,,,,112.201,112.69739999985694,111.69779999995231,112.201,109.4670999999046,111.69770000004766,112.69749999999999,113.19749999999999,113.19749999999999,115.26859999990461,1500,115.26870000004766,4,116.26399999999998,0,6,6,7,1,1.2,0.7,Time
,,649241,001,,,2025-06-04_17h24.28.488,Serial_Dependence_U,2023.2.3,Win32,60.240963855400565,,,,,,116.26420000004768,197,0,116.26420000004768,197,,,,120.24999999999997,120.74720000004766,119.73489999985694,120.24999999999997,117.26829999995229,119.73470000004767,120.74739999985692,121.25059999990461,121.25059999990461,122.43489999985692,117,122.43499999999997,1,123.43059999990462,0,7,7,13,1,1.4,0.3,Time
,,649241,001,,,2025-06-04_17h24.28.488,Serial_Dependence_U,2023.2.3,Win32,60.240963855400565,,,,,,123.43070000004766,126,0,123.43079999995231,126,,,,127.60139999985694,128.09709999990463,127.09739999985695,127.60139999985694,124.43470000004766,127.09739999985695,128.09709999990463,128.59709999990463,128.59709999990463,129.6347999999523,735,129.6347999999523,1,130.63039999985693,0,8,8,4,1,1.6,0.3,Time
,,649241,001,,,2025-06-04_17h24.28.488,Serial_Dependence_U,2023.2.3,Win32,60.240963855400565,,,,,,130.6305999999046,195,0,130.63070000004768,195,,,,134.61389999985693,135.1135,134.1015,134.6137999999523,131.63339999985692,134.1015,135.1135,135.6135999999046,135.61370000004766,137.26809999990462,1392,137.26820000004767,3,138.26339999985694,0,9,9,23,1,1.4,0.3,Time
,,649241,001,,,2025-06-04_17h24.28.488,Serial_Dependence_U,2023.2.3,Win32,60.240963855400565,,,,,,138.26370000004766,120,0,138.2637999999523,120,,,,142.21759999990462,142.71689999985693,141.701,142.21749999999997,139.2637999999523,141.70089999985694,142.71689999985693,143.21339999985693,143.21349999999998,145.36770000004768,1733,145.36770000004768,4,146.3632999999523,0,10,10,18,1,1.4,0.7,Time
,,649241,001,,,2025-06-04_17h24.28.488,Serial_Dependence_U,2023.2.3,Win32,60.240963855400565,,,,,,146.3635,245,0,146.3635999999046,245,,,,150.31349999999998,150.81320000004766,149.80089999985694,150.31339999985693,147.36759999990463,149.8007999999523,150.8132999999523,151.31320000004766,151.31320000004766,153.93420000004767,2033,153.9342999999523,5,154.9332999999523,0,11,11,8,1,1.4,0.7,Time
,,649241,001,,,2025-06-04_17h24.28.488,Serial_Dependence_U,2023.2.3,Win32,60.240963855400565,,,,,,154.93349999999998,221,0,154.93359999990463,221,,,,158.284,158.7795999999046,157.76739999985693,158.28389999985694,155.93389999985692,157.76739999985693,158.77970000004765,159.27970000004765,159.27970000004765,161.01729999995231,1433,161.01739999985693,5,162.01649999999998,0,12,12,5,1,0.8,0.7,Time
,,649241,001,,,2025-06-04_17h24.28.488,Serial_Dependence_U,2023.2.3,Win32,60.240963855400565,,,,,,162.0167999999523,224,0,162.01689999985695,224,,,,165.60039999985693,166.09620000004767,165.07979999995231,165.60039999985693,163.01709999990462,165.07979999995231,166.09620000004767,166.59620000004767,166.59620000004767,167.68389999985692,684,167.68389999985692,1,168.6795,0,13,13,1,1,1,0.3,Time
,,649241,001,,,2025-06-04_17h24.28.488,Serial_Dependence_U,2023.2.3,Win32,60.240963855400565,,,,,,168.6795999999046,350,0,168.67970000004766,350,,,,172.07970000004767,172.5792999999523,171.56699999999998,172.07959999990462,169.7002999999523,171.56699999999998,172.5792999999523,173.08259999990463,173.08270000004768,174.517,1161,174.517,5,175.51620000004766,0,14,14,10,1,0.8,0.3,Time
,,649241,001,,,2025-06-04_17h24.28.488,Serial_Dependence_U,2023.2.3,Win32,60.240963855400565,,,,,,175.51639999985693,79,0,175.51649999999998,79,,,,179.06679999995228,179.56249999999997,178.55020000004768,179.06679999995228,176.51289999985693,178.55009999990463,179.56249999999997,180.06589999985698,180.06589999985698,181.76689999985695,1383,181.76689999985695,5,182.7625,0,15,15,26,1,1,0.7,Time
,,649241,001,,,2025-06-04_17h24.28.488,Serial_Dependence_U,2023.2.3,Win32,60.240963855400565,,,,,,182.76259999990464,209,0,182.76259999990464,209,,,,186.1322000000477,186.62900000000002,185.62939999985696,186.13209999990465,183.76259999990464,185.62920000004772,186.62900000000002,187.12900000000002,187.12900000000002,188.9497000000477,1483,188.94989999985694,5,189.94559999990463,0,16,16,0,1,0.8,0.3,Time
,,649241,001,,,2025-06-04_17h24.28.488,Serial_Dependence_U,2023.2.3,Win32,60.240963855400565,,,,,,189.94570000004768,270,0,189.94579999995233,270,,,,193.72909999990463,194.22889999985694,193.21639999985695,193.72909999990463,190.9497000000477,193.21639999985695,194.22889999985694,194.72889999985694,194.72889999985694,196.16639999985694,1168,196.16649999999998,3,197.16209999990463,0,17,17,22,1,1.2,0.3,Time
,,649241,001,,,2025-06-04_17h24.28.488,Serial_Dependence_U,2023.2.3,Win32,60.240963855400565,,,,,,197.16229999995232,225,0,197.16239999985697,225,,,,200.73309999990465,201.22859999990465,200.23239999985697,200.733,198.16639999985694,200.23239999985697,201.22859999990465,201.7287000000477,201.7287000000477,203.29950000000002,1301,203.29950000000002,5,204.2952999999523,0,18,18,21,1,1,0.3,Time
,,649241,001,,,2025-06-04_17h24.28.488,Serial_Dependence_U,2023.2.3,Win32,60.240963855400565,,,,,,204.2955,20,0,204.2955,20,,,,207.87889999985697,208.37850000000003,207.36220000004772,207.87879999995232,205.2955,207.36209999990467,208.37850000000003,208.87839999985698,208.87850000000003,210.36629999995233,1133,210.36629999995233,4,211.3655,0,19,19,11,1,1,0.3,Time
,,649241,001,,,2025-06-04_17h24.28.488,Serial_Dependence_U,2023.2.3,Win32,60.240963855400565,,,,,,211.3657000000477,351,0,211.36579999995234,351,,,,215.34789999985696,215.84489999985698,214.83259999990463,215.34770000004772,212.36200000000002,214.83250000000004,215.84489999985698,216.34500000000003,216.34500000000003,217.7492999999523,1133,217.7492999999523,2,218.74489999985695,0,20,20,3,1,1.4,0.3,Time
,,649241,001,,,2025-06-04_17h24.28.488,Serial_Dependence_U,2023.2.3,Win32,60.240963855400565,,,,,,218.745,317,0,218.74509999990465,317,,,,222.13239999985694,222.62809999990463,221.61179999995232,222.13229999995235,219.74509999990465,221.61170000004768,222.62809999990463,223.12820000004768,223.12820000004768,224.6325,1168,224.6325,5,225.628,0,21,21,20,1,0.8,0.3,Time
,,649241,001,,,2025-06-04_17h24.28.488,Serial_Dependence_U,2023.2.3,Win32,60.240963855400565,,,,,,225.62829999995233,151,0,225.62829999995233,151,,,,229.78229999995233,230.27789999985697,229.26570000004767,229.78220000004768,226.63229999995235,229.26559999990462,230.27800000000002,230.77789999985697,230.77789999985697,234.38229999995235,1691,234.38239999985694,4,235.37779999995234,0,22,22,29,1,1.6,0.7,Time
,,649241,001,,,2025-06-04_17h24.28.488,Serial_Dependence_U,2023.2.3,Win32,60.240963855400565,,,,,,235.378,121,0,235.378,121,,,,239.53200000000004,240.02779999995232,239.01550000000003,239.53200000000004,236.37809999990463,239.01529999995233,240.02779999995232,240.52770000004767,240.52770000004767,243.64839999985696,1951,243.6485,4,244.64779999995233,0,23,23,9,1,1.6,0.7,Time
,,649241,001,,,2025-06-04_17h24.28.488,Serial_Dependence_U,2023.2.3,Win32,60.240963855400565,,,,,,244.64809999990467,47,0,244.64809999990467,47,,,,248.42789999985695,248.93089999985693,247.91450000000003,248.42779999995236,245.6445,247.91450000000003,248.93089999985693,249.42759999990466,249.42759999990466,251.43189999985697,1509,251.43189999985697,4,252.4275,0,24,24,2,1,1.2,0.3,Time
,,649241,001,,,2025-06-04_17h24.28.488,Serial_Dependence_U,2023.2.3,Win32,60.240963855400565,,,,,,252.42759999990466,256,0,252.4277000000477,256,,,,256.18100000000004,256.67739999985696,255.66500000000002,256.18089999985693,253.42759999990466,255.66489999985697,256.67739999985696,257.1772999999523,257.1772999999523,260.1152000000477,2312,260.11529999995236,5,261.11059999990465,0,25,25,27,1,1.2,0.7,Time
,,649241,001,,,2025-06-04_17h24.28.488,Serial_Dependence_U,2023.2.3,Win32,60.240963855400565,,,,,,261.1107000000477,205,0,261.11079999995235,205,,,,264.4647000000477,264.9605,263.9475,264.4647000000477,262.1147999999523,263.94739999985694,264.9605,265.460399999857,265.460399999857,267.4145999999046,1650,267.4147000000477,5,268.41389999985694,0,26,26,25,1,0.8,0.7,Time
,,649241,001,,,2025-06-04_17h24.28.488,Serial_Dependence_U,2023.2.3,Win32,60.240963855400565,,,,,,268.41409999990464,252,0,268.4142000000477,252,,,,271.9605999999047,272.4637000000477,271.44979999995235,271.9605,269.4107000000477,271.4497000000477,272.4637000000477,272.9602999999523,272.960399999857,274.54789999985695,950,274.54789999985695,2,275.5435,0,27,27,16,1,1,0.7,Time
,,649241,001,,,2025-06-04_17h24.28.488,Serial_Dependence_U,2023.2.3,Win32,60.240963855400565,,,,,,275.5437000000477,78,0,275.543899999857,78,,,,279.69639999985696,280.193399999857,279.18100000000004,279.6962999999523,276.5477999999523,279.18100000000004,280.19350000000003,280.693399999857,280.693399999857,282.2812000000477,1233,282.2812000000477,2,283.2767000000477,0,28,28,19,1,1.6,0.7,Time
,,649241,001,,,2025-06-04_17h24.28.488,Serial_Dependence_U,2023.2.3,Win32,60.240963855400565,,,,,,283.27689999985694,303,0,283.27689999985694,303,,,,287.06029999995235,287.55989999985695,286.5475,287.0602000000477,284.27689999985694,286.5475,287.55989999985695,288.05989999985695,288.05989999985695,289.481,1100,289.481,2,290.4765,0,29,29,12,1,1.2,0.3,Time
,,649241,001,,,2025-06-04_17h24.28.488,Serial_Dependence_U,2023.2.3,Win32,60.240963855400565,,,,,,290.4767000000477,138,1,482.5932000000476,138,s,192.0814000000953,,486.3419999999999,486.8383999998569,485.8255,486.34189999985693,483.5927999999523,485.8255,486.8383999998569,487.34189999985693,487.34189999985693,488.9592000000476,1200,488.9592000000476,3,488.9637999999523,1,0,30,17,1,1.2,0.7,Time
,,649241,001,,,2025-06-04_17h24.28.488,Serial_Dependence_U,2023.2.3,Win32,60.240963855400565,,,,,,488.9637999999523,352,1,488.9642999999523,352,,,,492.3052999999523,492.80859999990463,491.79259999990455,492.3052000000476,489.9592000000476,491.79249999999996,492.80859999990463,493.3048999998569,493.305,494.90920000004763,1167,494.90920000004763,5,494.91399999999993,1,1,31,15,1,0.8,0.7,Time
,,649241,001,,,2025-06-04_17h24.28.488,Serial_Dependence_U,2023.2.3,Win32,60.240963855400565,,,,,,494.91409999990464,334,1,494.91420000004763,334,,,,498.6552000000476,499.1547999999522,498.1423999998569,498.6549999999999,495.9052000000476,498.1423999998569,499.1547999999522,499.65829999995225,499.65829999995225,501.2423999998569,1250,501.2425,3,501.2469999999999,1,2,32,7,1,1.2,0.7,Time
,,649241,001,,,2025-06-04_17h24.28.488,Serial_Dependence_U,2023.2.3,Win32,60.240963855400565,,,,,,501.2470999999046,209,1,501.2470999999046,209,,,,505.2088999998569,505.7045999999046,504.69249999999994,505.2088999998569,502.2575999999046,504.69249999999994,505.7045999999046,506.2045999999046,506.2045999999046,508.37570000004763,1833,508.37570000004763,5,508.38029999995223,1,3,33,28,1,1.4,0.7,Time
,,649241,001,,,2025-06-04_17h24.28.488,Serial_Dependence_U,2023.2.3,Win32,60.240963855400565,,,,,,508.3804999999999,199,1,508.3804999999999,199,,,,511.90879999995224,512.4044999999999,511.4047999999522,511.90870000004765,509.3714999999999,511.4047000000476,512.4044999999999,512.9077999999522,512.9078999998569,515.492,2285,515.4920999999047,5,515.4968999998569,1,4,34,16,1,1,0.7,Time
,,649241,001,,,2025-06-04_17h24.28.488,Serial_Dependence_U,2023.2.3,Win32,60.240963855400565,,,,,,515.4969999999998,224,1,515.4970999999045,224,,,,519.2918999998569,519.7875999999046,518.7713999998568,519.2918999998569,516.5072999999522,518.7712999999524,519.7875999999046,520.2875999999046,520.2875999999046,522.1085999999045,1467,522.1087000000477,4,522.1132000000475,1,5,35,22,1,1.2,0.3,Time
,,649241,001,,,2025-06-04_17h24.28.488,Serial_Dependence_U,2023.2.3,Win32,60.240963855400565,,,,,,522.1132999999522,117,1,522.1133999998569,117,,,,525.4543999998568,525.9542000000476,524.941899999857,525.4543999998568,523.1044999999999,524.9417999999523,525.9542000000476,526.4540999999047,526.4540999999047,528.0417999999522,1151,528.0418999998569,5,528.0463999998569,1,6,36,5,1,0.8,0.7,Time
,,649241,001,,,2025-06-04_17h24.28.488,Serial_Dependence_U,2023.2.3,Win32,60.240963855400565,,,,,,528.0465999999046,277,1,528.0465999999046,277,,,,531.6235999999046,532.1207000000477,531.1082999999524,531.6234999999999,529.0375999999046,531.1082000000476,532.1207000000477,532.6205999999047,532.6205999999047,533.7917000000477,868,533.7917000000477,2,533.7962000000477,1,7,37,11,1,1,0.3,Time
,,649241,001,,,2025-06-04_17h24.28.488,Serial_Dependence_U,2023.2.3,Win32,60.240963855400565,,,,,,533.7963999998569,138,1,533.7963999998569,138,,,,537.7375,538.2404999999999,537.220899999857,537.737399999857,534.7900999999047,537.220899999857,538.2404999999999,538.7372000000476,538.7372999999523,541.4582000000476,2450,541.4582000000476,5,541.463,1,8,38,8,1,1.4,0.7,Time
,,649241,001,,,2025-06-04_17h24.28.488,Serial_Dependence_U,2023.2.3,Win32,60.240963855400565,,,,,,541.4632000000477,344,1,541.4632000000477,344,,,,544.8373999998569,545.337,544.3247999999523,544.8372999999522,542.4540999999047,544.3247000000476,545.337,545.837,545.837,547.5915,1484,547.5915,5,547.596,1,9,39,0,1,0.8,0.3,Time
,,649241,001,,,2025-06-04_17h24.28.488,Serial_Dependence_U,2023.2.3,Win32,60.240963855400565,,,,,,547.5960999999045,247,1,547.5962000000477,247,,,,551.7872000000477,552.2902000000477,551.2745,551.7870999999045,548.6038999998568,551.274399999857,552.2902000000477,552.7867999999523,552.7867999999523,554.2577999999523,1234,554.2577999999523,2,554.2622999999523,1,10,40,24,1,1.6,0.3,Time
,,649241,001,,,2025-06-04_17h24.28.488,Serial_Dependence_U,2023.2.3,Win32,60.240963855400565,,,,,,554.2625,15,1,554.2625999999045,15,,,,557.6410999999046,558.1367000000475,557.1244999999999,557.6409999999998,555.2537999999522,557.1244999999999,558.1367000000475,558.6400999999046,558.6400999999046,560.3910999999046,835,560.3910999999046,3,560.3955999999046,1,11,41,20,1,0.8,0.3,Time
,,649241,001,,,2025-06-04_17h24.28.488,Serial_Dependence_U,2023.2.3,Win32,60.240963855400565,,,,,,560.3957000000476,195,1,560.3957999999523,195,,,,564.1575,564.6532000000477,563.6408999998569,564.1575,561.4035999999046,563.6407999999524,564.6532000000477,565.1532000000477,565.1532000000477,567.7077999999524,2267,567.7077999999524,5,567.7125999999046,1,12,42,27,1,1.2,0.7,Time
,,649241,001,,,2025-06-04_17h24.28.488,Serial_Dependence_U,2023.2.3,Win32,60.240963855400565,,,,,,567.7127000000476,170,1,567.7127999999523,170,,,,571.3035,571.8030999999046,570.7907000000475,571.3032999999523,568.7200999999045,570.7905999999045,571.8030999999046,572.3064999999999,572.3064999999999,574.207399999857,1148,574.207399999857,4,574.212,1,13,43,21,1,1,0.3,Time
,,649241,001,,,2025-06-04_17h24.28.488,Serial_Dependence_U,2023.2.3,Win32,60.240963855400565,,,,,,574.2120999999047,193,1,574.2122000000477,193,,,,577.9865,578.4862000000476,577.4737999999522,577.9865,575.2032999999524,577.4737000000475,578.4862000000476,578.9894999999999,578.9894999999999,581.0239999999999,1750,581.0239999999999,5,581.0284999999999,1,14,44,12,1,1.2,0.3,Time
,,649241,001,,,2025-06-04_17h24.28.488,Serial_Dependence_U,2023.2.3,Win32,60.240963855400565,,,,,,581.0287000000476,47,1,581.0287000000476,47,,,,584.5725,585.0693999998568,584.0570999999045,584.5722999999523,582.0232000000476,584.057,585.0693999998568,585.5693999998568,585.5693999998568,587.5238999998569,1567,587.5238999998569,5,587.5287000000476,1,15,45,6,1,1,0.7,Time
,,649241,001,,,2025-06-04_17h24.28.488,Serial_Dependence_U,2023.2.3,Win32,60.240963855400565,,,,,,587.528899999857,56,1,587.529,56,,,,591.5068999998568,592.0025999999045,590.9900999999045,591.5067999999524,588.5227999999522,590.99,592.0025999999045,592.5025999999045,592.5025999999045,593.3738999998568,550,593.3738999998568,1,593.3785,1,16,46,3,1,1.4,0.3,Time
,,649241,001,,,2025-06-04_17h24.28.488,Serial_Dependence_U,2023.2.3,Win32,60.240963855400565,,,,,,593.3785,137,1,593.3785999999045,137,,,,597.5195999999046,598.019,597.0068999998568,597.5195999999046,594.3695,597.0067999999524,598.019,598.5190999999045,598.5190999999045,600.323399999857,1384,600.323399999857,2,600.3282999999524,1,17,47,29,1,1.6,0.7,Time
,,649241,001,,,2025-06-04_17h24.28.488,Serial_Dependence_U,2023.2.3,Win32,60.240963855400565,,,,,,600.3283999998569,38,1,600.3284999999998,38,,,,603.688399999857,604.1855999999045,603.1732999999522,603.688399999857,601.336,603.1732000000477,604.1855999999045,604.6857000000477,604.6857000000477,607.3067000000476,1801,607.3067000000476,5,607.3115,1,18,48,25,1,0.8,0.7,Time
,,649241,001,,,2025-06-04_17h24.28.488,Serial_Dependence_U,2023.2.3,Win32,60.240963855400565,,,,,,607.3117000000477,121,1,607.3117000000477,121,,,,611.302399999857,611.8019999999999,610.7897999999523,611.302399999857,608.3190999999047,610.7897000000476,611.8020999999046,612.3020999999046,612.3020999999046,614.3897999999522,948,614.3898999998569,1,614.3947000000476,1,19,49,13,1,1.4,0.3,Time
,,649241,001,,,2025-06-04_17h24.28.488,Serial_Dependence_U,2023.2.3,Win32,60.240963855400565,,,,,,614.3947999999523,153,1,614.394899999857,153,,,,618.5355999999047,619.0380999999045,618.0227999999522,618.5355999999047,615.3895999999045,618.0227999999522,619.0380999999045,619.5352000000476,619.5352000000476,622.6062000000477,1347,622.6062999999522,2,622.6109999999999,1,20,50,19,1,1.6,0.7,Time
,,649241,001,,,2025-06-04_17h24.28.488,Serial_Dependence_U,2023.2.3,Win32,60.240963855400565,,,,,,622.6112999999523,337,1,622.6112999999523,337,,,,626.7547000000477,627.2517000000475,626.2393999998569,626.7547000000477,623.6047000000476,626.2392999999522,627.2517000000475,627.7517000000475,627.7517000000475,630.2394999999999,2001,630.2394999999999,4,630.2442999999523,1,21,51,9,1,1.6,0.7,Time
,,649241,001,,,2025-06-04_17h24.28.488,Serial_Dependence_U,2023.2.3,Win32,60.240963855400565,,,,,,630.2445,9,1,630.2445,9,,,,633.8219999999999,634.3182999999522,633.3057000000476,633.8219999999999,631.2352999999523,633.3057000000476,634.3182999999522,634.8182999999522,634.8182999999522,636.5727000000477,1285,636.5727000000477,4,636.5772999999522,1,22,52,1,1,1,0.3,Time
,,649241,001,,,2025-06-04_17h24.28.488,Serial_Dependence_U,2023.2.3,Win32,60.240963855400565,,,,,,636.5773999998569,132,1,636.5774999999999,132,,,,640.5542000000476,641.0547999999524,640.038899999857,640.5542000000476,637.5683999998569,640.038899999857,641.0547999999524,641.5513999998568,641.5515,643.5058999998569,1650,643.5058999998569,4,643.5103999998569,1,23,53,23,1,1.4,0.3,Time
,,649241,001,,,2025-06-04_17h24.28.488,Serial_Dependence_U,2023.2.3,Win32,60.240963855400565,,,,,,643.5105999999046,85,1,643.5105999999046,85,,,,647.6722000000477,648.1678999998569,647.1682999999523,647.6720999999045,644.5055999999047,647.1682000000476,648.1678999998569,648.6678999998569,648.6678999998569,649.8542999999522,915,649.8542999999522,1,649.8589999999999,1,24,54,14,1,1.6,0.3,Time
,,649241,001,,,2025-06-04_17h24.28.488,Serial_Dependence_U,2023.2.3,Win32,60.240963855400565,,,,,,649.8592000000476,265,1,649.8592000000476,265,,,,653.651399999857,654.1510999999045,653.1387999999522,653.6512000000475,650.8680999999046,653.1387000000477,654.1510999999045,654.6510000000001,654.6510000000001,656.1054999999999,1117,656.1054999999999,2,656.1100999999046,1,25,55,2,1,1.2,0.3,Time
,,649241,001,,,2025-06-04_17h24.28.488,Serial_Dependence_U,2023.2.3,Win32,60.240963855400565,,,,,,656.1102000000476,291,1,656.1102999999523,291,,,,660.2718999998569,660.7675999999046,659.768,660.2717999999522,657.1012999999523,659.7677999999523,660.7675999999046,661.2675999999046,661.2675999999046,662.1885999999047,633,662.1885999999047,1,662.1930999999047,1,26,56,4,1,1.6,0.3,Time
,,649241,001,,,2025-06-04_17h24.28.488,Serial_Dependence_U,2023.2.3,Win32,60.240963855400565,,,,,,662.1932999999522,287,1,662.1932999999522,287,,,,665.5870999999047,666.0875999999046,665.0677999999523,665.587,663.2012000000477,665.0677999999523,666.0875999999046,666.5840999999045,666.5840999999045,668.2217999999523,1350,668.221899999857,5,668.226399999857,1,27,57,10,1,0.8,0.3,Time
,,649241,001,,,2025-06-04_17h24.28.488,Serial_Dependence_U,2023.2.3,Win32,60.240963855400565,,,,,,668.2265999999047,63,1,668.2265999999047,63,,,,672.1715999999046,672.6672999999523,671.654899999857,672.1715999999046,669.2177000000477,671.654899999857,672.6672999999523,673.1672999999523,673.1673999998568,675.6383999998568,2188,675.6383999998568,5,675.643,1,28,58,18,1,1.4,0.7,Time
,,649241,001,,,2025-06-04_17h24.28.488,Serial_Dependence_U,2023.2.3,Win32,60.240963855400565,,,,,,675.6432000000477,220,1,675.6432000000477,220,,,,679.2034999999998,679.7003999998569,678.6878999998569,679.2034999999998,676.6380999999046,678.6878999998569,679.7003999998569,680.2004999999999,680.2004999999999,682.5382999999522,2100,682.5382999999522,5,682.5429999999999,1,29,59,26,1,1,0.7,Time
,,649241,001,,,2025-06-04_17h24.28.488,Serial_Dependence_U,2023.2.3,Win32,60.240963855400565,,,,,,682.5432000000476,321,2,917.7525,321,s,235.19339999985698,,921.5320999999046,922.0278999998568,921.0155999999047,921.5319999999999,918.7487999999523,921.0155999999047,922.028,922.528,922.528,924.548899999857,1767,924.549,5,924.5535,2,0,60,12,1,1.2,0.3,Time
,,649241,001,,,2025-06-04_17h24.28.488,Serial_Dependence_U,2023.2.3,Win32,60.240963855400565,,,,,,924.5537000000477,46,2,924.5540999999046,46,,,,928.713899999857,929.2110999999045,928.2113999998569,928.7137999999522,925.5447999999524,928.2113999998569,929.2110999999045,929.7145,929.7145,930.7322000000477,733,930.7322000000477,1,930.7367000000477,2,1,61,4,1,1.6,0.3,Time
,,649241,001,,,2025-06-04_17h24.28.488,Serial_Dependence_U,2023.2.3,Win32,60.240963855400565,,,,,,930.7368999998569,105,2,930.7368999998569,105,,,,934.528,935.0277000000476,934.0152000000476,934.5278999998568,931.7447000000477,934.0150999999046,935.0277000000476,935.5277000000476,935.5277000000476,936.8820999999045,1117,936.8820999999045,2,936.8865999999045,2,2,62,2,1,1.2,0.3,Time
,,649241,001,,,2025-06-04_17h24.28.488,Serial_Dependence_U,2023.2.3,Win32,60.240963855400565,,,,,,936.8867999999522,117,2,936.886899999857,117,,,,941.0652000000478,941.5607999999522,940.5445,941.0650999999045,937.8778999998569,940.544399999857,941.5607999999522,942.0607999999522,942.0607999999522,943.4318999998568,1000,943.4318999998568,1,943.4363999998568,2,3,63,14,1,1.6,0.3,Time
,,649241,001,,,2025-06-04_17h24.28.488,Serial_Dependence_U,2023.2.3,Win32,60.240963855400565,,,,,,943.4365,319,2,943.4365999999045,319,,,,947.398399999857,947.894,946.8942999999524,947.3982999999523,944.4277000000477,946.8942999999524,947.894,948.397399999857,948.397399999857,951.3483999998571,2333,951.3483999998571,5,951.3532000000478,2,4,64,13,1,1.4,0.3,Time
,,649241,001,,,2025-06-04_17h24.28.488,Serial_Dependence_U,2023.2.3,Win32,60.240963855400565,,,,,,951.3532999999522,277,2,951.353399999857,277,,,,955.4940999999046,955.9937000000477,954.9813999998569,955.4939999999999,952.3442000000477,954.9813999998569,955.9937000000477,956.4937999999522,956.4937999999522,958.2982999999524,1424,958.2983999998569,2,958.3030999999046,2,5,65,29,1,1.6,0.7,Time
,,649241,001,,,2025-06-04_17h24.28.488,Serial_Dependence_U,2023.2.3,Win32,60.240963855400565,,,,,,958.3032999999523,72,2,958.3032999999523,72,,,,961.6772999999523,962.1802999999522,961.1633999998569,961.6772999999523,959.2940000000001,961.1632999999524,962.1802999999522,962.6769999999999,962.6769999999999,963.9480000000001,883,963.9480000000001,4,963.9525999999046,2,6,66,20,1,0.8,0.3,Time
,,649241,001,,,2025-06-04_17h24.28.488,Serial_Dependence_U,2023.2.3,Win32,60.240963855400565,,,,,,963.9527000000478,318,2,963.9527999999523,318,,,,967.8937999999523,968.3968999998569,967.3812000000478,967.8937999999523,964.9477000000477,967.3812000000478,968.3968999998569,968.8934999999999,968.8934999999999,970.8643999998569,1601,970.8643999998569,4,970.8692000000476,2,7,67,8,1,1.4,0.7,Time
,,649241,001,,,2025-06-04_17h24.28.488,Serial_Dependence_U,2023.2.3,Win32,60.240963855400565,,,,,,970.869399999857,63,2,970.8695,63,,,,974.9977000000476,975.493399999857,974.4937000000477,974.9975999999047,971.8602999999523,974.4935999999047,975.493399999857,975.993399999857,975.993399999857,979.1477000000477,1667,979.1477999999524,3,979.1527000000476,2,8,68,19,1,1.6,0.7,Time
,,649241,001,,,2025-06-04_17h24.28.488,Serial_Dependence_U,2023.2.3,Win32,60.240963855400565,,,,,,979.152899999857,279,2,979.152899999857,279,,,,983.093399999857,983.5932000000478,982.5807000000477,983.093399999857,980.147399999857,982.5805999999047,983.5932000000478,984.0932000000478,984.0932000000478,986.0830000000001,1552,986.0830000000001,4,986.0877000000478,2,9,69,18,1,1.4,0.7,Time
,,649241,001,,,2025-06-04_17h24.28.488,Serial_Dependence_U,2023.2.3,Win32,60.240963855400565,,,,,,986.0877999999523,103,2,986.087899999857,103,,,,989.4460999999046,989.943,988.9432999999524,989.4458999998569,987.0767000000476,988.9432000000477,989.943,990.442899999857,990.442899999857,992.0474999999999,1350,992.0475999999046,5,992.0522000000476,2,10,70,0,1,0.8,0.3,Time
,,649241,001,,,2025-06-04_17h24.28.488,Serial_Dependence_U,2023.2.3,Win32,60.240963855400565,,,,,,992.0522999999523,313,2,992.052399999857,313,,,,995.5930999999046,996.0928999998569,995.080399999857,995.5930999999046,993.0430999999046,995.080399999857,996.0928999998569,996.5927999999524,996.5927999999524,998.963899999857,2017,998.963899999857,5,998.9685999999047,2,11,71,6,1,1,0.7,Time
,,649241,001,,,2025-06-04_17h24.28.488,Serial_Dependence_U,2023.2.3,Win32,60.240963855400565,,,,,,998.9687999999524,96,2,998.9687999999524,96,,,,1002.3122999999523,1002.8092999999524,1001.7970999999047,1002.3122000000476,999.9597000000476,1001.797,1002.8092999999524,1003.3092999999524,1003.3092999999524,1005.3305,917,1005.3305,4,1005.335,2,12,72,15,1,0.8,0.7,Time
,,649241,001,,,2025-06-04_17h24.28.488,Serial_Dependence_U,2023.2.3,Win32,60.240963855400565,,,,,,1005.3350999999047,71,2,1005.3352000000477,71,,,,1009.0762000000477,1009.5757999999523,1008.563399999857,1009.0760999999047,1006.3262000000477,1008.5632999999523,1009.5757999999523,1010.075899999857,1010.075899999857,1011.4802000000477,1133,1011.4802999999524,2,1011.4847000000477,2,13,73,17,1,1.2,0.7,Time
,,649241,001,,,2025-06-04_17h24.28.488,Serial_Dependence_U,2023.2.3,Win32,60.240963855400565,,,,,,1011.4848999998569,136,2,1011.4848999998569,136,,,,1015.2617999999522,1015.759,1014.747399999857,1015.2617000000478,1012.4760999999046,1014.7472999999522,1015.759,1016.259,1016.259,1029.0115999999045,1162,1029.0115999999045,3,1029.016399999857,2,14,74,22,1,1.2,0.3,Time
,,649241,001,,,2025-06-04_17h24.28.488,Serial_Dependence_U,2023.2.3,Win32,60.240963855400565,,,,,,1029.0165,357,2,1029.0165999999047,357,,,,1032.5447999999524,1033.041899999857,1032.0422999999523,1032.5447000000477,1030.009,1032.0422000000476,1033.041899999857,1033.541899999857,1033.542,1035.3462999999524,1534,1035.3462999999524,5,1035.3507999999524,2,15,75,26,1,1,0.7,Time
,,649241,001,,,2025-06-04_17h24.28.488,Serial_Dependence_U,2023.2.3,Win32,60.240963855400565,,,,,,1035.350899999857,137,2,1035.351,137,,,,1039.325399999857,1039.8250999999048,1038.8127999999524,1039.325399999857,1036.3445999999046,1038.8127000000477,1039.8250999999048,1040.3250999999048,1040.3250999999048,1041.196,633,1041.196,1,1041.2005,2,16,76,3,1,1.4,0.3,Time
,,649241,001,,,2025-06-04_17h24.28.488,Serial_Dependence_U,2023.2.3,Win32,60.240963855400565,,,,,,1041.2005999999046,308,2,1041.2005999999046,308,,,,1044.545899999857,1045.0417000000477,1044.042,1044.5457999999524,1042.2087000000477,1044.041899999857,1045.0417000000477,1045.5417000000477,1045.5417000000477,1047.6795999999047,1717,1047.6795999999047,5,1047.6840999999047,2,17,77,25,1,0.8,0.7,Time
,,649241,001,,,2025-06-04_17h24.28.488,Serial_Dependence_U,2023.2.3,Win32,60.240963855400565,,,,,,1047.6842000000477,263,2,1047.6842999999524,263,,,,1051.2777000000476,1051.7782000000477,1050.7625,1051.2775999999046,1048.691899999857,1050.762399999857,1051.7782000000477,1052.2748999998569,1052.2748999998569,1054.3125,1239,1054.3125,4,1054.3172999999524,2,18,78,21,1,1,0.3,Time
,,649241,001,,,2025-06-04_17h24.28.488,Serial_Dependence_U,2023.2.3,Win32,60.240963855400565,,,,,,1054.317399999857,41,2,1054.3175,41,,,,1057.879,1058.3747000000476,1057.3622000000478,1057.879,1055.3275,1057.3622000000478,1058.3747000000476,1058.8747000000476,1058.8747000000476,1060.8287999999523,1433,1060.8287999999523,5,1060.8332999999523,2,19,79,16,1,1,0.7,Time
,,649241,001,,,2025-06-04_17h24.28.488,Serial_Dependence_U,2023.2.3,Win32,60.240963855400565,,,,,,1060.8335,122,2,1060.8335,122,,,,1064.5747999999523,1065.0745,1064.0625999999047,1064.5747999999523,1061.8247999999523,1064.0625,1065.0745999999046,1065.5745,1065.5745,1067.0457000000476,1317,1067.0457000000476,4,1067.0502999999524,2,20,80,27,1,1.2,0.7,Time
,,649241,001,,,2025-06-04_17h24.28.488,Serial_Dependence_U,2023.2.3,Win32,60.240963855400565,,,,,,1067.050399999857,72,2,1067.0505,72,,,,1070.6270999999047,1071.1277999999522,1070.1120999999046,1070.6270999999047,1068.041399999857,1070.1120999999046,1071.1277999999522,1071.6275,1071.6275999999045,1072.6955,784,1072.6955,2,1072.7,2,21,81,1,1,1,0.3,Time
,,649241,001,,,2025-06-04_17h24.28.488,Serial_Dependence_U,2023.2.3,Win32,60.240963855400565,,,,,,1072.7002000000477,331,2,1072.7002000000477,331,,,,1076.0785999999046,1076.5772000000477,1075.561899999857,1076.0785999999046,1073.6912000000477,1075.561899999857,1076.5772000000477,1077.0742000000478,1077.0742000000478,1077.9955999999047,634,1077.9955999999047,2,1078.0000999999047,2,22,82,10,1,0.8,0.3,Time
,,649241,001,,,2025-06-04_17h24.28.488,Serial_Dependence_U,2023.2.3,Win32,60.240963855400565,,,,,,1078.0002999999524,217,2,1078.0003999998569,217,,,,1082.141,1082.6407000000477,1081.6282999999523,1082.141,1078.9952000000476,1081.6282999999523,1082.6407999999524,1083.1407999999524,1083.1407999999524,1086.1285,2667,1086.1285,5,1086.1332999999524,2,23,83,9,1,1.6,0.7,Time
,,649241,001,,,2025-06-04_17h24.28.488,Serial_Dependence_U,2023.2.3,Win32,60.240963855400565,,,,,,1086.1335,21,2,1086.1335,21,,,,1089.4742999999523,1089.973899999857,1088.9617999999523,1089.4742000000476,1087.1242999999524,1088.9617000000476,1089.974,1090.473899999857,1090.473899999857,1092.157399999857,1336,1092.157399999857,5,1092.162,2,24,84,5,1,0.8,0.7,Time
,,649241,001,,,2025-06-04_17h24.28.488,Serial_Dependence_U,2023.2.3,Win32,60.240963855400565,,,,,,1092.162,141,2,1092.1620999999047,141,,,,1096.1112000000478,1096.607,1095.594899999857,1096.1112000000478,1093.1575,1095.5947000000476,1096.6070999999047,1097.1070999999047,1097.1070999999047,1100.1115999999047,2567,1100.1115999999047,5,1100.1163999998569,2,25,85,28,1,1.4,0.7,Time
,,649241,001,,,2025-06-04_17h24.28.488,Serial_Dependence_U,2023.2.3,Win32,60.240963855400565,,,,,,1100.1165,182,2,1100.1165999999046,182,,,,1104.2905999999045,1104.7902000000477,1103.776399999857,1104.2905999999045,1101.111,1103.776399999857,1104.7902000000477,1105.2902000000477,1105.2902000000477,1107.6112999999523,1800,1107.6112999999523,4,1107.616,2,26,86,24,1,1.6,0.3,Time
,,649241,001,,,2025-06-04_17h24.28.488,Serial_Dependence_U,2023.2.3,Win32,60.240963855400565,,,,,,1107.6162000000477,58,2,1107.6162000000477,58,,,,1111.190399999857,1111.69,1110.6737999999523,1111.1902999999522,1108.6072000000477,1110.6737000000478,1111.69,1112.1900999999045,1112.1900999999045,1113.9610999999047,1433,1113.9610999999047,5,1113.9655999999047,2,27,87,11,1,1,0.3,Time
,,649241,001,,,2025-06-04_17h24.28.488,Serial_Dependence_U,2023.2.3,Win32,60.240963855400565,,,,,,1113.9657999999524,356,2,1113.9657999999524,356,,,,1117.706899999857,1118.2065,1117.1942999999524,1117.7067999999524,1114.957,1117.1942000000477,1118.2065,1118.7100999999047,1118.7100999999047,1121.2277000000477,2001,1121.2277000000477,5,1121.2323999998569,2,28,88,7,1,1.2,0.7,Time
,,649241,001,,,2025-06-04_17h24.28.488,Serial_Dependence_U,2023.2.3,Win32,60.240963855400565,,,,,,1121.2325999999046,348,2,1121.2325999999046,348,,,,1125.2067000000477,1125.7097999999523,1124.693899999857,1125.2067000000477,1122.227399999857,1124.693899999857,1125.7097999999523,1126.206399999857,1126.206399999857,1127.627,1105,1127.627,2,1127.631399999857,2,29,89,23,1,1.4,0.3,Time
,,649241,001,,,2025-06-04_17h24.28.488,Serial_Dependence_U,2023.2.3,Win32,60.240963855400565,,,,,,1127.6315999999047,106,3,1312.8065,106,s,185.15010000014308,,1317.005399999857,1317.5017000000478,1316.4892999999524,1317.0052999999523,1313.8187999999523,1316.4892999999524,1317.5017000000478,1318.0017000000478,1318.0017000000478,1319.4060999999047,1117,1319.4062000000476,1,1319.4107000000477,3,0,90,4,1,1.6,0.3,Time
,,649241,001,,,2025-06-04_17h24.28.488,Serial_Dependence_U,2023.2.3,Win32,60.240963855400565,,,,,,1319.410899999857,199,3,1319.411399999857,199,,,,1322.9723999998569,1323.4682999999523,1322.455899999857,1322.9723999998569,1320.406,1322.4557000000477,1323.4682999999523,1323.9682999999523,1323.9682999999523,1327.2897000000478,2535,1327.2897000000478,5,1327.2942999999523,3,1,91,26,1,1,0.7,Time
,,649241,001,,,2025-06-04_17h24.28.488,Serial_Dependence_U,2023.2.3,Win32,60.240963855400565,,,,,,1327.2945,0,3,1327.2945999999047,0,,,,1330.635,1331.1380999999046,1330.1185999999047,1330.635,1328.2852000000478,1330.118399999857,1331.1380999999046,1331.6347000000476,1331.6347999999523,1333.839399999857,1917,1333.8395,5,1333.843899999857,3,2,92,25,1,0.8,0.7,Time
,,649241,001,,,2025-06-04_17h24.28.488,Serial_Dependence_U,2023.2.3,Win32,60.240963855400565,,,,,,1333.8440999999048,57,3,1333.8440999999048,57,,,,1337.435,1337.9380999999046,1336.9182000000476,1337.434899999857,1334.8555000000001,1336.9180999999046,1337.9380999999046,1338.438,1338.438,1339.4557999999524,694,1339.455899999857,1,1339.460399999857,3,3,93,11,1,1,0.3,Time
,,649241,001,,,2025-06-04_17h24.28.488,Serial_Dependence_U,2023.2.3,Win32,60.240963855400565,,,,,,1339.4605999999046,223,3,1339.4605999999046,223,,,,1343.0013999998569,1343.5012000000477,1342.4887999999523,1343.0013999998569,1340.4542000000476,1342.4887000000476,1343.5012000000477,1344.0010999999047,1344.0010999999047,1345.8890000000001,1634,1345.8890000000001,5,1345.8935,3,4,94,6,1,1,0.7,Time
,,649241,001,,,2025-06-04_17h24.28.488,Serial_Dependence_U,2023.2.3,Win32,60.240963855400565,,,,,,1345.8937000000476,150,3,1345.8937000000476,150,,,,1349.268,1349.7675999999046,1348.7552999999523,1349.267899999857,1346.8845999999046,1348.7552000000478,1349.7675999999046,1350.271,1350.271,1362.488,1050,1362.488,5,1362.4925999999045,3,5,95,20,1,0.8,0.3,Time
,,649241,001,,,2025-06-04_17h24.28.488,Serial_Dependence_U,2023.2.3,Win32,60.240963855400565,,,,,,1362.4927999999522,165,3,1362.4927999999522,165,,,,1366.6382000000476,1367.133899999857,1366.121399999857,1366.6380999999046,1363.4842999999523,1366.1212999999523,1367.133899999857,1367.633899999857,1367.633899999857,1370.1882999999523,1826,1370.1882999999523,4,1370.193,3,6,96,29,1,1.6,0.7,Time
,,649241,001,,,2025-06-04_17h24.28.488,Serial_Dependence_U,2023.2.3,Win32,60.240963855400565,,,,,,1370.1932000000477,43,3,1370.1932000000477,43,,,,1373.537899999857,1374.0337000000477,1373.021399999857,1373.5377999999523,1371.1842000000477,1373.021399999857,1374.0337000000477,1374.5337999999524,1374.5337999999524,1377.0385999999046,1850,1377.0387000000476,5,1377.0432000000476,3,7,97,5,1,0.8,0.7,Time
,,649241,001,,,2025-06-04_17h24.28.488,Serial_Dependence_U,2023.2.3,Win32,60.240963855400565,,,,,,1377.0432999999523,245,3,1377.043399999857,245,,,,1380.8172000000477,1381.316899999857,1380.3047999999524,1380.8172000000477,1378.034,1380.3047000000477,1381.316899999857,1381.816899999857,1381.816899999857,1383.9877999999524,1859,1383.9877999999524,5,1383.9925999999045,3,8,98,22,1,1.2,0.3,Time
,,649241,001,,,2025-06-04_17h24.28.488,Serial_Dependence_U,2023.2.3,Win32,60.240963855400565,,,,,,1383.9927999999522,7,3,1383.9927999999522,7,,,,1387.7337000000477,1388.233399999857,1387.2210999999047,1387.7335999999048,1384.9877000000477,1387.2210999999047,1388.233399999857,1388.733399999857,1388.733399999857,1390.738,1801,1390.7380999999045,5,1390.7425,3,9,99,17,1,1.2,0.7,Time
,,649241,001,,,2025-06-04_17h24.28.488,Serial_Dependence_U,2023.2.3,Win32,60.240963855400565,,,,,,1390.7427000000478,108,3,1390.7427000000478,108,,,,1394.9040999999047,1395.3997999999524,1394.3875,1394.9040999999047,1391.7502999999524,1394.3875,1395.3997999999524,1395.8998999998569,1395.8998999998569,1398.4877999999524,2434,1398.4877999999524,5,1398.4925999999045,3,10,100,9,1,1.6,0.7,Time
,,649241,001,,,2025-06-04_17h24.28.488,Serial_Dependence_U,2023.2.3,Win32,60.240963855400565,,,,,,1398.4927000000478,186,3,1398.4927000000478,186,,,,1402.6667000000477,1403.1662999999523,1402.154,1402.6667000000477,1399.483399999857,1402.153899999857,1403.1662999999523,1403.6662999999523,1403.6662999999523,1405.637399999857,1718,1405.637399999857,4,1405.641899999857,3,11,101,14,1,1.6,0.3,Time
,,649241,001,,,2025-06-04_17h24.28.488,Serial_Dependence_U,2023.2.3,Win32,60.240963855400565,,,,,,1405.6420999999048,269,3,1405.6422000000478,269,,,,1409.6330999999047,1410.132899999857,1409.1205999999047,1409.633,1406.6498999998569,1409.1205999999047,1410.132899999857,1410.632899999857,1410.632899999857,1412.403899999857,1517,1412.404,4,1412.4087999999524,3,12,102,3,1,1.4,0.3,Time
,,649241,001,,,2025-06-04_17h24.28.488,Serial_Dependence_U,2023.2.3,Win32,60.240963855400565,,,,,,1412.409,245,3,1412.409,245,,,,1416.370399999857,1416.8660999999047,1415.8532000000478,1416.370399999857,1413.4037000000476,1415.8530999999045,1416.8660999999047,1417.369399999857,1417.369399999857,1456.2695999999046,933,1456.2695999999046,1,1456.274399999857,3,13,103,28,1,1.4,0.7,Time
,,649241,001,,,2025-06-04_17h24.28.488,Serial_Dependence_U,2023.2.3,Win32,60.240963855400565,,,,,,1456.2745,63,3,1456.2745999999047,63,,,,1460.0525999999047,1460.5517000000477,1459.535899999857,1460.0525,1457.2692999999524,1459.5357999999524,1460.5517000000477,1461.0482999999524,1461.0482999999524,1462.852899999857,1100,1462.852899999857,2,1462.8575,3,14,104,2,1,1.2,0.3,Time
,,649241,001,,,2025-06-04_17h24.28.488,Serial_Dependence_U,2023.2.3,Win32,60.240963855400565,,,,,,1462.8577000000478,138,3,1462.8577000000478,138,,,,1467.0522000000476,1467.5482000000477,1466.5357000000477,1467.0522000000476,1463.8652000000477,1466.5357000000477,1467.5482000000477,1468.0480999999047,1468.0480999999047,1469.4360999999046,867,1469.4360999999046,1,1469.4407000000476,3,15,105,24,1,1.6,0.3,Time
,,649241,001,,,2025-06-04_17h24.28.488,Serial_Dependence_U,2023.2.3,Win32,60.240963855400565,,,,,,1469.440899999857,70,3,1469.440899999857,70,,,,1473.2175,1473.7180999999046,1472.7023999998569,1473.2175,1470.4317000000476,1472.7022999999524,1473.7182000000478,1474.2145999999047,1474.2145999999047,1475.3690999999046,912,1475.3692000000476,2,1475.3735999999046,3,16,106,12,1,1.2,0.3,Time
,,649241,001,,,2025-06-04_17h24.28.488,Serial_Dependence_U,2023.2.3,Win32,60.240963855400565,,,,,,1475.3737999999523,98,3,1475.373899999857,98,,,,1478.9482999999523,1479.4477999999524,1478.4355999999048,1478.9482999999523,1476.3677000000478,1478.4355,1479.4478999998569,1479.9478999998569,1479.9478999998569,1483.069,1283,1483.069,4,1483.0737000000477,3,17,107,1,1,1,0.3,Time
,,649241,001,,,2025-06-04_17h24.28.488,Serial_Dependence_U,2023.2.3,Win32,60.240963855400565,,,,,,1483.0737999999524,90,3,1483.0738999998568,90,,,,1486.8147000000477,1487.3142999999523,1486.3007000000478,1486.8145,1484.0645999999047,1486.3007000000478,1487.3142999999523,1487.8142999999523,1487.8142999999523,1490.1522000000477,2101,1490.1522000000477,5,1490.156899999857,3,18,108,7,1,1.2,0.7,Time
,,649241,001,,,2025-06-04_17h24.28.488,Serial_Dependence_U,2023.2.3,Win32,60.240963855400565,,,,,,1490.1570999999046,282,3,1490.1570999999046,282,,,,1494.150399999857,1494.6475,1493.6312000000478,1494.1502999999523,1491.1645,1493.6312000000478,1494.6475,1495.1507999999524,1495.1507999999524,1497.8853999998569,1228,1497.8853999998569,2,1497.8900999999046,3,19,109,23,1,1.4,0.3,Time
,,649241,001,,,2025-06-04_17h24.28.488,Serial_Dependence_U,2023.2.3,Win32,60.240963855400565,,,,,,1497.8902999999523,66,3,1497.8902999999523,66,,,,1501.230899999857,1501.7305999999046,1500.7168999998569,1501.230899999857,1498.881,1500.7167999999524,1501.7305999999046,1502.2307000000476,1502.2307000000476,1504.0852000000477,1348,1504.0852000000477,5,1504.0897000000477,3,20,110,15,1,0.8,0.7,Time
,,649241,001,,,2025-06-04_17h24.28.488,Serial_Dependence_U,2023.2.3,Win32,60.240963855400565,,,,,,1504.089899999857,43,3,1504.089899999857,43,,,,1508.0640999999046,1508.5637999999524,1507.5515999999047,1508.0640999999046,1505.0807999999524,1507.5515999999047,1508.5637999999524,1509.0637999999524,1509.0637999999524,1510.9523999998569,1617,1510.9523999998569,4,1510.957,3,21,111,13,1,1.4,0.3,Time
,,649241,001,,,2025-06-04_17h24.28.488,Serial_Dependence_U,2023.2.3,Win32,60.240963855400565,,,,,,1510.9570999999046,252,3,1510.9572000000478,252,,,,1514.7010999999047,1515.1970000000001,1514.1847000000478,1514.701,1511.9512999999524,1514.1845999999045,1515.1970000000001,1515.6970000000001,1515.6970999999046,1517.7182000000478,1717,1517.7182000000478,5,1517.7227000000478,3,22,112,27,1,1.2,0.7,Time
,,649241,001,,,2025-06-04_17h24.28.488,Serial_Dependence_U,2023.2.3,Win32,60.240963855400565,,,,,,1517.7227999999523,53,3,1517.722899999857,53,,,,1521.663899999857,1522.1662999999523,1521.1512000000478,1521.6637999999523,1518.7137999999522,1521.1512000000478,1522.1662999999523,1522.6635,1522.6635,1524.401399999857,1417,1524.4015,3,1524.406399999857,3,23,113,8,1,1.4,0.7,Time
,,649241,001,,,2025-06-04_17h24.28.488,Serial_Dependence_U,2023.2.3,Win32,60.240963855400565,,,,,,1524.4065,37,3,1524.4065999999048,37,,,,1528.550899999857,1529.0467000000476,1528.0342000000478,1528.5507999999522,1525.397,1528.0342000000478,1529.0467000000476,1529.5500999999047,1529.5500999999047,1531.584399999857,1750,1531.584399999857,4,1531.589,3,24,114,19,1,1.6,0.7,Time
,,649241,001,,,2025-06-04_17h24.28.488,Serial_Dependence_U,2023.2.3,Win32,60.240963855400565,,,,,,1531.5890999999046,232,3,1531.5892000000476,232,,,,1535.163399999857,1535.6632000000477,1534.646899999857,1535.163399999857,1532.5802999999523,1534.6467999999522,1535.6632000000477,1536.1665999999047,1536.1665999999047,1537.650899999857,1200,1537.650899999857,4,1537.6553999998569,3,25,115,21,1,1,0.3,Time
,,649241,001,,,2025-06-04_17h24.28.488,Serial_Dependence_U,2023.2.3,Win32,60.240963855400565,,,,,,1537.6555999999046,306,3,1537.6555999999046,306,,,,1541.034,1541.5297000000478,1540.5172999999522,1541.034,1538.6507000000477,1540.5172999999522,1541.5297000000478,1542.0295999999046,1542.0297000000478,1543.8175999999046,1500,1543.8175999999046,5,1543.8220999999046,3,26,116,0,1,0.8,0.3,Time
,,649241,001,,,2025-06-04_17h24.28.488,Serial_Dependence_U,2023.2.3,Win32,60.240963855400565,,,,,,1543.8222999999523,174,3,1543.8222999999523,174,,,,1547.2172000000478,1547.7162000000476,1546.7005,1547.2170999999046,1544.829899999857,1546.700399999857,1547.7162000000476,1548.2162000000476,1548.2162000000476,1549.8675,1383,1549.8675999999045,5,1549.8720999999045,3,27,117,10,1,0.8,0.3,Time
,,649241,001,,,2025-06-04_17h24.28.488,Serial_Dependence_U,2023.2.3,Win32,60.240963855400565,,,,,,1549.8722000000478,139,3,1549.8722000000478,139,,,,1553.813,1554.3127999999524,1553.2997999999523,1553.813,1550.8630999999045,1553.2997000000478,1554.3127999999524,1554.8127000000477,1554.8127999999524,1556.933899999857,1917,1556.934,5,1556.9387999999524,3,28,118,18,1,1.4,0.7,Time
,,649241,001,,,2025-06-04_17h24.28.488,Serial_Dependence_U,2023.2.3,Win32,60.240963855400565,,,,,,1556.9388999998569,128,3,1556.9388999998569,128,,,,1560.4795,1560.9792999999522,1559.9667999999524,1560.4795,1557.9335,1559.9667999999524,1560.9792999999522,1561.4825999999046,1561.4825999999046,1564.583899999857,2726,1564.583899999857,5,1564.5885999999045,3,29,119,16,1,1,0.7,Time
,,649241,001,,,2025-06-04_17h24.28.488,Serial_Dependence_U,2023.2.3,Win32,60.240963855400565,,,,,,1564.5887000000478,330,4,1577.0335,330,s,12.426299999952334,,1580.9997999999523,1581.495399999857,1580.482899999857,1580.9995999999046,1578.0497000000478,1580.4827999999522,1581.495399999857,1581.9987999999523,1581.998899999857,1584.5497000000478,2283,1584.5497000000478,5,1584.5542000000478,4,0,120,28,1,1.4,0.7,Time
,,649241,001,,,2025-06-04_17h24.28.488,Serial_Dependence_U,2023.2.3,Win32,60.240963855400565,,,,,,1584.554399999857,272,4,1584.554899999857,272,,,,1587.9315999999046,1588.4285,1587.4122999999524,1587.9315,1585.5497000000478,1587.4122000000477,1588.4285,1588.9285999999047,1588.9285999999047,1589.5620999999046,281,1589.5622000000476,1,1589.5667000000476,4,1,121,10,1,0.8,0.3,Time
,,649241,001,,,2025-06-04_17h24.28.488,Serial_Dependence_U,2023.2.3,Win32,60.240963855400565,,,,,,1589.5667999999523,49,4,1589.566899999857,49,,,,1593.545399999857,1594.0450999999046,1593.0325999999047,1593.545399999857,1590.5622000000476,1593.0325,1594.0450999999046,1594.5483999998569,1594.5483999998569,1596.5828999998569,1717,1596.583,4,1596.5875,4,2,122,23,1,1.4,0.3,Time
,,649241,001,,,2025-06-04_17h24.28.488,Serial_Dependence_U,2023.2.3,Win32,60.240963855400565,,,,,,1596.5877000000478,342,4,1596.5877000000478,342,,,,1600.5158999998569,1601.0115999999045,1600.012,1600.5158999998569,1597.5785999999046,1600.011899999857,1601.0115999999045,1601.5115999999045,1601.5115999999045,1603.016,1350,1603.016,3,1603.0205,4,3,123,8,1,1.4,0.7,Time
,,649241,001,,,2025-06-04_17h24.28.488,Serial_Dependence_U,2023.2.3,Win32,60.240963855400565,,,,,,1603.0207000000478,75,4,1603.0207999999523,75,,,,1607.1952000000476,1607.6947000000478,1606.682399999857,1607.1950999999046,1604.011899999857,1606.6822999999524,1607.6947000000478,1608.1947999999522,1608.1947999999522,1609.7992000000477,1333,1609.7992000000477,2,1609.804,4,4,124,24,1,1.6,0.3,Time
,,649241,001,,,2025-06-04_17h24.28.488,Serial_Dependence_U,2023.2.3,Win32,60.240963855400565,,,,,,1609.8042000000478,70,4,1609.8042000000478,70,,,,1613.945,1614.4445999999045,1613.4322999999524,1613.944899999857,1610.7990999999047,1613.4322999999524,1614.4445999999045,1614.9445999999045,1614.9445999999045,1617.3825999999046,2205,1617.3825999999046,5,1617.3872999999523,4,5,125,9,1,1.6,0.7,Time
,,649241,001,,,2025-06-04_17h24.28.488,Serial_Dependence_U,2023.2.3,Win32,60.240963855400565,,,,,,1617.3875,266,4,1617.3875,266,,,,1621.5282999999524,1622.0277999999523,1621.0152999999523,1621.5280999999047,1618.382,1621.0152999999523,1622.0277999999523,1622.5277000000476,1622.5277000000476,1624.2655,1617,1624.2655,3,1624.2700999999047,4,6,126,29,1,1.6,0.7,Time
,,649241,001,,,2025-06-04_17h24.28.488,Serial_Dependence_U,2023.2.3,Win32,60.240963855400565,,,,,,1624.2702000000477,309,4,1624.2702999999524,309,,,,1628.2277999999524,1628.7275999999047,1627.7152999999523,1628.2277999999524,1625.277899999857,1627.7152000000476,1628.7275999999047,1629.2275999999047,1629.2275999999047,1630.7820999999046,1250,1630.7820999999046,2,1630.7865999999046,4,7,127,18,1,1.4,0.7,Time
,,649241,001,,,2025-06-04_17h24.28.488,Serial_Dependence_U,2023.2.3,Win32,60.240963855400565,,,,,,1630.7867000000476,136,4,1630.7867999999523,136,,,,1634.5485,1635.0440999999046,1634.0317000000477,1634.5485,1631.797,1634.0317000000477,1635.0440999999046,1635.5440999999046,1635.5440999999046,1637.0652999999522,1300,1637.065399999857,4,1637.0697999999522,4,8,128,27,1,1.2,0.7,Time
,,649241,001,,,2025-06-04_17h24.28.488,Serial_Dependence_U,2023.2.3,Win32,60.240963855400565,,,,,,1637.069899999857,170,4,1637.069899999857,170,,,,1640.611,1641.114,1640.0982999999524,1640.611,1638.061,1640.0982000000477,1641.114,1641.6105999999047,1641.6105999999047,1642.865,1083,1642.8650999999047,4,1642.8695999999047,4,9,129,26,1,1,0.7,Time
,,649241,001,,,2025-06-04_17h24.28.488,Serial_Dependence_U,2023.2.3,Win32,60.240963855400565,,,,,,1642.8697999999524,93,4,1642.8697999999524,93,,,,1646.2107999999523,1646.7105,1645.6982999999523,1646.2107000000476,1643.8632999999522,1645.6982000000478,1646.7105,1647.2105,1647.2105,1649.2815999999048,1867,1649.2815999999048,5,1649.2862000000478,4,10,130,25,1,0.8,0.7,Time
,,649241,001,,,2025-06-04_17h24.28.488,Serial_Dependence_U,2023.2.3,Win32,60.240963855400565,,,,,,1649.2862999999522,183,4,1649.286399999857,183,,,,1653.079899999857,1653.577,1652.5605999999048,1653.0797999999522,1650.294,1652.5605,1653.577,1654.077,1654.077,1657.331399999857,3090,1657.331399999857,5,1657.3362000000477,4,11,131,12,1,1.2,0.3,Time
,,649241,001,,,2025-06-04_17h24.28.488,Serial_Dependence_U,2023.2.3,Win32,60.240963855400565,,,,,,1657.3362999999524,320,4,1657.3362999999524,320,,,,1660.7297000000476,1661.2267999999524,1660.2145999999047,1660.7297000000476,1658.3477000000478,1660.2145,1661.2267999999524,1661.7267999999524,1661.7267999999524,1663.5647000000477,1600,1663.5647999999524,5,1663.5692000000477,4,12,132,20,1,0.8,0.3,Time
,,649241,001,,,2025-06-04_17h24.28.488,Serial_Dependence_U,2023.2.3,Win32,60.240963855400565,,,,,,1663.569399999857,220,4,1663.5695,220,,,,1666.9142000000477,1667.4105,1666.3960999999047,1666.9142000000477,1664.5628999998569,1666.3960999999047,1667.4105,1667.91,1667.91,1669.7145999999047,1441,1669.7145999999047,5,1669.7192000000477,4,13,133,5,1,0.8,0.7,Time
,,649241,001,,,2025-06-04_17h24.28.488,Serial_Dependence_U,2023.2.3,Win32,60.240963855400565,,,,,,1669.719399999857,176,4,1669.7195,176,,,,1673.0807000000477,1673.5765999999046,1672.5642000000478,1673.0807000000477,1670.7268999998569,1672.5640999999046,1673.5765999999046,1674.0765000000001,1674.0765000000001,1675.7310999999047,1300,1675.7310999999047,5,1675.7355999999047,4,14,134,15,1,0.8,0.7,Time
,,649241,001,,,2025-06-04_17h24.28.488,Serial_Dependence_U,2023.2.3,Win32,60.240963855400565,,,,,,1675.7357000000477,83,4,1675.7357999999524,83,,,,1679.4767000000477,1679.9762999999523,1678.963899999857,1679.4765999999047,1676.7267999999524,1678.963899999857,1679.9762999999523,1680.4762999999523,1680.4762999999523,1683.5307999999523,1600,1683.530899999857,5,1683.535399999857,4,15,135,7,1,1.2,0.7,Time
,,649241,001,,,2025-06-04_17h24.28.488,Serial_Dependence_U,2023.2.3,Win32,60.240963855400565,,,,,,1683.5355,276,4,1683.5355999999047,276,,,,1687.1290999999046,1687.6260999999047,1686.6137000000476,1687.129,1684.5432000000476,1686.6137000000476,1687.6260999999047,1688.1262000000477,1688.1262000000477,1689.8307000000477,1550,1689.8307000000477,5,1689.8355,4,16,136,1,1,1,0.3,Time
,,649241,001,,,2025-06-04_17h24.28.488,Serial_Dependence_U,2023.2.3,Win32,60.240963855400565,,,,,,1689.8355999999046,13,4,1689.8355999999046,13,,,,1693.4122000000477,1693.9127999999523,1692.8972000000476,1693.4120999999047,1690.8262999999524,1692.8970999999046,1693.9127999999523,1694.409399999857,1694.409399999857,1695.8457999999523,1165,1695.8457999999523,4,1695.8502000000476,4,17,137,11,1,1,0.3,Time
,,649241,001,,,2025-06-04_17h24.28.488,Serial_Dependence_U,2023.2.3,Win32,60.240963855400565,,,,,,1695.850399999857,156,4,1695.8505,156,,,,1700.0292999999524,1700.525899999857,1699.5137000000477,1700.0292999999524,1696.8462000000477,1699.5135999999047,1700.525899999857,1701.025899999857,1701.026,1722.6965,1317,1722.6965,2,1722.7012999999524,4,18,138,4,1,1.6,0.3,Time
,,649241,001,,,2025-06-04_17h24.28.488,Serial_Dependence_U,2023.2.3,Win32,60.240963855400565,,,,,,1722.7015000000001,240,4,1722.7015000000001,240,,,,1726.0755,1726.5785999999046,1725.5615,1726.0755,1723.6960999999046,1725.5615,1726.5785999999046,1727.0752000000477,1727.0752000000477,1731.1462000000477,1117,1731.1462000000477,5,1731.150899999857,4,19,139,0,1,0.8,0.3,Time
,,649241,001,,,2025-06-04_17h24.28.488,Serial_Dependence_U,2023.2.3,Win32,60.240963855400565,,,,,,1731.1510999999045,167,4,1731.1512000000478,167,,,,1735.3292999999524,1735.825,1734.825399999857,1735.3292999999524,1732.1587000000477,1734.8252999999522,1735.825,1736.325,1736.325,1748.7792000000477,1098,1748.7792999999524,1,1748.7838999998569,4,20,140,14,1,1.6,0.3,Time
,,649241,001,,,2025-06-04_17h24.28.488,Serial_Dependence_U,2023.2.3,Win32,60.240963855400565,,,,,,1748.7840999999046,56,4,1748.7842000000478,56,,,,1752.9287999999524,1753.4245999999046,1752.4122000000477,1752.9287000000477,1749.7748999998569,1752.4122000000477,1753.4245999999046,1753.9245999999046,1753.9245999999046,1756.2458999998569,2084,1756.246,5,1756.2505999999046,4,21,141,19,1,1.6,0.7,Time
,,649241,001,,,2025-06-04_17h24.28.488,Serial_Dependence_U,2023.2.3,Win32,60.240963855400565,,,,,,1756.2507000000478,130,4,1756.2507999999523,130,,,,1759.841399999857,1760.3445,1759.3287000000478,1759.8412999999523,1757.2615,1759.3287000000478,1760.3445,1760.8410999999046,1760.8410999999046,1766.5287999999523,2000,1766.5287999999523,5,1766.5335,4,22,142,21,1,1,0.3,Time
,,649241,001,,,2025-06-04_17h24.28.488,Serial_Dependence_U,2023.2.3,Win32,60.240963855400565,,,,,,1766.5337000000477,311,4,1766.5337999999524,311,,,,1770.1102999999523,1770.6075,1769.5952000000477,1770.1102000000476,1767.544399999857,1769.5950999999047,1770.6075,1771.1107000000477,1771.1107999999524,1772.9287000000477,1517,1772.9287999999524,5,1772.9332999999524,4,23,143,16,1,1,0.7,Time
,,649241,001,,,2025-06-04_17h24.28.488,Serial_Dependence_U,2023.2.3,Win32,60.240963855400565,,,,,,1772.9333999998569,90,4,1772.9335,90,,,,1776.691,1777.194,1776.178399999857,1776.691,1773.9282000000478,1776.1782999999523,1777.1940999999047,1777.6907000000476,1777.6907000000476,1779.2285,1283,1779.2285,4,1779.233,4,24,144,17,1,1.2,0.7,Time
,,649241,001,,,2025-06-04_17h24.28.488,Serial_Dependence_U,2023.2.3,Win32,60.240963855400565,,,,,,1779.2332000000476,280,4,1779.2332000000476,280,,,,1783.2102000000477,1783.7072000000478,1782.7075,1783.2100999999047,1780.240899999857,1782.7075,1783.7072000000478,1784.2070999999046,1784.2072000000478,1786.1450999999047,1650,1786.1452000000477,4,1786.1498999998569,4,25,145,3,1,1.4,0.3,Time
,,649241,001,,,2025-06-04_17h24.28.488,Serial_Dependence_U,2023.2.3,Win32,60.240963855400565,,,,,,1786.15,332,4,1786.1500999999046,332,,,,1789.9240999999047,1790.4235999999046,1789.4115,1789.924,1787.1407000000477,1789.4115,1790.4237000000478,1790.9237999999523,1790.9237999999523,1792.6447999999523,1433,1792.6447999999523,4,1792.6492999999523,4,26,146,2,1,1.2,0.3,Time
,,649241,001,,,2025-06-04_17h24.28.488,Serial_Dependence_U,2023.2.3,Win32,60.240963855400565,,,,,,1792.6495,336,4,1792.6495,336,,,,1796.4270999999046,1796.9235,1795.9112999999522,1796.4270999999046,1793.6405,1795.9112999999522,1796.9235,1797.4235,1797.4235,1799.311399999857,1367,1799.311399999857,4,1799.315899999857,4,27,147,22,1,1.2,0.3,Time
,,649241,001,,,2025-06-04_17h24.28.488,Serial_Dependence_U,2023.2.3,Win32,60.240963855400565,,,,,,1799.3160999999047,335,4,1799.3162000000477,335,,,,1802.8775999999045,1803.3732999999522,1802.3608999998569,1802.8775,1800.3110999999046,1802.3607999999524,1803.3732999999522,1803.873399999857,1803.873399999857,1806.8277000000478,1233,1806.8277000000478,4,1806.8325999999047,4,28,148,6,1,1,0.7,Time
,,649241,001,,,2025-06-04_17h24.28.488,Serial_Dependence_U,2023.2.3,Win32,60.240963855400565,,,,,,1806.8327000000477,192,4,1806.8327000000477,192,,,,1810.7942000000478,1811.289899999857,1810.2927000000477,1810.7940999999046,1807.8235,1810.2927000000477,1811.289899999857,1811.7897999999523,1811.7897999999523,1813.344399999857,1435,1813.344399999857,3,1813.348899999857,4,29,149,13,1,1.4,0.3,Time
,,649241,001,,,2025-06-04_17h24.28.488,Serial_Dependence_U,2023.2.3,Win32,60.240963855400565,,,,,,1813.3490999999046,138,5,1815.839899999857,138,s,2.472500000000082,,1819.6232999999522,1820.123,1819.1105999999047,1819.6232999999522,1816.844,1819.1105999999047,1820.123,1820.622899999857,1820.623,1821.9775,1201,1821.9775,3,1821.982,5,0,150,12,1,1.2,0.3,Time
,,649241,001,,,2025-06-04_17h24.28.488,Serial_Dependence_U,2023.2.3,Win32,60.240963855400565,,,,,,1821.9820999999047,206,5,1821.983,206,,,,1826.1397999999524,1826.639399999857,1825.6255999999046,1826.1397999999524,1822.989899999857,1825.6255,1826.6395,1827.1395,1827.1395,1829.3775,667,1829.3775,1,1829.3822000000478,5,1,151,19,1,1.6,0.7,Time
,,649241,001,,,2025-06-04_17h24.28.488,Serial_Dependence_U,2023.2.3,Win32,60.240963855400565,,,,,,1829.3822999999522,254,5,1829.382399999857,254,,,,1833.1595999999047,1833.655899999857,1832.6437000000476,1833.1595999999047,1830.3757999999523,1832.6437000000476,1833.656,1834.155899999857,1834.155899999857,1837.4437999999523,217,1837.4437999999523,1,1837.4487000000477,5,2,152,2,1,1.2,0.3,Time
,,649241,001,,,2025-06-04_17h24.28.488,Serial_Dependence_U,2023.2.3,Win32,60.240963855400565,,,,,,1837.4487999999524,331,5,1837.4488999998568,331,,,,1840.9895,1841.4890999999047,1840.477,1840.989399999857,1838.4395,1840.4768999998569,1841.4890999999047,1841.9890999999047,1841.9890999999047,1844.7435999999047,1301,1844.7435999999047,5,1844.748399999857,5,3,153,6,1,1,0.7,Time
,,649241,001,,,2025-06-04_17h24.28.488,Serial_Dependence_U,2023.2.3,Win32,60.240963855400565,,,,,,1844.7485,18,5,1844.7485999999046,18,,,,1848.3257000000476,1848.8222000000476,1847.81,1848.3257000000476,1845.742,1847.809899999857,1848.8222000000476,1849.3222000000476,1849.3222999999523,1849.605899999857,151,1849.606,1,1849.6105,5,4,154,21,1,1,0.3,Time
,,649241,001,,,2025-06-04_17h24.28.488,Serial_Dependence_U,2023.2.3,Win32,60.240963855400565,,,,,,1849.6105999999047,222,5,1849.6107000000477,222,,,,1853.3597000000477,1853.8555000000001,1852.8432000000478,1853.3595999999047,1850.6097999999524,1852.8430999999046,1853.8555000000001,1854.355399999857,1854.3555000000001,1856.6602999999523,2034,1856.6602999999523,5,1856.665,5,5,155,7,1,1.2,0.7,Time
,,649241,001,,,2025-06-04_17h24.28.488,Serial_Dependence_U,2023.2.3,Win32,60.240963855400565,,,,,,1856.6650999999047,67,5,1856.6652000000477,67,,,,1860.3922999999522,1860.8887000000477,1859.8890000000001,1860.3922999999522,1857.6582000000476,1859.8887999999524,1860.8887000000477,1861.3885999999047,1861.3885999999047,1863.21,1617,1863.21,5,1863.214399999857,5,6,156,27,1,1.2,0.7,Time
,,649241,001,,,2025-06-04_17h24.28.488,Serial_Dependence_U,2023.2.3,Win32,60.240963855400565,,,,,,1863.2145,191,5,1863.2145999999047,191,,,,1866.7555,1867.2552000000478,1866.2427999999522,1866.755399999857,1864.2095,1866.2427999999522,1867.2552000000478,1867.7585999999046,1867.7585999999046,1869.8762999999524,1933,1869.8762999999524,5,1869.8808999998569,5,7,157,26,1,1,0.7,Time
,,649241,001,,,2025-06-04_17h24.28.488,Serial_Dependence_U,2023.2.3,Win32,60.240963855400565,,,,,,1869.881,296,5,1869.8810999999046,296,,,,1873.2585999999046,1873.758399999857,1872.7425999999045,1873.2585,1870.875899999857,1872.7425,1873.758399999857,1874.254899999857,1874.2550999999046,1882.409399999857,1097,1882.409399999857,5,1882.4140999999047,5,8,158,0,1,0.8,0.3,Time
,,649241,001,,,2025-06-04_17h24.28.488,Serial_Dependence_U,2023.2.3,Win32,60.240963855400565,,,,,,1882.4142999999524,150,5,1882.4142999999524,150,,,,1886.555,1887.0547000000477,1886.0422999999523,1886.554899999857,1883.4090999999046,1886.0422999999523,1887.0547000000477,1887.5580999999047,1887.5580999999047,1889.625899999857,1733,1889.625899999857,4,1889.6307000000477,5,9,159,29,1,1.6,0.7,Time
,,649241,001,,,2025-06-04_17h24.28.488,Serial_Dependence_U,2023.2.3,Win32,60.240963855400565,,,,,,1889.6307999999524,221,5,1889.6307999999524,221,,,,1893.1742000000477,1893.6710999999048,1892.6587999999524,1893.1740999999047,1890.6255,1892.6585999999047,1893.6712000000477,1894.1712000000477,1894.1712000000477,1898.6757000000478,1552,1898.6757000000478,5,1898.6805,5,10,160,16,1,1,0.7,Time
,,649241,001,,,2025-06-04_17h24.28.488,Serial_Dependence_U,2023.2.3,Win32,60.240963855400565,,,,,,1898.6805999999046,347,5,1898.6807000000476,347,,,,1902.6212999999523,1903.1208999998569,1902.1087999999522,1902.6212999999523,1899.6752000000477,1902.1087000000477,1903.1208999998569,1903.624399999857,1903.624399999857,1911.3750999999047,2062,1911.3750999999047,5,1911.38,5,11,161,18,1,1.4,0.7,Time
,,649241,001,,,2025-06-04_17h24.28.488,Serial_Dependence_U,2023.2.3,Win32,60.240963855400565,,,,,,1911.3800999999046,204,5,1911.3800999999046,204,,,,1914.724399999857,1915.2207000000476,1914.2042999999524,1914.7242999999523,1912.3710999999046,1914.2042999999524,1915.2207000000476,1915.7207000000476,1915.7207000000476,1918.4750999999046,274,1918.4750999999046,1,1918.4795999999046,5,12,162,15,1,0.8,0.7,Time
,,649241,001,,,2025-06-04_17h24.28.488,Serial_Dependence_U,2023.2.3,Win32,60.240963855400565,,,,,,1918.4797000000476,342,5,1918.4797000000476,342,,,,1922.6540999999047,1923.1537999999523,1922.1410999999046,1922.6540999999047,1919.4735,1922.141,1923.1537999999523,1923.6565999999048,1923.6567000000477,1928.8415999999047,568,1928.8415999999047,1,1928.8462000000477,5,13,163,14,1,1.6,0.3,Time
,,649241,001,,,2025-06-04_17h24.28.488,Serial_Dependence_U,2023.2.3,Win32,60.240963855400565,,,,,,1928.8463999998569,338,5,1928.8465,338,,,,1932.2065999999047,1932.7035999999046,1931.6912000000477,1932.2065999999047,1929.8565999999046,1931.6912000000477,1932.7035999999046,1933.2035999999046,1933.2035999999046,1946.6035,1744,1946.6035,5,1946.6082000000476,5,14,164,25,1,0.8,0.7,Time
,,649241,001,,,2025-06-04_17h24.28.488,Serial_Dependence_U,2023.2.3,Win32,60.240963855400565,,,,,,1946.608399999857,177,5,1946.608399999857,177,,,,1950.5867999999523,1951.0865000000001,1950.0740999999045,1950.5867999999523,1947.6075,1950.0740999999045,1951.0865000000001,1951.5897999999522,1951.5897999999522,1979.6235999999046,1233,1979.6235999999046,2,1979.6282999999523,5,15,165,23,1,1.4,0.3,Time
,,649241,001,,,2025-06-04_17h24.28.488,Serial_Dependence_U,2023.2.3,Win32,60.240963855400565,,,,,,1979.6285,318,5,1979.6285,318,,,,1983.6232999999522,1984.1223999998572,1983.105899999857,1983.6232000000475,1980.64,1983.105899999857,1984.1223999998572,1984.619,1984.619,1998.1065,1897,1998.1065,5,1998.1112999999525,5,16,166,13,1,1.4,0.3,Time
,,649241,001,,,2025-06-04_17h24.28.488,Serial_Dependence_U,2023.2.3,Win32,60.240963855400565,,,,,,1998.1115000000002,124,5,1998.1115000000002,124,,,,2001.4895999999046,2001.9852999999523,2000.9688999998568,2001.4895,1999.1062999999524,2000.9688999998568,2001.9852999999523,2002.4852000000476,2002.4852999999523,2005.0732999999525,1160,2005.0732999999525,5,2005.0780000000002,5,17,167,10,1,0.8,0.3,Time
,,649241,001,,,2025-06-04_17h24.28.488,Serial_Dependence_U,2023.2.3,Win32,60.240963855400565,,,,,,2005.078200000048,302,5,2005.078200000048,302,,,,2008.455899999857,2008.9517999999523,2007.9393999998572,2008.455899999857,2006.0710999999048,2007.9393999998572,2008.9517999999523,2009.4517000000476,2009.4517000000476,2011.323,950,2011.323,4,2011.3275999999048,5,18,168,20,1,0.8,0.3,Time
,,649241,001,,,2025-06-04_17h24.28.488,Serial_Dependence_U,2023.2.3,Win32,60.240963855400565,,,,,,2011.3275999999048,122,5,2011.3277000000478,122,,,,2014.9017999999521,2015.4015999999044,2014.3892999999523,2014.9017999999521,2012.3187000000478,2014.3892000000476,2015.4017000000479,2015.9015999999044,2015.9015999999044,2018.6727999999523,785,2018.6727999999523,2,2018.6775,5,19,169,1,1,1,0.3,Time
,,649241,001,,,2025-06-04_17h24.28.488,Serial_Dependence_U,2023.2.3,Win32,60.240963855400565,,,,,,2018.6777000000477,298,5,2018.6777999999524,298,,,,2022.035,2022.5347000000477,2021.5224999999998,2022.035,2019.6850000000002,2021.5224999999998,2022.5347999999524,2023.0347000000477,2023.0347999999524,2025.5392999999524,1530,2025.539399999857,5,2025.543899999857,5,20,170,5,1,0.8,0.7,Time
,,649241,001,,,2025-06-04_17h24.28.488,Serial_Dependence_U,2023.2.3,Win32,60.240963855400565,,,,,,2025.544,185,5,2025.5440999999048,185,,,,2029.484899999857,2029.9845999999045,2028.972399999857,2029.4847999999522,2026.538899999857,2028.972399999857,2029.9845999999045,2030.4845999999045,2030.4845999999045,2033.889,1917,2033.889,5,2033.8937000000476,5,21,171,8,1,1.4,0.7,Time
,,649241,001,,,2025-06-04_17h24.28.488,Serial_Dependence_U,2023.2.3,Win32,60.240963855400565,,,,,,2033.893899999857,119,5,2033.894,119,,,,2037.6205000000002,2038.1210999999046,2037.1180000000002,2037.6203999998568,2034.8847000000476,2037.1180000000002,2038.1210999999046,2038.6177999999525,2038.6177999999525,2041.238799999952,1583,2041.238799999952,5,2041.2437000000475,5,22,172,17,1,1.2,0.7,Time
,,649241,001,,,2025-06-04_17h24.28.488,Serial_Dependence_U,2023.2.3,Win32,60.240963855400565,,,,,,2041.2437999999522,85,5,2041.2437999999522,85,,,,2044.8177999999523,2045.3174999999999,2044.3052999999525,2044.8177000000476,2042.2369999999999,2044.3052000000478,2045.3174999999999,2045.8208999998571,2045.8210000000001,2047.8055999999049,1150,2047.8055999999049,4,2047.8100000000002,5,23,173,11,1,1,0.3,Time
,,649241,001,,,2025-06-04_17h24.28.488,Serial_Dependence_U,2023.2.3,Win32,60.240963855400565,,,,,,2047.8102000000479,282,5,2047.8102999999521,282,,,,2051.7700999999047,2052.2673999998574,2051.2677999999523,2051.7700000000004,2048.805099999905,2051.267599999905,2052.2673999998574,2052.770700000048,2052.7707999999525,2055.738700000048,2098,2055.738700000048,5,2055.743399999857,5,24,174,3,1,1.4,0.3,Time
,,649241,001,,,2025-06-04_17h24.28.488,Serial_Dependence_U,2023.2.3,Win32,60.240963855400565,,,,,,2055.7435999999047,77,5,2055.7435999999047,77,,,,2059.8842000000477,2060.3837999999528,2059.371599999905,2059.8840999999047,2056.7380000000003,2059.371599999905,2060.3837999999528,2060.887200000048,2060.887200000048,2062.9385,1217,2062.938599999905,2,2062.943200000048,5,25,175,9,1,1.6,0.7,Time
,,649241,001,,,2025-06-04_17h24.28.488,Serial_Dependence_U,2023.2.3,Win32,60.240963855400565,,,,,,2062.9432999999526,46,5,2062.9433999998573,46,,,,2067.1172999999526,2067.617099999905,2066.604700000048,2067.1172999999526,2063.938099999905,2066.604599999905,2067.617099999905,2068.117,2068.117099999905,2096.587399999857,1167,2096.587399999857,2,2096.592200000048,5,26,176,4,1,1.6,0.3,Time
,,649241,001,,,2025-06-04_17h24.28.488,Serial_Dependence_U,2023.2.3,Win32,60.240963855400565,,,,,,2096.592399999857,30,5,2096.592399999857,30,,,,2100.533099999905,2101.0327999999527,2100.0205,2100.533099999905,2097.5872999999524,2100.020399999857,2101.0327999999527,2101.5328999998574,2101.5328999998574,2103.704,1417,2103.704,3,2103.708700000048,5,27,177,28,1,1.4,0.7,Time
,,649241,001,,,2025-06-04_17h24.28.488,Serial_Dependence_U,2023.2.3,Win32,60.240963855400565,,,,,,2103.7087999999526,14,5,2103.7088999998573,14,,,,2107.8830000000003,2108.386200000048,2107.370399999857,2107.8828999998573,2104.699599999905,2107.3702999999527,2108.386200000048,2108.882599999905,2108.882599999905,2110.537099999905,1384,2110.537099999905,2,2110.541700000048,5,28,178,24,1,1.6,0.3,Time
,,649241,001,,,2025-06-04_17h24.28.488,Serial_Dependence_U,2023.2.3,Win32,60.240963855400565,,,,,,2110.5417999999527,305,5,2110.5418999998574,305,,,,2114.316200000048,2114.8157999999526,2113.8035999999047,2114.316099999905,2111.535700000048,2113.8035999999047,2114.8157999999526,2115.3158999998573,2115.3158999998573,2117.137099999905,1467,2117.137099999905,4,2117.1415,5,29,179,22,1,1.2,0.3,Time
,,649241,001,,,2025-06-04_17h24.28.488,Serial_Dependence_U,2023.2.3,Win32,60.240963855400565,,,,,,2117.141700000048,320,6,2121.3035000000004,320,s,4.1349999999997635,,2124.882599999905,2125.3822999999525,2124.3698999998574,2124.8825,2122.3017999999524,2124.3698999998574,2125.3822999999525,2125.8822999999525,2125.8822999999525,2127.370399999857,1084,2127.370399999857,4,2127.3747999999528,6,0,180,21,1,1,0.3,Time
,,649241,001,,,2025-06-04_17h24.28.488,Serial_Dependence_U,2023.2.3,Win32,60.240963855400565,,,,,,2127.3750000000005,26,6,2127.3755,26,,,,2130.749099999905,2131.2487999999526,2130.236399999857,2130.7490000000003,2128.3697999999526,2130.236399999857,2131.2487999999526,2131.751700000048,2131.751700000048,2132.8035000000004,800,2132.8035000000004,3,2132.807899999857,6,1,181,20,1,0.8,0.3,Time
,,649241,001,,,2025-06-04_17h24.28.488,Serial_Dependence_U,2023.2.3,Win32,60.240963855400565,,,,,,2132.8080999999047,12,6,2132.8080999999047,12,,,,2136.7822999999526,2137.282,2136.269599999905,2136.7822999999526,2133.8028999998573,2136.2695000000003,2137.282,2137.781899999857,2137.781899999857,2139.5032999999526,1284,2139.5032999999526,2,2139.5078999998573,6,2,182,23,1,1.4,0.3,Time
,,649241,001,,,2025-06-04_17h24.28.488,Serial_Dependence_U,2023.2.3,Win32,60.240963855400565,,,,,,2139.5080000000003,88,6,2139.5080000000003,88,,,,2143.285399999857,2143.7817999999525,2142.769599999905,2143.285399999857,2140.502899999857,2142.769599999905,2143.7817999999525,2144.2817999999525,2144.281899999857,2146.503200000048,1634,2146.503200000048,5,2146.5080000000003,6,3,183,12,1,1.2,0.3,Time
,,649241,001,,,2025-06-04_17h24.28.488,Serial_Dependence_U,2023.2.3,Win32,60.240963855400565,,,,,,2146.508099999905,283,6,2146.508099999905,283,,,,2150.248700000048,2150.7482999999525,2149.7358999998573,2150.248599999905,2147.5013999998573,2149.7358999998573,2150.7482999999525,2151.2517999999527,2151.2517999999527,2153.5360999999048,1567,2153.5360999999048,5,2153.5405999999048,6,4,184,7,1,1.2,0.7,Time
,,649241,001,,,2025-06-04_17h24.28.488,Serial_Dependence_U,2023.2.3,Win32,60.240963855400565,,,,,,2153.5407999999525,100,6,2153.5407999999525,100,,,,2157.6857000000477,2158.181399999857,2157.169099999905,2157.6857000000477,2154.5357999999524,2157.169099999905,2158.181399999857,2158.6815,2158.6815,2160.768700000048,1616,2160.768700000048,3,2160.7735000000002,6,5,185,29,1,1.6,0.7,Time
,,649241,001,,,2025-06-04_17h24.28.488,Serial_Dependence_U,2023.2.3,Win32,60.240963855400565,,,,,,2160.773599999905,100,6,2160.773599999905,100,,,,2164.1522999999524,2164.648,2163.635700000048,2164.1522999999524,2161.769099999905,2163.635700000048,2164.648,2165.148,2165.148,2166.8358999998572,1067,2166.8358999998572,5,2166.8405000000002,6,6,186,10,1,0.8,0.3,Time
,,649241,001,,,2025-06-04_17h24.28.488,Serial_Dependence_U,2023.2.3,Win32,60.240963855400565,,,,,,2166.840599999905,185,6,2166.840599999905,185,,,,2171.0027999999525,2171.497700000048,2170.502399999857,2171.0027999999525,2167.8315000000002,2170.502399999857,2171.4977999999523,2171.9977999999523,2171.9977999999523,2174.202700000048,1567,2174.202700000048,3,2174.2072999999527,6,7,187,4,1,1.6,0.3,Time
,,649241,001,,,2025-06-04_17h24.28.488,Serial_Dependence_U,2023.2.3,Win32,60.240963855400565,,,,,,2174.2075000000004,256,6,2174.2075000000004,256,,,,2178.1812000000477,2178.681,2177.668700000048,2178.1812000000477,2175.198099999905,2177.668599999905,2178.681,2179.1837999999525,2179.1837999999525,2181.2522999999524,1517,2181.252399999857,4,2181.2567999999524,6,8,188,3,1,1.4,0.3,Time
,,649241,001,,,2025-06-04_17h24.28.488,Serial_Dependence_U,2023.2.3,Win32,60.240963855400565,,,,,,2181.256899999857,76,6,2181.256899999857,76,,,,2184.8350999999047,2185.330899999857,2184.3185000000003,2184.8350999999047,2182.247899999857,2184.3183999998573,2185.330899999857,2185.8307000000477,2185.8307999999524,2187.802,1217,2187.802099999905,4,2187.806599999905,6,9,189,11,1,1,0.3,Time
,,649241,001,,,2025-06-04_17h24.28.488,Serial_Dependence_U,2023.2.3,Win32,60.240963855400565,,,,,,2187.806700000048,67,6,2187.806700000048,67,,,,2191.784200000048,2192.280700000048,2191.2682999999524,2191.784200000048,2188.797700000048,2191.2680999999047,2192.280700000048,2192.780700000048,2192.780700000048,2194.2682999999524,1260,2194.268399999857,2,2194.273200000048,6,10,190,13,1,1.4,0.3,Time
,,649241,001,,,2025-06-04_17h24.28.488,Serial_Dependence_U,2023.2.3,Win32,60.240963855400565,,,,,,2194.273200000048,203,6,2194.2733999998572,203,,,,2198.418200000048,2198.9137999999525,2197.9013999998574,2198.418099999905,2195.264200000048,2197.9013999998574,2198.9137999999525,2199.417299999953,2199.417299999953,2201.851700000048,1700,2201.851700000048,4,2201.856200000048,6,11,191,19,1,1.6,0.7,Time
,,649241,001,,,2025-06-04_17h24.28.488,Serial_Dependence_U,2023.2.3,Win32,60.240963855400565,,,,,,2201.8563999998573,49,6,2201.8563999998573,49,,,,2205.614,2206.113700000048,2205.0998999998574,2205.614,2202.864,2205.0998999998574,2206.113700000048,2206.613700000048,2206.613700000048,2208.235,1418,2208.235,4,2208.239599999905,6,12,192,27,1,1.2,0.7,Time
,,649241,001,,,2025-06-04_17h24.28.488,Serial_Dependence_U,2023.2.3,Win32,60.240963855400565,,,,,,2208.2397999999525,344,6,2208.2398999998572,344,,,,2212.401099999905,2212.8967999999527,2211.8837999999528,2212.4010000000003,2209.247200000048,2211.8837999999528,2212.8967999999527,2213.400200000048,2213.400200000048,2215.9678999998573,1951,2215.9680000000003,4,2215.9723999998573,6,13,193,9,1,1.6,0.7,Time
,,649241,001,,,2025-06-04_17h24.28.488,Serial_Dependence_U,2023.2.3,Win32,60.240963855400565,,,,,,2215.972700000048,5,6,2215.972700000048,5,,,,2220.1677000000477,2220.6632999999524,2219.6495000000004,2220.1675999999047,2216.984099999905,2219.6495000000004,2220.6632999999524,2221.1632999999524,2221.1632999999524,2223.267700000048,1683,2223.2677999999523,4,2223.2725,6,14,194,14,1,1.6,0.3,Time
,,649241,001,,,2025-06-04_17h24.28.488,Serial_Dependence_U,2023.2.3,Win32,60.240963855400565,,,,,,2223.2725999999047,200,6,2223.2727000000477,200,,,,2227.050700000048,2227.5465000000004,2226.534099999905,2227.050599999905,2224.2635,2226.534099999905,2227.5465000000004,2228.0463999998574,2228.0465000000004,2229.317700000048,1150,2229.317700000048,3,2229.322099999905,6,15,195,22,1,1.2,0.3,Time
,,649241,001,,,2025-06-04_17h24.28.488,Serial_Dependence_U,2023.2.3,Win32,60.240963855400565,,,,,,2229.3222999999525,134,6,2229.322399999857,134,,,,2232.896599999905,2233.399700000048,2232.3840999999047,2232.896599999905,2230.3158999998573,2232.384,2233.399700000048,2233.8962999999526,2233.8963999998573,2235.434099999905,1322,2235.434200000048,5,2235.438700000048,6,16,196,1,1,1,0.3,Time
,,649241,001,,,2025-06-04_17h24.28.488,Serial_Dependence_U,2023.2.3,Win32,60.240963855400565,,,,,,2235.4388999998573,279,6,2235.4388999998573,279,,,,2239.200200000048,2239.696200000048,2238.684099999905,2239.200200000048,2236.4497999999526,2238.684,2239.696200000048,2240.196099999905,2240.196099999905,2241.734099999905,1000,2241.734099999905,2,2241.738700000048,6,17,197,17,1,1.2,0.7,Time
,,649241,001,,,2025-06-04_17h24.28.488,Serial_Dependence_U,2023.2.3,Win32,60.240963855400565,,,,,,2241.7387999999523,133,6,2241.738899999857,133,,,,2245.6830999999047,2246.1827999999527,2245.1668999998574,2245.6830999999047,2242.729799999953,2245.1668999998574,2246.1827999999527,2246.6792999999525,2246.679399999857,2248.883899999857,1417,2248.883899999857,3,2248.8885999999047,6,18,198,18,1,1.4,0.7,Time
,,649241,001,,,2025-06-04_17h24.28.488,Serial_Dependence_U,2023.2.3,Win32,60.240963855400565,,,,,,2248.8887000000477,111,6,2248.8887999999524,111,,,,2252.8295000000003,2253.329200000048,2252.3127999999524,2252.8295000000003,2249.8795000000005,2252.3127999999524,2253.329200000048,2253.829200000048,2253.829200000048,2256.000700000048,1668,2256.0007999999525,4,2256.005200000048,6,19,199,8,1,1.4,0.7,Time
,,649241,001,,,2025-06-04_17h24.28.488,Serial_Dependence_U,2023.2.3,Win32,60.240963855400565,,,,,,2256.0052999999525,125,6,2256.005399999857,125,,,,2259.779399999857,2260.2825000000003,2259.266599999905,2259.779399999857,2257.0000000000005,2259.266599999905,2260.2825000000003,2260.7790000000005,2260.7790000000005,2262.2668999998573,1317,2262.2670000000003,4,2262.2715000000003,6,20,200,2,1,1.2,0.3,Time
,,649241,001,,,2025-06-04_17h24.28.488,Serial_Dependence_U,2023.2.3,Win32,60.240963855400565,,,,,,2262.2715000000003,332,6,2262.271700000048,332,,,,2265.8125000000005,2266.3155,2265.2997999999525,2265.812399999857,2263.2665,2265.2997999999525,2266.3155,2266.812200000048,2266.812200000048,2268.967200000048,1250,2268.967200000048,4,2268.972,6,21,201,16,1,1,0.7,Time
,,649241,001,,,2025-06-04_17h24.28.488,Serial_Dependence_U,2023.2.3,Win32,60.240963855400565,,,,,,2268.972,112,6,2268.972099999905,112,,,,2272.312399999857,2272.8120000000004,2271.7983999998573,2272.312399999857,2269.9662999999528,2271.7982999999526,2272.8120000000004,2273.3120000000004,2273.3120000000004,2274.8163999998574,1235,2274.8163999998574,5,2274.8210000000004,6,22,202,15,1,0.8,0.7,Time
,,649241,001,,,2025-06-04_17h24.28.488,Serial_Dependence_U,2023.2.3,Win32,60.240963855400565,,,,,,2274.821200000048,45,6,2274.8212999999528,45,,,,2278.1995,2278.6985999999047,2277.682899999857,2278.199399999857,2275.816099999905,2277.682899999857,2278.6985999999047,2279.195200000048,2279.1952999999526,2280.8665,1083,2280.8665,5,2280.871,6,23,203,0,1,0.8,0.3,Time
,,649241,001,,,2025-06-04_17h24.28.488,Serial_Dependence_U,2023.2.3,Win32,60.240963855400565,,,,,,2280.871099999905,102,6,2280.871099999905,102,,,,2284.4147999999527,2284.9117999999526,2283.8992999999527,2284.414700000048,2281.8660999999047,2283.8992999999527,2284.9117999999526,2285.4117999999526,2285.4117999999526,2288.0665000000004,1418,2288.0665000000004,5,2288.0710000000004,6,24,204,6,1,1,0.7,Time
,,649241,001,,,2025-06-04_17h24.28.488,Serial_Dependence_U,2023.2.3,Win32,60.240963855400565,,,,,,2288.071099999905,39,6,2288.071099999905,39,,,,2291.4118999998573,2291.9115,2290.899200000048,2291.4117999999526,2289.0652999999525,2290.899099999905,2291.9115,2292.411599999905,2292.411599999905,2294.3327999999524,1134,2294.332899999857,5,2294.3372999999524,6,25,205,25,1,0.8,0.7,Time
,,649241,001,,,2025-06-04_17h24.28.488,Serial_Dependence_U,2023.2.3,Win32,60.240963855400565,,,,,,2294.3375,42,6,2294.3375,42,,,,2297.8950999999047,2298.394700000048,2297.3820999999048,2297.8950999999047,2295.3450000000003,2297.3820999999048,2298.394700000048,2298.894700000048,2298.894700000048,2300.665899999857,1200,2300.665899999857,4,2300.670700000048,6,26,206,26,1,1,0.7,Time
,,649241,001,,,2025-06-04_17h24.28.488,Serial_Dependence_U,2023.2.3,Win32,60.240963855400565,,,,,,2300.6707999999526,323,6,2300.6707999999526,323,,,,2304.6320999999048,2305.1283999998573,2304.1145,2304.6320999999048,2301.678200000048,2304.114399999857,2305.1283999998573,2305.6315000000004,2305.6315000000004,2307.717,1501,2307.717,4,2307.721399999857,6,27,207,28,1,1.4,0.7,Time
,,649241,001,,,2025-06-04_17h24.28.488,Serial_Dependence_U,2023.2.3,Win32,60.240963855400565,,,,,,2307.721599999905,248,6,2307.721700000048,248,,,,2311.0813999998572,2311.5777999999527,2310.5655,2311.0813999998572,2308.7335000000003,2310.5655,2311.5777999999527,2312.081099999905,2312.081099999905,2314.298899999857,1616,2314.298899999857,5,2314.303399999857,6,28,208,5,1,0.8,0.7,Time
,,649241,001,,,2025-06-04_17h24.28.488,Serial_Dependence_U,2023.2.3,Win32,60.240963855400565,,,,,,2314.3035000000004,29,6,2314.3035999999047,29,,,,2318.497099999905,2318.994200000048,2317.9820000000004,2318.4970000000003,2315.3137999999526,2317.981899999857,2318.994200000048,2319.4942999999525,2319.4942999999525,2321.282099999905,1268,2321.282099999905,2,2321.2870000000003,6,29,209,24,1,1.6,0.3,Time
,,649241,001,,,2025-06-04_17h24.28.488,Serial_Dependence_U,2023.2.3,Win32,60.240963855400565,,,,,,2321.287099999905,303,7,2323.144200000048,303,s,1.8456000001428947,,2326.731599999905,2327.227399999857,2326.215,2326.731599999905,2324.1443999998573,2326.215,2327.227399999857,2327.727399999857,2327.727399999857,2329.6322999999525,1408,2329.6322999999525,5,2329.6367999999525,7,0,210,1,1,1,0.3,Time
,,649241,001,,,2025-06-04_17h24.28.488,Serial_Dependence_U,2023.2.3,Win32,60.240963855400565,,,,,,2329.636899999857,292,7,2329.6373999998573,292,,,,2333.614,2334.110599999905,2333.096899999857,2333.614,2330.6275999999048,2333.0967999999525,2334.110599999905,2334.6105000000002,2334.6105000000002,2336.0155999999047,1384,2336.0155999999047,3,2336.0202999999524,7,1,211,13,1,1.4,0.3,Time
,,649241,001,,,2025-06-04_17h24.28.488,Serial_Dependence_U,2023.2.3,Win32,60.240963855400565,,,,,,2336.0205,170,7,2336.0205,170,,,,2339.394099999905,2339.8937999999525,2338.881399999857,2339.3940000000002,2337.010700000048,2338.8812999999527,2339.8937999999525,2340.3937999999525,2340.3937999999525,2341.4485000000004,950,2341.4485000000004,4,2341.452899999857,7,2,212,0,1,0.8,0.3,Time
,,649241,001,,,2025-06-04_17h24.28.488,Serial_Dependence_U,2023.2.3,Win32,60.240963855400565,,,,,,2341.4530999999047,80,7,2341.453200000048,80,,,,2345.0438999998573,2345.543599999905,2344.5312999999524,2345.0438999998573,2342.460599999905,2344.5312999999524,2345.543599999905,2346.043599999905,2346.043599999905,2347.048599999905,984,2347.048599999905,3,2347.0530000000003,7,3,213,11,1,1,0.3,Time
,,649241,001,,,2025-06-04_17h24.28.488,Serial_Dependence_U,2023.2.3,Win32,60.240963855400565,,,,,,2347.053200000048,144,7,2347.053200000048,144,,,,2350.7938999998573,2351.2935,2350.281200000048,2350.793700000048,2348.0462999999527,2350.2810000000004,2351.2935,2351.7935,2351.7935,2353.3147999999524,1450,2353.3147999999524,4,2353.3192999999524,7,4,214,7,1,1.2,0.7,Time
,,649241,001,,,2025-06-04_17h24.28.488,Serial_Dependence_U,2023.2.3,Win32,60.240963855400565,,,,,,2353.319399999857,319,7,2353.319399999857,319,,,,2356.696099999905,2357.1933999998573,2356.180899999857,2356.696099999905,2354.3142999999527,2356.180899999857,2357.1933999998573,2357.6932999999526,2357.6932999999526,2358.8812999999527,961,2358.8812999999527,4,2358.8857999999527,7,5,215,20,1,0.8,0.3,Time
,,649241,001,,,2025-06-04_17h24.28.488,Serial_Dependence_U,2023.2.3,Win32,60.240963855400565,,,,,,2358.885899999857,244,7,2358.8860000000004,244,,,,2363.0460000000003,2363.5465000000004,2362.530700000048,2363.0458999998573,2359.880599999905,2362.530700000048,2363.5465000000004,2364.043200000048,2364.043200000048,2365.981200000048,1384,2365.9812999999526,2,2365.986099999905,7,6,216,19,1,1.6,0.7,Time
,,649241,001,,,2025-06-04_17h24.28.488,Serial_Dependence_U,2023.2.3,Win32,60.240963855400565,,,,,,2365.986200000048,60,7,2365.986200000048,60,,,,2369.759899999857,2370.263099999905,2369.2473999998574,2369.759899999857,2366.980599999905,2369.2472999999527,2370.263099999905,2370.759599999905,2370.759700000048,2376.7307999999525,1498,2376.7307999999525,4,2376.7355000000002,7,7,217,22,1,1.2,0.3,Time
,,649241,001,,,2025-06-04_17h24.28.488,Serial_Dependence_U,2023.2.3,Win32,60.240963855400565,,,,,,2376.735700000048,192,7,2376.735700000048,192,,,,2380.3135,2380.8093999998573,2379.793099999905,2380.3135,2377.729799999953,2379.793,2380.8093999998573,2381.3093999998573,2381.3093999998573,2382.880599999905,1384,2382.880700000048,5,2382.885200000048,7,8,218,21,1,1,0.3,Time
,,649241,001,,,2025-06-04_17h24.28.488,Serial_Dependence_U,2023.2.3,Win32,60.240963855400565,,,,,,2382.8853999998573,70,7,2382.8853999998573,70,,,,2387.046099999905,2387.5425999999047,2386.542899999857,2387.0460000000003,2383.8762999999526,2386.542899999857,2387.5425999999047,2388.0425999999047,2388.0425999999047,2389.6470000000004,1447,2389.647099999905,2,2389.6517999999523,7,9,219,24,1,1.6,0.3,Time
,,649241,001,,,2025-06-04_17h24.28.488,Serial_Dependence_U,2023.2.3,Win32,60.240963855400565,,,,,,2389.652,303,7,2389.6520999999047,303,,,,2393.012,2393.5092000000477,2392.496599999905,2393.012,2390.6595,2392.496599999905,2393.5092000000477,2394.0090999999047,2394.0090999999047,2395.347099999905,1300,2395.347099999905,5,2395.351700000048,7,10,220,15,1,0.8,0.7,Time
,,649241,001,,,2025-06-04_17h24.28.488,Serial_Dependence_U,2023.2.3,Win32,60.240963855400565,,,,,,2395.3517999999526,230,7,2395.3518999998573,230,,,,2399.2927999999524,2399.792399999857,2398.780200000048,2399.2927000000477,2396.346599999905,2398.780099999905,2399.792399999857,2400.292299999953,2400.292299999953,2479.6615,1222,2479.6615,2,2479.666200000048,7,11,221,8,1,1.4,0.7,Time
,,649241,001,,,2025-06-04_17h24.28.488,Serial_Dependence_U,2023.2.3,Win32,60.240963855400565,,,,,,2479.6663999998573,245,7,2479.6665000000003,245,,,,2483.407200000048,2483.9098999998573,2482.894700000048,2483.407200000048,2480.6572999999526,2482.894599999905,2483.9098999998573,2484.406899999857,2484.406899999857,2486.194899999857,1167,2486.194899999857,3,2486.199399999857,7,12,222,27,1,1.2,0.7,Time
,,649241,001,,,2025-06-04_17h24.28.488,Serial_Dependence_U,2023.2.3,Win32,60.240963855400565,,,,,,2486.1995,136,7,2486.199599999905,136,,,,2490.140399999857,2490.640099999905,2489.626200000048,2490.140399999857,2487.193099999905,2489.626200000048,2490.640099999905,2491.140099999905,2491.140099999905,2504.711099999905,1407,2504.711099999905,3,2504.7158999998574,7,13,223,28,1,1.4,0.7,Time
,,649241,001,,,2025-06-04_17h24.28.488,Serial_Dependence_U,2023.2.3,Win32,60.240963855400565,,,,,,2504.7160000000003,127,7,2504.716099999905,127,,,,2508.4937999999524,2508.989700000048,2507.9772999999527,2508.4937999999524,2505.710700000048,2507.9772999999527,2508.989700000048,2509.489700000048,2509.489700000048,2511.3608999998573,1217,2511.3608999998573,3,2511.3653999998573,7,14,224,2,1,1.2,0.3,Time
,,649241,001,,,2025-06-04_17h24.28.488,Serial_Dependence_U,2023.2.3,Win32,60.240963855400565,,,,,,2511.365599999905,168,7,2511.365599999905,168,,,,2514.7257000000477,2515.222899999857,2514.2105,2514.7257000000477,2512.3770000000004,2514.2105,2515.222899999857,2515.722899999857,2515.722899999857,2517.8273999998573,1483,2517.8273999998573,5,2517.832099999905,7,15,225,5,1,0.8,0.7,Time
,,649241,001,,,2025-06-04_17h24.28.488,Serial_Dependence_U,2023.2.3,Win32,60.240963855400565,,,,,,2517.8322999999527,253,7,2517.832399999857,253,,,,2521.3768999998574,2521.872700000048,2520.860200000048,2521.3768999998574,2518.8230000000003,2520.860200000048,2521.872700000048,2522.3725999999047,2522.3725999999047,2524.293700000048,1400,2524.2937999999526,5,2524.2982999999526,7,16,226,6,1,1,0.7,Time
,,649241,001,,,2025-06-04_17h24.28.488,Serial_Dependence_U,2023.2.3,Win32,60.240963855400565,,,,,,2524.2985000000003,81,7,2524.298599999905,81,,,,2528.4600999999047,2528.9557999999524,2527.9435000000003,2528.46,2525.2927999999524,2527.9433999998573,2528.9557999999524,2529.455899999857,2529.455899999857,2531.593899999857,1600,2531.593899999857,3,2531.5985999999048,7,17,227,9,1,1.6,0.7,Time
,,649241,001,,,2025-06-04_17h24.28.488,Serial_Dependence_U,2023.2.3,Win32,60.240963855400565,,,,,,2531.5987000000478,104,7,2531.5987999999525,104,,,,2535.572700000048,2536.0722999999525,2535.0592999999526,2535.572700000048,2532.589399999857,2535.0592999999526,2536.0722999999525,2536.575700000048,2536.575700000048,2538.527399999857,1317,2538.5275,2,2538.5317999999525,7,18,228,23,1,1.4,0.3,Time
,,649241,001,,,2025-06-04_17h24.28.488,Serial_Dependence_U,2023.2.3,Win32,60.240963855400565,,,,,,2538.532,259,7,2538.532,259,,,,2542.708399999857,2543.2055,2542.189200000048,2542.7082999999525,2539.5225999999047,2542.189099999905,2543.2055,2543.7055,2543.7055,2546.0768999998572,1667,2546.0768999998572,3,2546.081700000048,7,19,229,4,1,1.6,0.3,Time
,,649241,001,,,2025-06-04_17h24.28.488,Serial_Dependence_U,2023.2.3,Win32,60.240963855400565,,,,,,2546.0817999999526,42,7,2546.0817999999526,42,,,,2549.8588999998574,2550.355399999857,2549.3428999998573,2549.8588999998574,2547.0725,2549.3428999998573,2550.355399999857,2550.8552999999524,2550.855399999857,2552.8098999998574,1101,2552.8098999998574,2,2552.8143999998574,7,20,230,12,1,1.2,0.3,Time
,,649241,001,,,2025-06-04_17h24.28.488,Serial_Dependence_U,2023.2.3,Win32,60.240963855400565,,,,,,2552.8145000000004,54,7,2552.8145999999047,54,,,,2556.1722000000477,2556.671899999857,2555.659399999857,2556.1722000000477,2553.822399999857,2555.659399999857,2556.671899999857,2557.171799999953,2557.171799999953,2558.9265,1047,2558.9265,5,2558.930899999857,7,21,231,25,1,0.8,0.7,Time
,,649241,001,,,2025-06-04_17h24.28.488,Serial_Dependence_U,2023.2.3,Win32,60.240963855400565,,,,,,2558.9310999999047,138,7,2558.9310999999047,138,,,,2562.9092999999525,2563.405,2562.3925000000004,2562.909200000048,2559.922,2562.3925000000004,2563.405,2563.905,2563.905099999905,2565.5262999999527,1079,2565.5262999999527,2,2565.530700000048,7,22,232,3,1,1.4,0.3,Time
,,649241,001,,,2025-06-04_17h24.28.488,Serial_Dependence_U,2023.2.3,Win32,60.240963855400565,,,,,,2565.5308999998574,93,7,2565.5310000000004,93,,,,2569.074599999905,2569.5715,2568.559200000048,2569.0745,2566.5260000000003,2568.559200000048,2569.5715,2570.0715,2570.0715,2571.776099999905,1183,2571.776200000048,4,2571.7807999999527,7,23,233,16,1,1,0.7,Time
,,649241,001,,,2025-06-04_17h24.28.488,Serial_Dependence_U,2023.2.3,Win32,60.240963855400565,,,,,,2571.7807999999527,300,7,2571.7808999998574,300,,,,2575.3407999999527,2575.8415000000005,2574.825700000048,2575.3407999999527,2572.788399999857,2574.825599999905,2575.8415000000005,2576.338,2576.338,2578.209599999905,1234,2578.209599999905,4,2578.2142999999523,7,24,234,26,1,1,0.7,Time
,,649241,001,,,2025-06-04_17h24.28.488,Serial_Dependence_U,2023.2.3,Win32,60.240963855400565,,,,,,2578.2145,38,7,2578.2145,38,,,,2581.588200000048,2582.0877999999525,2581.0755000000004,2581.588099999905,2579.2088999998573,2581.0755000000004,2582.0877999999525,2582.587899999857,2582.588,2584.4923999998573,1167,2584.4923999998573,5,2584.4968999998573,7,25,235,10,1,0.8,0.3,Time
,,649241,001,,,2025-06-04_17h24.28.488,Serial_Dependence_U,2023.2.3,Win32,60.240963855400565,,,,,,2584.497099999905,254,7,2584.497099999905,254,,,,2588.441899999857,2588.9377000000477,2587.9253999998573,2588.441899999857,2585.492,2587.9252999999526,2588.9377000000477,2589.4377000000477,2589.4377000000477,2591.1422999999527,1133,2591.1423999998574,2,2591.1467999999527,7,26,236,18,1,1.4,0.7,Time
,,649241,001,,,2025-06-04_17h24.28.488,Serial_Dependence_U,2023.2.3,Win32,60.240963855400565,,,,,,2591.1468999998574,336,7,2591.1470000000004,336,,,,2595.321200000048,2595.8208999998574,2594.808399999857,2595.321099999905,2592.1378999998574,2594.8082999999524,2595.8208999998574,2596.3242999999525,2596.3242999999525,2598.3255000000004,1417,2598.325599999905,2,2598.330200000048,7,27,237,14,1,1.6,0.3,Time
,,649241,001,,,2025-06-04_17h24.28.488,Serial_Dependence_U,2023.2.3,Win32,60.240963855400565,,,,,,2598.3302999999523,117,7,2598.3305,117,,,,2602.1043999998574,2602.607399999857,2601.591700000048,2602.1042999999527,2599.3417999999524,2601.5915000000005,2602.6075,2603.1040000000003,2603.104099999905,2605.1585000000005,1450,2605.1585000000005,4,2605.1630000000005,7,28,238,17,1,1.2,0.7,Time
,,649241,001,,,2025-06-04_17h24.28.488,Serial_Dependence_U,2023.2.3,Win32,60.240963855400565,,,,,,2605.1630999999047,304,7,2605.1632000000477,304,,,,2609.304099999905,2609.803899999857,2608.7915000000003,2609.304099999905,2606.1542999999524,2608.7913999998573,2609.803899999857,2610.307200000048,2610.3072999999526,2612.091700000048,1267,2612.0917999999524,2,2612.0962999999524,7,29,239,29,1,1.6,0.7,Time
,,649241,001,,,2025-06-04_17h24.28.488,Serial_Dependence_U,2023.2.3,Win32,60.240963855400565,,,,,,2612.096399999857,14,8,2613.903899999857,14,s,1.7872999999522108,,2617.8873999998573,2618.387,2617.374700000048,2617.8872999999526,2614.908099999905,2617.374700000048,2618.387,2618.887,2618.887,2626.108,1033,2626.108099999905,2,2626.1128999998573,8,0,240,3,1,1.4,0.3,Time
,,649241,001,,,2025-06-04_17h24.28.488,Serial_Dependence_U,2023.2.3,Win32,60.240963855400565,,,,,,2626.1130000000003,102,8,2626.113599999905,102,,,,2629.489599999905,2629.986700000048,2628.974599999905,2629.489599999905,2627.1075,2628.974599999905,2629.986700000048,2630.486700000048,2630.4867999999524,2632.3412999999528,1217,2632.341399999857,5,2632.3460999999047,8,1,241,10,1,0.8,0.3,Time
,,649241,001,,,2025-06-04_17h24.28.488,Serial_Dependence_U,2023.2.3,Win32,60.240963855400565,,,,,,2632.3462999999524,323,8,2632.3462999999524,323,,,,2635.6868999998574,2636.186599999905,2635.1702999999525,2635.6868999998574,2633.3395,2635.1702000000478,2636.186599999905,2636.686599999905,2636.686599999905,2699.6232000000477,1255,2699.6232999999525,5,2699.627899999857,8,2,242,15,1,0.8,0.7,Time
,,649241,001,,,2025-06-04_17h24.28.488,Serial_Dependence_U,2023.2.3,Win32,60.240963855400565,,,,,,2699.628,108,8,2699.628200000048,108,,,,2702.9890999999047,2703.484899999857,2702.472700000048,2702.989,2700.6225999999047,2702.472599999905,2703.484899999857,2703.984899999857,2703.984899999857,2805.3037999999524,888,2805.3037999999524,4,2805.308700000048,8,3,243,5,1,0.8,0.7,Time
,,649241,001,,,2025-06-04_17h24.28.488,Serial_Dependence_U,2023.2.3,Win32,60.240963855400565,,,,,,2805.3087999999525,344,8,2805.3087999999525,344,,,,2808.8493999998573,2809.349099999905,2808.336599999905,2808.8492999999526,2806.299399999857,2808.336599999905,2809.349099999905,2809.849,2809.849,2812.4542999999526,1215,2812.4542999999526,4,2812.458700000048,8,4,244,26,1,1,0.7,Time
,,649241,001,,,2025-06-04_17h24.28.488,Serial_Dependence_U,2023.2.3,Win32,60.240963855400565,,,,,,2812.4587999999526,350,8,2812.4588999998573,350,,,,2816.4325000000003,2816.932099999905,2815.919899999857,2816.4325000000003,2813.4518999998572,2815.9197999999524,2816.932099999905,2817.4357000000477,2817.4357000000477,2820.887,1067,2820.887,2,2820.8917999999526,8,5,245,23,1,1.4,0.3,Time
,,649241,001,,,2025-06-04_17h24.28.488,Serial_Dependence_U,2023.2.3,Win32,60.240963855400565,,,,,,2820.8918999998573,39,8,2820.8920000000003,39,,,,2824.265700000048,2824.7652999999527,2823.753099999905,2824.2655999999047,2821.886399999857,2823.753,2824.7652999999527,2825.2652999999527,2825.265399999857,2826.9370000000004,1100,2826.9370000000004,5,2826.941599999905,8,6,246,20,1,0.8,0.3,Time
,,649241,001,,,2025-06-04_17h24.28.488,Serial_Dependence_U,2023.2.3,Win32,60.240963855400565,,,,,,2826.941700000048,107,8,2826.941700000048,107,,,,2831.082099999905,2831.5818999998573,2830.5695999999048,2831.082099999905,2827.936200000048,2830.5695,2831.5818999998573,2832.0818999998573,2832.0818999998573,2845.202700000048,1185,2845.2027999999527,2,2845.2075000000004,8,7,247,9,1,1.6,0.7,Time
,,649241,001,,,2025-06-04_17h24.28.488,Serial_Dependence_U,2023.2.3,Win32,60.240963855400565,,,,,,2845.2075999999047,180,8,2845.207700000048,180,,,,2848.7817000000477,2849.281399999857,2848.269099999905,2848.7815999999048,2846.2025000000003,2848.2688999998572,2849.281399999857,2849.7812999999524,2849.7812999999524,2851.969399999857,1068,2851.969399999857,4,2851.974,8,8,248,1,1,1,0.3,Time
,,649241,001,,,2025-06-04_17h24.28.488,Serial_Dependence_U,2023.2.3,Win32,60.240963855400565,,,,,,2851.974099999905,257,8,2851.974099999905,257,,,,2856.1315999999047,2856.631200000048,2855.619,2856.1315999999047,2852.981700000048,2855.618899999857,2856.6312999999527,2857.1312999999527,2857.1312999999527,2859.085700000048,1350,2859.0857999999525,2,2859.0903999998573,8,9,249,29,1,1.6,0.7,Time
,,649241,001,,,2025-06-04_17h24.28.488,Serial_Dependence_U,2023.2.3,Win32,60.240963855400565,,,,,,2859.0905000000002,221,8,2859.0905000000002,221,,,,2862.431399999857,2862.9310999999047,2861.918599999905,2862.431399999857,2860.0852999999524,2861.918599999905,2862.9310999999047,2863.431,2863.431,2865.669099999905,1341,2865.669099999905,5,2865.6735000000003,8,10,250,25,1,0.8,0.7,Time
,,649241,001,,,2025-06-04_17h24.28.488,Serial_Dependence_U,2023.2.3,Win32,60.240963855400565,,,,,,2865.673599999905,143,8,2865.673700000048,143,,,,2869.2172999999525,2869.7142999999523,2868.698099999905,2869.217200000048,2866.664599999905,2868.6980000000003,2869.7142999999523,2870.217700000048,2870.217700000048,2875.602200000048,1675,2875.602200000048,5,2875.6067999999527,8,11,251,6,1,1,0.7,Time
,,649241,001,,,2025-06-04_17h24.28.488,Serial_Dependence_U,2023.2.3,Win32,60.240963855400565,,,,,,2875.6070000000004,188,8,2875.6070000000004,188,,,,2879.547599999905,2880.0472999999524,2879.035099999905,2879.547599999905,2876.601700000048,2879.0350000000003,2880.0472999999524,2880.5472999999524,2880.5472999999524,2882.985099999905,1333,2882.985200000048,3,2882.9900000000002,8,12,252,18,1,1.4,0.7,Time
,,649241,001,,,2025-06-04_17h24.28.488,Serial_Dependence_U,2023.2.3,Win32,60.240963855400565,,,,,,2882.990099999905,63,8,2882.990200000048,63,,,,2886.968099999905,2887.4637999999527,2886.4515,2886.9680000000003,2883.9833999998573,2886.451399999857,2887.4637999999527,2887.9637999999527,2887.9637999999527,2890.0640000000003,1111,2890.0640000000003,2,2890.0685000000003,8,13,253,13,1,1.4,0.3,Time
,,649241,001,,,2025-06-04_17h24.28.488,Serial_Dependence_U,2023.2.3,Win32,60.240963855400565,,,,,,2890.0687999999527,143,8,2890.0687999999527,143,,,,2893.8140000000003,2894.313599999905,2893.301200000048,2893.8140000000003,2891.0640000000003,2893.301200000048,2894.313599999905,2894.813700000048,2894.813700000048,2930.700799999953,1034,2930.700799999953,2,2930.705399999857,8,14,254,27,1,1.2,0.7,Time
,,649241,001,,,2025-06-04_17h24.28.488,Serial_Dependence_U,2023.2.3,Win32,60.240963855400565,,,,,,2930.7055999999047,233,8,2930.7057000000477,233,,,,2934.4653999998573,2934.962700000048,2933.950899999857,2934.4653999998573,2931.7132999999526,2933.950799999953,2934.962700000048,2935.462700000048,2935.462700000048,2970.3832999999527,1096,2970.3833999998574,2,2970.3880000000004,8,15,255,17,1,1.2,0.7,Time
