Scale_setup.started,Scale_setup.stopped,participant,session,sex,age,date,expName,psychopyVersion,OS,frameRate,Intro.started,Intro.stopped,key_resp_2.keys,key_resp_2.rt,key_resp_2.duration,block.started,direction,Block_id,block.stopped,trial_direction,Block_resp_2.keys,Block_resp_2.rt,Block_resp_2.duration,ITI.started,ITI.stopped,Mask_2.started,Mask_2.stopped,encoding.started,encoding.stopped,Cue.started,Cue.stopped,Response.started,Response.stopped,keyDuration,Feedback_Time.started,FeedbackID_T,Feedback_Time.stopped,trials.thisRepN,trials.thisTrialN,trials.thisN,trials.thisIndex,trials.ran,TimeDur,Coherence1,TrialType
0.00020000001788389454,0.0005000000000023874,653663,001,female,19,2025-06-02_16h24.30.965,Serial_Dependence_U,2023.2.3,Win32,59.523809523799216,,,,,,,,,,,,,,,,,,,,,,,,,,,,,,,,,,,
,,653663,001,female,19,2025-06-02_16h24.30.965,Serial_Dependence_U,2023.2.3,Win32,59.523809523799216,34.03740000000597,37.05330000001192,space,2.968600000023841,,,,,,,,,,,,,,,,,,,,,,,,,,,,,,,
,,653663,001,female,19,2025-06-02_16h24.30.965,Serial_Dependence_U,2023.2.3,Win32,59.523809523799216,,,,,,37.06460000002384,153,0,142.49820000001787,153,s,105.40150000000001,,146.4828000000119,146.98160000002383,145.96570000001788,146.4825,143.49949999999998,145.9655,146.98190000000596,147.48240000000595,147.48270000001787,152.47740000000596,1188,152.47790000000595,2,153.46699999999998,0,0,0,13,1,1.4,0.3,Time
,,653663,001,female,19,2025-06-02_16h24.30.965,Serial_Dependence_U,2023.2.3,Win32,59.523809523799216,,,,,,153.46810000002384,201,0,153.4705,201,,,,157.6287000000179,158.1183000000119,157.11240000000595,157.62860000002382,154.47620000001788,157.1123000000119,158.11840000000595,158.61780000001193,158.61780000001193,168.53280000001192,6919,168.53290000000595,5,169.52120000001787,0,1,1,9,1,1.6,0.7,Time
,,653663,001,female,19,2025-06-02_16h24.30.965,Serial_Dependence_U,2023.2.3,Win32,59.523809523799216,,,,,,169.52190000000596,154,0,169.52220000001788,154,,,,173.10570000001786,173.605,172.59070000001788,173.1055,170.52740000000594,172.5905,173.60510000002384,174.10520000001787,174.10520000001787,176.5513000000119,1067,176.5515,4,177.53960000002382,0,2,2,1,1,1,0.3,Time
,,653663,001,female,19,2025-06-02_16h24.30.965,Serial_Dependence_U,2023.2.3,Win32,59.523809523799216,,,,,,177.5403000000119,17,0,177.54070000001786,17,,,,181.3023000000119,181.7985,180.78440000000595,181.30210000002384,178.54620000001788,180.7843000000119,181.79860000002384,182.29160000002383,182.29170000001787,183.81190000000595,30,183.81199999999998,1,184.808,0,3,3,17,1,1.2,0.7,Time
,,653663,001,female,19,2025-06-02_16h24.30.965,Serial_Dependence_U,2023.2.3,Win32,59.523809523799216,,,,,,184.80849999999998,343,0,184.80860000002383,343,,,,188.21660000002385,188.70890000000594,187.70120000001788,188.21640000000596,185.83240000000595,187.701,188.70890000000594,189.20910000002382,189.20910000002382,189.8935,296,189.89360000002384,1,190.89360000002384,0,4,4,10,1,0.8,0.3,Time
,,653663,001,female,19,2025-06-02_16h24.30.965,Serial_Dependence_U,2023.2.3,Win32,59.523809523799216,,,,,,190.89430000001192,36,0,190.8945,36,,,,194.245,194.74390000000597,193.73970000001788,194.24490000000594,191.89390000000594,193.7396000000238,194.74390000000597,195.23780000001193,195.23780000001193,197.71680000001192,244,197.71690000000598,1,198.7122000000179,0,5,5,5,1,0.8,0.7,Time
,,653663,001,female,19,2025-06-02_16h24.30.965,Serial_Dependence_U,2023.2.3,Win32,59.523809523799216,,,,,,198.71299999999997,228,0,198.71330000001194,228,,,,202.29110000002385,202.77940000000598,201.78990000000596,202.291,199.72120000001786,201.7897000000179,202.77949999999998,203.27960000002383,203.27960000002383,205.55970000001787,2121,205.55990000000594,5,206.56420000001788,0,6,6,11,1,1,0.3,Time
,,653663,001,female,19,2025-06-02_16h24.30.965,Serial_Dependence_U,2023.2.3,Win32,59.523809523799216,,,,,,206.565,78,0,206.56530000001192,78,,,,210.7557000000179,211.2488000000119,210.2533000000119,210.7557000000179,207.59110000002386,210.25310000002384,211.2488000000119,211.73980000001194,211.73990000000595,211.90910000002384,34,211.9093000000119,1,212.89940000000593,0,7,7,24,1,1.6,0.3,Time
,,653663,001,female,19,2025-06-02_16h24.30.965,Serial_Dependence_U,2023.2.3,Win32,59.523809523799216,,,,,,212.89999999999998,29,0,212.9002000000179,29,,,,217.05480000001197,217.55049999999997,216.54430000001187,217.0547000000179,213.90550000000002,216.54410000002386,217.55049999999997,218.04999999999998,218.05010000002383,219.9941000000238,1687,219.99420000001786,4,220.98399999999995,0,8,8,29,1,1.6,0.7,Time
,,653663,001,female,19,2025-06-02_16h24.30.965,Serial_Dependence_U,2023.2.3,Win32,59.523809523799216,,,,,,220.9846000000238,331,0,220.98470000001785,331,,,,224.9637000000179,225.453,224.44620000001785,224.96349999999998,221.9972000000179,224.44599999999994,225.45310000002385,225.95220000001783,225.95240000000595,227.3199000000059,108,227.31999999999996,1,228.3194000000059,0,9,9,18,1,1.4,0.7,Time
,,653663,001,female,19,2025-06-02_16h24.30.965,Serial_Dependence_U,2023.2.3,Win32,59.523809523799216,,,,,,228.31999999999996,167,0,228.32020000001788,167,,,,232.3085,232.80440000000593,231.7978000000119,232.30840000000595,229.3368000000119,231.7976000000239,232.80460000002384,233.30390000000594,233.30390000000594,233.6543000000119,311,233.65440000000595,1,234.6543000000119,0,10,10,3,1,1.4,0.3,Time
,,653663,001,female,19,2025-06-02_16h24.30.965,Serial_Dependence_U,2023.2.3,Win32,59.523809523799216,,,,,,234.65510000002385,190,0,234.65540000000593,190,,,,238.833,239.3223000000119,238.32570000001786,238.83290000000594,235.66300000000004,238.3256000000238,239.32240000000596,239.81520000001788,239.815400000006,242.09030000001192,134,242.09030000001192,1,243.09020000001786,0,11,11,14,1,1.6,0.3,Time
,,653663,001,female,19,2025-06-02_16h24.30.965,Serial_Dependence_U,2023.2.3,Win32,59.523809523799216,,,,,,243.09110000002389,178,0,243.0913000000119,178,,,,246.8772000000179,247.37440000000598,246.36849999999995,246.87710000002383,244.10730000001186,246.368400000006,247.37440000000598,247.87500000000003,247.87510000002388,251.16470000001792,67,251.16470000001792,1,252.15920000001782,0,12,12,12,1,1.2,0.3,Time
,,653663,001,female,19,2025-06-02_16h24.30.965,Serial_Dependence_U,2023.2.3,Win32,59.523809523799216,,,,,,252.15990000000593,35,0,252.1602000000179,35,,,,255.7441000000238,256.237,255.23830000001195,255.74399999999994,253.16080000001196,255.23810000002382,256.2371000000239,256.7266000000239,256.7266000000239,263.3790000000001,220,263.3791000000238,1,264.3790000000001,0,13,13,21,1,1,0.3,Time
,,653663,001,female,19,2025-06-02_16h24.30.965,Serial_Dependence_U,2023.2.3,Win32,59.523809523799216,,,,,,264.3796000000239,307,0,264.379900000006,307,,,,268.13640000000595,268.6313000000119,267.63500000000005,268.13640000000595,265.4026000000238,267.6348000000119,268.63140000000595,269.13000000000005,269.13000000000005,271.6915000000001,542,271.6916000000238,1,272.681,0,14,14,7,1,1.2,0.7,Time
,,653663,001,female,19,2025-06-02_16h24.30.965,Serial_Dependence_U,2023.2.3,Win32,59.523809523799216,,,,,,272.6817000000179,290,0,272.6820000000001,290,,,,276.48290000000594,276.98190000000596,275.9695,276.4827000000179,273.699,275.96940000000603,276.982,277.49210000002387,277.49220000001793,282.3223000000119,132,282.322400000006,1,283.31770000001785,0,15,15,22,1,1.2,0.3,Time
,,653663,001,female,19,2025-06-02_16h24.30.965,Serial_Dependence_U,2023.2.3,Win32,59.523809523799216,,,,,,283.3183000000119,29,0,283.31850000000003,29,,,,287.2686000000238,287.76880000001194,286.75790000000603,287.2685000000001,284.325400000006,286.7577000000179,287.768900000006,288.2687000000179,288.268900000006,454.2461000000239,194,454.24620000001795,1,455.2451000000239,0,16,16,28,1,1.4,0.7,Time
,,653663,001,female,19,2025-06-02_16h24.30.965,Serial_Dependence_U,2023.2.3,Win32,59.523809523799216,,,,,,455.2456000000239,232,0,455.245900000006,232,,,,458.83270000001795,459.329300000012,458.324300000012,458.83250000000004,456.2680000000001,458.32410000002386,459.32940000000605,459.8216000000239,459.8216000000239,461.425300000012,1546,461.4255,5,462.41350000000006,0,17,17,16,1,1,0.7,Time
,,653663,001,female,19,2025-06-02_16h24.30.965,Serial_Dependence_U,2023.2.3,Win32,59.523809523799216,,,,,,462.41420000001796,308,0,462.414300000012,308,,,,466.406300000012,466.8986000000239,465.891,466.4062000000179,463.425,465.89090000000596,466.8986000000239,467.39190000000605,467.39190000000605,471.5612000000179,2268,471.56130000001195,5,472.5496000000239,0,18,18,23,1,1.4,0.3,Time
,,653663,001,female,19,2025-06-02_16h24.30.965,Serial_Dependence_U,2023.2.3,Win32,59.523809523799216,,,,,,472.55010000002386,205,0,472.550300000012,205,,,,475.9015,476.4005,475.393900000006,475.901300000012,473.55820000001796,475.39380000001194,476.4005,476.90070000001793,476.90070000001793,477.70720000001796,611,477.707300000012,2,478.701400000006,0,19,19,15,1,0.8,0.7,Time
,,653663,001,female,19,2025-06-02_16h24.30.965,Serial_Dependence_U,2023.2.3,Win32,59.523809523799216,,,,,,478.701900000006,6,0,478.7021000000239,6,,,,482.645800000012,483.135800000012,482.1422000000179,482.645800000012,479.70840000000607,482.142,483.13590000000596,483.63570000001795,483.635800000012,484.647900000006,149,484.64810000002393,1,485.6367000000179,0,20,20,8,1,1.4,0.7,Time
,,653663,001,female,19,2025-06-02_16h24.30.965,Serial_Dependence_U,2023.2.3,Win32,59.523809523799216,,,,,,485.637300000012,236,0,485.63760000002384,236,,,,489.8045,490.30460000002387,489.28850000000006,489.80440000000596,486.65350000000007,489.28830000001193,490.30460000002387,490.8052000000179,490.8052000000179,491.75550000000004,98,491.7556000000239,1,492.75520000001796,0,21,21,19,1,1.6,0.7,Time
,,653663,001,female,19,2025-06-02_16h24.30.965,Serial_Dependence_U,2023.2.3,Win32,59.523809523799216,,,,,,492.7556000000239,51,0,492.75590000000597,51,,,,496.3065000000001,496.80580000001197,495.7912000000179,496.30630000001196,493.75620000001794,495.79110000002385,496.80580000001197,497.306400000006,497.3065000000001,499.468,82,499.46810000002387,1,500.4568000000119,0,22,22,26,1,1,0.7,Time
,,653663,001,female,19,2025-06-02_16h24.30.965,Serial_Dependence_U,2023.2.3,Win32,59.523809523799216,,,,,,500.457400000006,334,0,500.4576000000239,334,,,,504.01880000001194,504.50810000002394,503.49670000001794,504.018700000018,501.4581000000239,503.4966000000239,504.5082000000179,505.0087000000179,505.0087000000179,505.6422000000179,89,505.6422000000179,1,506.641800000012,0,23,23,6,1,1,0.7,Time
,,653663,001,female,19,2025-06-02_16h24.30.965,Serial_Dependence_U,2023.2.3,Win32,59.523809523799216,,,,,,506.64240000000603,68,0,506.64260000002395,68,,,,510.4276000000239,510.9271000000239,509.91,510.42750000000007,507.64540000000596,509.909800000012,510.9271000000239,511.4262000000179,511.42630000001196,513.705900000006,139,513.7061000000239,1,514.7106000000239,0,24,24,2,1,1.2,0.3,Time
,,653663,001,female,19,2025-06-02_16h24.30.965,Serial_Dependence_U,2023.2.3,Win32,59.523809523799216,,,,,,514.7112000000179,140,0,514.7114000000059,140,,,,518.0958000000119,518.5947000000178,517.59,518.0956000000239,515.7126000000238,517.5898000000119,518.5947000000178,519.095,519.095,520.3297000000179,209,520.3298000000119,1,521.328900000006,0,25,25,20,1,0.8,0.3,Time
,,653663,001,female,19,2025-06-02_16h24.30.965,Serial_Dependence_U,2023.2.3,Win32,59.523809523799216,,,,,,521.3293000000119,37,0,521.329400000006,37,,,,525.0977000000179,525.5966000000238,524.5911000000239,525.0975,522.3411000000239,524.5908000000119,525.5967000000179,526.0971000000238,526.097300000012,533.4928000000119,193,533.492900000006,1,534.4828000000119,0,26,26,27,1,1.2,0.7,Time
,,653663,001,female,19,2025-06-02_16h24.30.965,Serial_Dependence_U,2023.2.3,Win32,59.523809523799216,,,,,,534.4836000000238,69,0,534.4837000000178,69,,,,537.861300000012,538.3503000000119,537.344900000006,537.8609000000059,535.4999000000059,537.3446000000239,538.350400000006,538.8506000000239,538.8506000000239,544.33,4885,544.3301000000239,5,545.3187000000179,0,27,27,25,1,0.8,0.7,Time
,,653663,001,female,19,2025-06-02_16h24.30.965,Serial_Dependence_U,2023.2.3,Win32,59.523809523799216,,,,,,545.3193000000119,198,0,545.3195,198,,,,548.712,549.2032000000179,548.1927000000179,548.712,546.331,548.1925,549.2032000000179,549.7036000000238,549.7036000000238,554.0002000000179,3729,554.0003000000119,5,554.988400000006,0,28,28,0,1,0.8,0.3,Time
,,653663,001,female,19,2025-06-02_16h24.30.965,Serial_Dependence_U,2023.2.3,Win32,59.523809523799216,,,,,,554.988900000006,224,0,554.9892000000178,224,,,,559.1816000000239,559.6727000000179,558.6761000000238,559.181400000006,556.0141000000239,558.676,559.6728000000119,560.1721000000239,560.1722000000178,565.2528000000119,4917,565.252900000006,5,566.2414000000059,0,29,29,4,1,1.6,0.3,Time
,,653663,001,female,19,2025-06-02_16h24.30.965,Serial_Dependence_U,2023.2.3,Win32,59.523809523799216,,,,,,566.242,330,1,593.347900000006,330,s,27.0708000000119,,596.7007000000178,597.192,596.191900000006,596.7005,594.3519000000059,596.191900000006,597.1921000000239,597.6822000000179,597.6823000000119,601.1566000000238,2912,601.1567000000178,5,601.1573000000119,1,0,30,25,1,0.8,0.7,Time
,,653663,001,female,19,2025-06-02_16h24.30.965,Serial_Dependence_U,2023.2.3,Win32,59.523809523799216,,,,,,601.157900000006,355,1,601.1596000000238,355,,,,604.5095,605.001300000012,603.9954000000059,604.5094000000059,602.1589000000059,603.9953000000119,605.0014000000059,605.502,605.5021000000238,609.1206000000238,3075,609.1207000000179,5,609.1209000000059,1,1,31,15,1,0.8,0.7,Time
,,653663,001,female,19,2025-06-02_16h24.30.965,Serial_Dependence_U,2023.2.3,Win32,59.523809523799216,,,,,,609.1214000000059,35,1,609.1215,35,,,,612.904,613.4035,612.398,612.9038000000119,610.1303000000119,612.397900000006,613.4035,613.896,613.896,617.816,3695,617.816,5,617.8166000000239,1,2,32,22,1,1.2,0.3,Time
,,653663,001,female,19,2025-06-02_16h24.30.965,Serial_Dependence_U,2023.2.3,Win32,59.523809523799216,,,,,,617.817,16,1,617.8171000000239,16,,,,622.0059000000059,622.5053000000119,621.5007000000179,622.0059000000059,618.8313000000119,621.5006000000238,622.5053000000119,623.0057000000179,623.005800000012,627.417400000006,4169,627.417400000006,5,627.4178000000119,1,3,33,24,1,1.6,0.3,Time
,,653663,001,female,19,2025-06-02_16h24.30.965,Serial_Dependence_U,2023.2.3,Win32,59.523809523799216,,,,,,627.4181000000239,212,1,627.4182000000179,212,,,,630.9753000000119,631.4746000000239,630.4681000000238,630.9753000000119,628.412400000006,630.4681000000238,631.4746000000239,631.9743000000119,631.974400000006,635.9042000000179,3734,635.9043000000119,5,635.9049000000059,1,4,34,26,1,1,0.7,Time
,,653663,001,female,19,2025-06-02_16h24.30.965,Serial_Dependence_U,2023.2.3,Win32,59.523809523799216,,,,,,635.905300000012,203,1,635.9056000000238,203,,,,640.0551000000238,640.5433000000119,639.5473000000119,640.054900000006,636.910400000006,639.5471000000239,640.5434000000059,641.0439000000059,641.0439000000059,645.554,4333,645.5541000000238,5,645.5542000000179,1,5,35,29,1,1.6,0.7,Time
,,653663,001,female,19,2025-06-02_16h24.30.965,Serial_Dependence_U,2023.2.3,Win32,59.523809523799216,,,,,,645.5548000000119,321,1,645.554900000006,321,,,,649.7547000000179,650.2457000000179,649.2407000000179,649.7547000000179,646.562,649.2405,650.245800000012,650.7461000000238,650.7461000000238,654.9415,3635,654.9415,5,654.941900000006,1,6,36,4,1,1.6,0.3,Time
,,653663,001,female,19,2025-06-02_16h24.30.965,Serial_Dependence_U,2023.2.3,Win32,59.523809523799216,,,,,,654.9422000000179,9,1,654.9423000000119,9,,,,658.8827000000178,659.3814000000059,658.3757000000179,658.8826000000238,655.934300000012,658.3757000000179,659.3815,659.8824999999999,659.8824999999999,664.5953000000119,4248,664.595400000006,5,664.5959000000059,1,7,37,18,1,1.4,0.7,Time
,,653663,001,female,19,2025-06-02_16h24.30.965,Serial_Dependence_U,2023.2.3,Win32,59.523809523799216,,,,,,664.5964000000059,16,1,664.5966000000238,16,,,,668.1676000000239,668.6671000000239,667.659300000012,668.1675,665.6104000000059,667.6592000000179,668.6672000000178,669.1678000000119,669.167900000006,672.902,3685,672.9021000000238,5,672.9025,1,8,38,16,1,1,0.7,Time
,,653663,001,female,19,2025-06-02_16h24.30.965,Serial_Dependence_U,2023.2.3,Win32,59.523809523799216,,,,,,672.9028000000119,317,1,672.903,317,,,,676.9123000000119,677.4027000000178,676.3973000000119,676.9123000000119,673.9272000000178,676.397,677.4028000000119,677.903400000006,677.903400000006,681.8124000000059,3330,681.8125,5,681.8128000000119,1,9,39,23,1,1.4,0.3,Time
,,653663,001,female,19,2025-06-02_16h24.30.965,Serial_Dependence_U,2023.2.3,Win32,59.523809523799216,,,,,,681.8132000000179,96,1,681.8134000000059,96,,,,685.405300000012,685.9056000000238,684.8994000000059,685.4052000000179,682.822,684.8993000000119,685.9056000000238,686.4058000000119,686.405900000006,690.3175,3779,690.3176000000238,5,690.3181000000238,1,10,40,1,1,1,0.3,Time
,,653663,001,female,19,2025-06-02_16h24.30.965,Serial_Dependence_U,2023.2.3,Win32,59.523809523799216,,,,,,690.3186000000238,73,1,690.3189000000059,73,,,,693.867900000006,694.358,693.3582000000179,693.8678000000119,691.3268000000119,693.3581000000238,694.358,694.8576000000238,694.8578000000119,698.6666000000239,3732,698.6667000000178,5,698.667,1,11,41,6,1,1,0.7,Time
,,653663,001,female,19,2025-06-02_16h24.30.965,Serial_Dependence_U,2023.2.3,Win32,59.523809523799216,,,,,,698.667400000006,133,1,698.6676000000239,133,,,,702.0602000000179,702.5595,701.5483000000119,702.0601000000238,699.6797000000179,701.5481000000239,702.5596000000238,703.059900000006,703.059900000006,707.7381000000238,4601,707.7382000000179,5,707.7386000000238,1,12,42,0,1,0.8,0.3,Time
,,653663,001,female,19,2025-06-02_16h24.30.965,Serial_Dependence_U,2023.2.3,Win32,59.523809523799216,,,,,,707.7391000000239,292,1,707.739400000006,292,,,,711.3123000000119,711.8123000000119,710.8002000000179,711.3122000000179,708.738900000006,710.8001000000238,711.8124000000059,712.3126000000238,712.3127000000179,716.5418000000119,3933,716.542,5,716.5425,1,13,43,21,1,1,0.3,Time
,,653663,001,female,19,2025-06-02_16h24.30.965,Serial_Dependence_U,2023.2.3,Win32,59.523809523799216,,,,,,716.5433000000119,353,1,716.5436000000238,353,,,,719.924,720.414800000012,719.4165,719.924,717.5475,719.4163000000119,720.4149000000059,720.9149000000059,720.915,725.4123000000119,4369,725.4123000000119,5,725.4136000000238,1,14,44,10,1,0.8,0.3,Time
,,653663,001,female,19,2025-06-02_16h24.30.965,Serial_Dependence_U,2023.2.3,Win32,59.523809523799216,,,,,,725.414,178,1,725.4142000000179,178,,,,729.3836000000239,729.8832000000178,728.8677000000179,729.3835,726.425400000006,728.8675,729.8832000000178,730.3832000000178,730.3832000000178,734.4296000000238,3645,734.4298000000119,5,734.43,1,15,45,8,1,1.4,0.7,Time
,,653663,001,female,19,2025-06-02_16h24.30.965,Serial_Dependence_U,2023.2.3,Win32,59.523809523799216,,,,,,734.4304999999999,43,1,734.4306000000238,43,,,,738.6143000000119,739.1022000000179,738.0869000000059,738.6141000000239,735.4458000000119,738.0867000000179,739.1022000000179,739.603,739.603,743.5933000000119,3347,743.593400000006,5,743.5937000000179,1,16,46,9,1,1.6,0.7,Time
,,653663,001,female,19,2025-06-02_16h24.30.965,Serial_Dependence_U,2023.2.3,Win32,59.523809523799216,,,,,,743.5941000000238,138,1,743.5942000000178,138,,,,747.388400000006,747.888400000006,746.8721000000238,747.3883000000119,744.608400000006,746.871900000006,747.8885,748.3814000000059,748.3814000000059,753.4456000000239,4786,753.4456000000239,5,753.4458000000119,1,17,47,12,1,1.2,0.3,Time
,,653663,001,female,19,2025-06-02_16h24.30.965,Serial_Dependence_U,2023.2.3,Win32,59.523809523799216,,,,,,753.445900000006,166,1,753.446,166,,,,756.8079000000059,757.3076000000239,756.2905,756.8078000000119,754.4569000000059,756.2903000000119,757.3077000000179,757.807,757.8071000000239,760.4357000000178,2045,760.4358000000119,5,760.4362000000178,1,18,48,5,1,0.8,0.7,Time
,,653663,001,female,19,2025-06-02_16h24.30.965,Serial_Dependence_U,2023.2.3,Win32,59.523809523799216,,,,,,760.4365,356,1,760.4366000000239,356,,,,764.21,764.709,763.7032000000179,764.209900000006,761.4283000000119,763.703,764.7091000000238,765.2097000000178,765.2097000000178,766.220400000006,563,766.2205,1,766.2208000000119,1,19,49,2,1,1.2,0.3,Time
,,653663,001,female,19,2025-06-02_16h24.30.965,Serial_Dependence_U,2023.2.3,Win32,59.523809523799216,,,,,,766.2213000000119,30,1,766.2214000000059,30,,,,770.0059000000059,770.4938000000119,769.478,770.0057000000179,767.237900000006,769.4778000000119,770.493900000006,770.9938000000119,770.9938000000119,771.7695,463,771.7696000000238,1,771.77,1,20,50,7,1,1.2,0.7,Time
,,653663,001,female,19,2025-06-02_16h24.30.965,Serial_Dependence_U,2023.2.3,Win32,59.523809523799216,,,,,,771.7705,0,1,771.7706000000238,0,,,,775.7556000000238,776.2461000000238,775.2312000000179,775.7556000000238,772.762,775.2311000000238,776.2462000000179,776.7455,776.7455,778.2088000000119,1368,778.208900000006,3,778.2092000000179,1,21,51,13,1,1.4,0.3,Time
,,653663,001,female,19,2025-06-02_16h24.30.965,Serial_Dependence_U,2023.2.3,Win32,59.523809523799216,,,,,,778.2097000000178,6,1,778.21,6,,,,782.3807000000179,782.8804000000059,781.8742000000178,782.3806000000238,779.217800000012,781.874,782.8804000000059,783.3807000000179,783.380800000012,786.4756000000239,1400,786.4758000000119,2,786.4761000000238,1,22,52,19,1,1.6,0.7,Time
,,653663,001,female,19,2025-06-02_16h24.30.965,Serial_Dependence_U,2023.2.3,Win32,59.523809523799216,,,,,,786.4767000000179,319,1,786.4769000000059,319,,,,789.8661000000238,790.3662000000179,789.36,789.866,787.477,789.3598000000119,790.366300000012,790.8661000000238,790.8662000000179,793.4885,136,793.4885,1,793.4888000000119,1,23,53,20,1,0.8,0.3,Time
,,653663,001,female,19,2025-06-02_16h24.30.965,Serial_Dependence_U,2023.2.3,Win32,59.523809523799216,,,,,,793.4893000000119,294,1,793.4895,294,,,,797.231,797.7348000000119,796.7282000000179,797.2309000000059,794.484900000006,796.7281000000238,797.734900000006,798.2347000000178,798.2348000000119,800.8859000000059,106,800.886,1,800.8863000000119,1,24,54,27,1,1.2,0.7,Time
,,653663,001,female,19,2025-06-02_16h24.30.965,Serial_Dependence_U,2023.2.3,Win32,59.523809523799216,,,,,,800.886900000006,135,1,800.8871000000238,135,,,,804.8437000000179,805.3363000000119,804.3274000000059,804.843400000006,801.8955,804.3274000000059,805.3364000000059,805.8362000000179,805.8363000000119,811.6985,249,811.6987000000179,1,811.698900000006,1,25,55,28,1,1.4,0.7,Time
,,653663,001,female,19,2025-06-02_16h24.30.965,Serial_Dependence_U,2023.2.3,Win32,59.523809523799216,,,,,,811.699400000006,148,1,811.6996000000238,148,,,,815.684300000012,816.1723000000119,815.1647000000179,815.6842000000179,812.6924000000059,815.1646000000238,816.172400000006,816.6727000000179,816.6728000000119,819.5199000000059,2790,819.52,5,819.5204000000059,1,26,56,3,1,1.4,0.3,Time
,,653663,001,female,19,2025-06-02_16h24.30.965,Serial_Dependence_U,2023.2.3,Win32,59.523809523799216,,,,,,819.5211000000238,126,1,819.5213000000119,126,,,,823.1014000000059,823.590900000006,822.593,823.1012000000179,820.5293000000119,822.5929000000059,823.590900000006,824.0916000000238,824.0917000000179,828.8714000000059,4468,828.8715,5,828.872,1,27,57,11,1,1,0.3,Time
,,653663,001,female,19,2025-06-02_16h24.30.965,Serial_Dependence_U,2023.2.3,Win32,59.523809523799216,,,,,,828.872400000006,299,1,828.8725,299,,,,832.644,833.1442000000179,832.138,832.6439000000059,829.9038000000119,832.137900000006,833.1443000000119,833.6435,833.6436000000239,837.3783000000119,3501,837.378400000006,5,837.3787000000178,1,28,58,17,1,1.2,0.7,Time
,,653663,001,female,19,2025-06-02_16h24.30.965,Serial_Dependence_U,2023.2.3,Win32,59.523809523799216,,,,,,837.3791000000239,116,1,837.3793000000119,116,,,,841.574400000006,842.0629000000059,841.0557000000179,841.5742000000179,838.383400000006,841.0556000000238,842.0629000000059,842.5624000000059,842.5625,847.5258000000119,4335,847.525900000006,5,847.5262000000179,1,29,59,14,1,1.6,0.3,Time
,,653663,001,female,19,2025-06-02_16h24.30.965,Serial_Dependence_U,2023.2.3,Win32,59.523809523799216,,,,,,847.5267000000179,282,2,858.6343000000119,282,s,11.087799999982167,,862.391,862.8844000000059,861.871900000006,862.3909000000059,859.6401000000238,861.871800000012,862.8844000000059,863.3848000000119,863.3848000000119,867.713,3933,867.7131000000238,5,867.7133000000119,2,0,60,27,1,1.2,0.7,Time
,,653663,001,female,19,2025-06-02_16h24.30.965,Serial_Dependence_U,2023.2.3,Win32,59.523809523799216,,,,,,867.7137000000179,207,2,867.7152000000178,207,,,,871.504400000006,872.003900000006,870.991,871.504400000006,868.7258000000119,870.9909000000059,872.004,872.503900000006,872.5041000000239,876.564400000006,3766,876.5645,5,876.5647000000179,2,1,61,2,1,1.2,0.3,Time
,,653663,001,female,19,2025-06-02_16h24.30.965,Serial_Dependence_U,2023.2.3,Win32,59.523809523799216,,,,,,876.5651000000238,116,2,876.5653000000119,116,,,,880.351,880.8395,879.8395,880.3508000000119,877.5722000000179,879.839400000006,880.8396000000238,881.339400000006,881.339400000006,884.175400000006,2796,884.1754999999999,5,884.1756000000238,2,2,62,22,1,1.2,0.3,Time
,,653663,001,female,19,2025-06-02_16h24.30.965,Serial_Dependence_U,2023.2.3,Win32,59.523809523799216,,,,,,884.175900000006,287,2,884.176,287,,,,887.7586000000239,888.258,887.246300000012,887.7585,885.184900000006,887.2462000000179,888.258,888.757900000006,888.7581000000239,893.5548000000119,4370,893.554900000006,5,893.555400000006,2,3,63,1,1,1,0.3,Time
,,653663,001,female,19,2025-06-02_16h24.30.965,Serial_Dependence_U,2023.2.3,Win32,59.523809523799216,,,,,,893.555900000006,246,2,893.5561000000239,246,,,,896.8965,897.3935,896.3943000000119,896.8963000000119,894.5606000000238,896.3941000000239,897.3935,897.8941000000239,897.8942000000179,902.751,4396,902.7511000000238,5,902.7514000000059,2,4,64,25,1,0.8,0.7,Time
,,653663,001,female,19,2025-06-02_16h24.30.965,Serial_Dependence_U,2023.2.3,Win32,59.523809523799216,,,,,,902.7518000000119,142,2,902.752,142,,,,906.929900000006,907.4294000000059,906.4246000000238,906.9298000000119,903.7459000000059,906.4245,907.4295,907.9298000000119,907.929900000006,912.454400000006,4463,912.4544999999999,5,912.455,2,5,65,14,1,1.6,0.3,Time
,,653663,001,female,19,2025-06-02_16h24.30.965,Serial_Dependence_U,2023.2.3,Win32,59.523809523799216,,,,,,912.4557000000178,34,2,912.455900000006,34,,,,916.4265,916.9157000000179,915.910300000012,916.4265,913.472,915.9101000000238,916.9158000000119,917.4155,917.4156000000238,921.0113000000119,3545,921.011400000006,5,921.0116000000238,2,6,66,18,1,1.4,0.7,Time
,,653663,001,female,19,2025-06-02_16h24.30.965,Serial_Dependence_U,2023.2.3,Win32,59.523809523799216,,,,,,921.0121000000238,283,2,921.0123000000119,283,,,,925.1865,925.684300000012,924.6852000000179,925.186400000006,922.012,924.6851000000238,925.684300000012,926.1848000000119,926.184900000006,929.8973000000119,3485,929.897400000006,5,929.8977000000178,2,7,67,4,1,1.6,0.3,Time
,,653663,001,female,19,2025-06-02_16h24.30.965,Serial_Dependence_U,2023.2.3,Win32,59.523809523799216,,,,,,929.8982000000178,35,2,929.8983000000119,35,,,,933.4712000000179,933.969900000006,932.9638000000119,933.4711000000239,930.9144000000059,932.9636000000238,933.97,934.469900000006,934.47,938.715900000006,3806,938.716,5,938.7162000000179,2,8,68,26,1,1,0.7,Time
,,653663,001,female,19,2025-06-02_16h24.30.965,Serial_Dependence_U,2023.2.3,Win32,59.523809523799216,,,,,,938.7164000000059,142,2,938.7166000000238,142,,,,942.1161000000238,942.6053000000119,941.6002000000178,942.1159000000059,939.7135,941.6,942.6053000000119,943.1053000000119,943.1053000000119,946.1735,2719,946.1736000000238,5,946.174,2,9,69,0,1,0.8,0.3,Time
,,653663,001,female,19,2025-06-02_16h24.30.965,Serial_Dependence_U,2023.2.3,Win32,59.523809523799216,,,,,,946.1744000000059,336,2,946.1747000000179,336,,,,949.5913000000119,950.0907000000178,949.0808000000119,949.5912000000179,947.2002000000178,949.0806000000239,950.0908000000119,950.591,950.591,952.0513000000119,1330,952.051400000006,5,952.0517000000178,2,10,70,10,1,0.8,0.3,Time
,,653663,001,female,19,2025-06-02_16h24.30.965,Serial_Dependence_U,2023.2.3,Win32,59.523809523799216,,,,,,952.0522000000178,70,2,952.0523000000119,70,,,,956.1929000000059,956.6927000000179,955.6825,956.1928000000119,953.0436000000238,955.6824000000059,956.6928000000119,957.1929000000059,957.193,960.1899999999999,2835,960.1901000000238,5,960.1906000000238,2,11,71,29,1,1.6,0.7,Time
,,653663,001,female,19,2025-06-02_16h24.30.965,Serial_Dependence_U,2023.2.3,Win32,59.523809523799216,,,,,,960.1911000000239,58,2,960.1913000000119,58,,,,964.1811000000239,964.6777000000179,963.673,964.180900000006,961.1988000000119,963.6729000000059,964.6777000000179,965.1786000000238,965.1787000000179,966.1213000000118,315,966.1214000000059,1,966.1217000000179,2,12,72,3,1,1.4,0.3,Time
,,653663,001,female,19,2025-06-02_16h24.30.965,Serial_Dependence_U,2023.2.3,Win32,59.523809523799216,,,,,,966.122200000018,181,2,966.1224000000059,181,,,,970.0966000000237,970.5959000000059,969.5914000000059,970.0965000000001,967.1225,969.5913000000119,970.5959000000059,971.0961000000239,971.0962000000179,972.6922000000179,812,972.692300000012,1,972.6928000000119,2,13,73,13,1,1.4,0.3,Time
,,653663,001,female,19,2025-06-02_16h24.30.965,Serial_Dependence_U,2023.2.3,Win32,59.523809523799216,,,,,,972.6931000000238,113,2,972.693300000012,113,,,,976.497900000006,976.9975,975.9866000000238,976.4978000000119,973.713700000018,975.9866000000238,976.9976000000238,977.4976000000238,977.4977000000179,977.998200000018,228,977.998300000012,1,977.9987000000178,2,14,74,12,1,1.2,0.3,Time
,,653663,001,female,19,2025-06-02_16h24.30.965,Serial_Dependence_U,2023.2.3,Win32,59.523809523799216,,,,,,977.9991000000239,199,2,977.999300000012,199,,,,982.1593000000119,982.6492000000178,981.642900000006,982.1592000000178,979.0046000000239,981.6426000000238,982.6492000000178,983.1491000000236,983.1491000000236,983.6288000000119,56,983.6288000000119,1,983.6291000000236,2,15,75,9,1,1.6,0.7,Time
,,653663,001,female,19,2025-06-02_16h24.30.965,Serial_Dependence_U,2023.2.3,Win32,59.523809523799216,,,,,,983.6297000000178,225,2,983.6299000000059,225,,,,987.0197000000177,987.5171000000238,986.5174999999998,987.0196000000236,984.65,986.5174000000058,987.5171000000238,988.0071000000238,988.0071000000238,989.1681000000236,534,989.1682000000177,1,989.1684999999999,2,16,76,20,1,0.8,0.3,Time
,,653663,001,female,19,2025-06-02_16h24.30.965,Serial_Dependence_U,2023.2.3,Win32,59.523809523799216,,,,,,989.1689000000059,49,2,989.169,49,,,,992.9196000000237,993.4184999999999,992.4064000000059,992.9194000000058,990.1684000000058,992.4064000000059,993.4184999999999,993.9194000000058,993.9194000000058,996.7259999999998,52,996.7261000000236,1,996.7264000000058,2,17,77,17,1,1.2,0.7,Time
,,653663,001,female,19,2025-06-02_16h24.30.965,Serial_Dependence_U,2023.2.3,Win32,59.523809523799216,,,,,,996.7268000000118,346,2,996.727,346,,,,1000.2812000000177,1000.7707000000177,999.7793000000119,1000.2811000000237,997.7368000000118,999.7789999999999,1000.7708000000117,1001.2706000000238,1001.2707000000177,1003.9164000000059,381,1003.9164999999999,1,1003.9169000000057,2,18,78,16,1,1,0.7,Time
,,653663,001,female,19,2025-06-02_16h24.30.965,Serial_Dependence_U,2023.2.3,Win32,59.523809523799216,,,,,,1003.9177000000178,192,2,1003.9178000000119,192,,,,1007.2779999999999,1007.7728000000119,1006.7561000000238,1007.2779999999999,1004.9229000000058,1006.756,1007.7728000000119,1008.2727000000178,1008.2728000000119,1012.8514999999999,206,1012.8516000000237,1,1012.8518000000118,2,19,79,5,1,0.8,0.7,Time
,,653663,001,female,19,2025-06-02_16h24.30.965,Serial_Dependence_U,2023.2.3,Win32,59.523809523799216,,,,,,1012.8521000000238,16,2,1012.8523000000117,16,,,,1017.0258000000118,1017.5248000000119,1016.5134000000058,1017.0256000000237,1013.8456000000236,1016.5133000000118,1017.5248000000119,1018.0256000000237,1018.0257000000178,1022.4551000000237,3602,1022.4552000000177,5,1022.4557000000178,2,20,80,24,1,1.6,0.3,Time
,,653663,001,female,19,2025-06-02_16h24.30.965,Serial_Dependence_U,2023.2.3,Win32,59.523809523799216,,,,,,1022.4561000000236,46,2,1022.4563000000118,46,,,,1025.828600000024,1026.3275,1025.323800000012,1025.8285,1023.487,1025.3236000000238,1026.3275,1026.827900000006,1026.828,1031.390400000006,3949,1031.3906000000238,5,1031.391100000024,2,21,81,15,1,0.8,0.7,Time
,,653663,001,female,19,2025-06-02_16h24.30.965,Serial_Dependence_U,2023.2.3,Win32,59.523809523799216,,,,,,1031.3915,44,2,1031.3916000000238,44,,,,1035.3682000000179,1035.8637000000178,1034.8572000000179,1035.3681000000238,1032.3958000000118,1034.8571000000238,1035.8637000000178,1036.364,1036.3641000000239,1038.749400000006,1942,1038.7495,5,1038.7498000000119,2,22,82,23,1,1.4,0.3,Time
,,653663,001,female,19,2025-06-02_16h24.30.965,Serial_Dependence_U,2023.2.3,Win32,59.523809523799216,,,,,,1038.750200000018,40,2,1038.750300000012,40,,,,1042.308200000018,1042.798400000006,1041.799300000012,1042.308,1039.7595,1041.799200000018,1042.798400000006,1043.298400000006,1043.2985,1048.6771000000238,3232,1048.6772000000178,5,1048.6776000000239,2,23,83,6,1,1,0.7,Time
,,653663,001,female,19,2025-06-02_16h24.30.965,Serial_Dependence_U,2023.2.3,Win32,59.523809523799216,,,,,,1048.6786000000238,157,2,1048.678800000012,157,,,,1052.8077000000178,1053.301300000012,1052.301400000006,1052.8076000000237,1049.6693000000118,1052.301300000012,1053.301300000012,1053.801,1053.801,1054.597,139,1054.5971000000238,1,1054.5975,2,24,84,19,1,1.6,0.7,Time
,,653663,001,female,19,2025-06-02_16h24.30.965,Serial_Dependence_U,2023.2.3,Win32,59.523809523799216,,,,,,1054.598,111,2,1054.5981000000238,111,,,,1058.204,1058.702400000006,1057.697400000006,1058.203900000006,1055.618800000012,1057.6972000000178,1058.702400000006,1059.2027000000178,1059.2028000000118,1059.894900000006,71,1059.895,1,1059.895300000012,2,25,85,21,1,1,0.3,Time
,,653663,001,female,19,2025-06-02_16h24.30.965,Serial_Dependence_U,2023.2.3,Win32,59.523809523799216,,,,,,1059.895600000024,311,2,1059.8957000000178,311,,,,1063.8323000000119,1064.320700000018,1063.325200000018,1063.8322000000178,1060.8868000000118,1063.325100000024,1064.320700000018,1064.821,1064.8211000000238,1066.8882000000178,122,1066.888300000012,1,1066.888700000018,2,26,86,8,1,1.4,0.7,Time
,,653663,001,female,19,2025-06-02_16h24.30.965,Serial_Dependence_U,2023.2.3,Win32,59.523809523799216,,,,,,1066.8892000000178,99,2,1066.8893000000119,99,,,,1070.6502000000178,1071.138900000006,1070.142,1070.65,1067.907900000006,1070.141900000006,1071.138900000006,1071.638800000012,1071.638800000012,1073.362900000006,611,1073.363,1,1073.3633000000118,2,27,87,7,1,1.2,0.7,Time
,,653663,001,female,19,2025-06-02_16h24.30.965,Serial_Dependence_U,2023.2.3,Win32,59.523809523799216,,,,,,1073.363800000012,39,2,1073.363900000006,39,,,,1076.957700000018,1077.4576000000238,1076.450900000006,1076.9576000000238,1074.3734000000059,1076.4507000000178,1077.457700000018,1077.9571000000237,1077.9572000000178,1078.986400000006,68,1078.9865,1,1078.986900000006,2,28,88,11,1,1,0.3,Time
,,653663,001,female,19,2025-06-02_16h24.30.965,Serial_Dependence_U,2023.2.3,Win32,59.523809523799216,,,,,,1078.9872000000178,202,2,1078.9873000000118,202,,,,1082.948900000006,1083.442300000012,1082.447700000018,1082.948900000006,1080.0135,1082.4476000000238,1083.442400000006,1083.9427000000178,1083.9428000000119,1085.070400000006,151,1085.0705,1,1085.0709000000058,2,29,89,28,1,1.4,0.7,Time
,,653663,001,female,19,2025-06-02_16h24.30.965,Serial_Dependence_U,2023.2.3,Win32,59.523809523799216,,,,,,1085.071400000006,244,3,2270.751400000006,244,s,1185.6635,,2274.7167000000177,2275.216900000006,2274.200200000018,2274.716600000024,2271.754900000006,2274.2001000000237,2275.217100000024,2275.724800000012,2275.724900000006,2277.979,1042,2277.9791000000237,2,2277.979400000006,3,0,90,8,1,1.4,0.7,Time
,,653663,001,female,19,2025-06-02_16h24.30.965,Serial_Dependence_U,2023.2.3,Win32,59.523809523799216,,,,,,2277.98,353,3,2277.981900000006,353,,,,2281.380200000018,2281.868300000012,2280.8622000000178,2281.380100000024,2278.9945,2280.862,2281.868300000012,2282.3763000000117,2282.376400000006,2283.026800000012,27,2283.026800000012,1,2283.0269000000058,3,1,91,10,1,0.8,0.3,Time
,,653663,001,female,19,2025-06-02_16h24.30.965,Serial_Dependence_U,2023.2.3,Win32,59.523809523799216,,,,,,2283.0272000000177,127,3,2283.027300000012,127,,,,2286.797600000024,2287.2865,2286.270400000006,2286.7975,2284.0261000000237,2286.270300000012,2287.2865,2287.786900000006,2287.787,2292.882900000006,2272,2292.882900000006,5,2292.883300000012,3,2,92,27,1,1.2,0.7,Time
,,653663,001,female,19,2025-06-02_16h24.30.965,Serial_Dependence_U,2023.2.3,Win32,59.523809523799216,,,,,,2292.883700000018,150,3,2292.883800000012,150,,,,2296.484300000012,2296.988700000018,2295.9661000000237,2296.484100000024,2293.888300000012,2295.965900000006,2296.988800000012,2297.489,2297.489,2299.619200000018,197,2299.619400000006,1,2299.6198000000118,3,3,93,11,1,1,0.3,Time
,,653663,001,female,19,2025-06-02_16h24.30.965,Serial_Dependence_U,2023.2.3,Win32,59.523809523799216,,,,,,2299.620200000018,311,3,2299.620400000006,311,,,,2302.968200000018,2303.457600000024,2302.460100000024,2302.968200000018,2300.6241000000236,2302.46,2303.4577000000177,2303.957900000006,2303.957900000006,2306.4526000000237,280,2306.452700000018,1,2306.453,3,4,94,15,1,0.8,0.7,Time
,,653663,001,female,19,2025-06-02_16h24.30.965,Serial_Dependence_U,2023.2.3,Win32,59.523809523799216,,,,,,2306.453600000024,12,3,2306.4537000000178,12,,,,2309.826600000024,2310.3255,2309.320800000012,2309.8265,2307.452800000012,2309.3205,2310.3256000000238,2310.826600000024,2310.826700000018,2313.605900000006,117,2313.605900000006,1,2313.6063000000117,3,5,95,20,1,0.8,0.3,Time
,,653663,001,female,19,2025-06-02_16h24.30.965,Serial_Dependence_U,2023.2.3,Win32,59.523809523799216,,,,,,2313.606800000012,287,3,2313.607100000024,287,,,,2317.4391000000237,2317.928,2316.911800000012,2317.439,2314.6381000000238,2316.911700000018,2317.928,2318.428400000006,2318.428400000006,2320.862700000018,565,2320.862700000018,1,2320.8631000000237,3,6,96,22,1,1.2,0.3,Time
,,653663,001,female,19,2025-06-02_16h24.30.965,Serial_Dependence_U,2023.2.3,Win32,59.523809523799216,,,,,,2320.863400000006,202,3,2320.863600000024,202,,,,2324.447200000018,2324.9461000000238,2323.938900000006,2324.447100000024,2321.888900000006,2323.938700000018,2324.9461000000238,2325.4467000000177,2325.4467000000177,2326.563400000006,539,2326.5635,1,2326.5638000000117,3,7,97,6,1,1,0.7,Time
,,653663,001,female,19,2025-06-02_16h24.30.965,Serial_Dependence_U,2023.2.3,Win32,59.523809523799216,,,,,,2326.564300000012,84,3,2326.5645,84,,,,2330.5317000000177,2331.030900000006,2330.0261000000237,2330.531600000024,2327.5641000000237,2330.026,2331.030900000006,2331.5317000000177,2331.5317000000177,2333.193900000006,930,2333.194100000024,1,2333.194600000024,3,8,98,23,1,1.4,0.3,Time
,,653663,001,female,19,2025-06-02_16h24.30.965,Serial_Dependence_U,2023.2.3,Win32,59.523809523799216,,,,,,2333.195,133,3,2333.195100000024,133,,,,2337.391700000018,2337.882600000024,2336.876,2337.391600000024,2334.210600000024,2336.875900000006,2337.882600000024,2338.382700000018,2338.382700000018,2338.723,182,2338.723100000024,1,2338.7234000000058,3,9,99,14,1,1.6,0.3,Time
,,653663,001,female,19,2025-06-02_16h24.30.965,Serial_Dependence_U,2023.2.3,Win32,59.523809523799216,,,,,,2338.7237000000177,18,3,2338.723900000006,18,,,,2342.284700000018,2342.7845,2341.776800000012,2342.284600000024,2339.733900000006,2341.776800000012,2342.7845,2343.284100000024,2343.284200000018,2345.045100000024,262,2345.0452000000178,1,2345.0455,3,10,100,16,1,1,0.7,Time
,,653663,001,female,19,2025-06-02_16h24.30.965,Serial_Dependence_U,2023.2.3,Win32,59.523809523799216,,,,,,2345.0458000000117,271,3,2345.045900000006,271,,,,2349.003,2349.502300000012,2348.486600000024,2349.003,2346.0465,2348.486400000006,2349.502300000012,2350.003100000024,2350.003200000018,2351.0447000000177,241,2351.044800000012,1,2351.044900000006,3,11,101,28,1,1.4,0.7,Time
,,653663,001,female,19,2025-06-02_16h24.30.965,Serial_Dependence_U,2023.2.3,Win32,59.523809523799216,,,,,,2351.0452000000178,43,3,2351.0452000000178,43,,,,2354.792,2355.2871000000237,2354.281900000006,2354.791900000006,2352.037700000018,2354.281800000012,2355.2871000000237,2355.788,2355.788,2359.027700000018,780,2359.027700000018,1,2359.0281000000236,3,12,102,7,1,1.2,0.7,Time
,,653663,001,female,19,2025-06-02_16h24.30.965,Serial_Dependence_U,2023.2.3,Win32,59.523809523799216,,,,,,2359.028700000018,238,3,2359.028900000006,238,,,,2363.240200000018,2363.739400000006,2362.734,2363.2401000000236,2360.047400000006,2362.734,2363.739400000006,2364.240400000006,2364.240400000006,2366.052300000012,184,2366.052400000006,1,2366.0528000000118,3,13,103,24,1,1.6,0.3,Time
,,653663,001,female,19,2025-06-02_16h24.30.965,Serial_Dependence_U,2023.2.3,Win32,59.523809523799216,,,,,,2366.053300000012,263,3,2366.053400000006,263,,,,2369.42,2369.907700000018,2368.900300000012,2369.419900000006,2367.0672000000177,2368.900200000018,2369.907700000018,2370.408,2370.408,2372.504200000018,79,2372.504300000012,1,2372.504900000006,3,14,104,5,1,0.8,0.7,Time
,,653663,001,female,19,2025-06-02_16h24.30.965,Serial_Dependence_U,2023.2.3,Win32,59.523809523799216,,,,,,2372.505600000024,30,3,2372.5058000000117,30,,,,2375.853400000006,2376.3428000000117,2375.346400000006,2375.853300000012,2373.509800000012,2375.346300000012,2376.3428000000117,2376.8431000000237,2376.843200000018,2379.073200000018,115,2379.073200000018,1,2379.0737000000177,3,15,105,25,1,0.8,0.7,Time
,,653663,001,female,19,2025-06-02_16h24.30.965,Serial_Dependence_U,2023.2.3,Win32,59.523809523799216,,,,,,2379.0742000000178,179,3,2379.074400000006,179,,,,2383.253,2383.7448000000118,2382.733,2383.252900000006,2380.071200000018,2382.732900000006,2383.744900000006,2384.2451000000237,2384.2451000000237,2390.391,5318,2390.391100000024,5,2390.3915,3,16,106,4,1,1.6,0.3,Time
,,653663,001,female,19,2025-06-02_16h24.30.965,Serial_Dependence_U,2023.2.3,Win32,59.523809523799216,,,,,,2390.391900000006,113,3,2390.3921000000237,113,,,,2393.975,2394.465,2393.467,2393.975,2391.397100000024,2393.467,2394.465100000024,2394.956900000006,2394.957,2395.925400000006,183,2395.9255,1,2395.925800000012,3,17,107,1,1,1,0.3,Time
,,653663,001,female,19,2025-06-02_16h24.30.965,Serial_Dependence_U,2023.2.3,Win32,59.523809523799216,,,,,,2395.926200000018,273,3,2395.926300000012,273,,,,2399.9098000000117,2400.3991000000237,2399.3856000000237,2399.909600000024,2396.916200000018,2399.385400000006,2400.399200000018,2400.8876000000237,2400.8876000000237,2402.892600000024,83,2402.892700000018,1,2402.893100000024,3,18,108,3,1,1.4,0.3,Time
,,653663,001,female,19,2025-06-02_16h24.30.965,Serial_Dependence_U,2023.2.3,Win32,59.523809523799216,,,,,,2402.893400000006,262,3,2402.893700000018,262,,,,2406.835300000012,2407.334700000018,2406.329,2406.835100000024,2403.884400000006,2406.328900000006,2407.334800000012,2407.834300000012,2407.834300000012,2411.192600000024,2529,2411.192700000018,5,2411.192900000006,3,19,109,18,1,1.4,0.7,Time
,,653663,001,female,19,2025-06-02_16h24.30.965,Serial_Dependence_U,2023.2.3,Win32,59.523809523799216,,,,,,2411.193200000018,200,3,2411.193400000006,200,,,,2415.346800000012,2415.837,2414.843,2415.346600000024,2412.211700000018,2414.8428000000117,2415.837,2416.3366000000237,2416.3366000000237,2420.8335,3891,2420.833600000024,5,2420.833900000006,3,20,110,29,1,1.6,0.7,Time
,,653663,001,female,19,2025-06-02_16h24.30.965,Serial_Dependence_U,2023.2.3,Win32,59.523809523799216,,,,,,2420.834300000012,156,3,2420.834400000006,156,,,,2425.0013000000117,2425.5055,2424.475600000024,2425.001100000024,2421.842700000018,2424.475400000006,2425.505600000024,2426.0058000000117,2426.005900000006,2430.2855,3735,2430.285600000024,5,2430.286,3,21,111,19,1,1.6,0.7,Time
,,653663,001,female,19,2025-06-02_16h24.30.965,Serial_Dependence_U,2023.2.3,Win32,59.523809523799216,,,,,,2430.286400000006,214,3,2430.286600000024,214,,,,2434.275,2434.774900000006,2433.7691000000236,2434.275,2431.3014000000057,2433.769,2434.774900000006,2435.275100000024,2435.275200000018,2440.6888000000117,4804,2440.688900000006,5,2440.689300000012,3,22,112,13,1,1.4,0.3,Time
,,653663,001,female,19,2025-06-02_16h24.30.965,Serial_Dependence_U,2023.2.3,Win32,59.523809523799216,,,,,,2440.689700000018,48,3,2440.689800000012,48,,,,2444.2715,2444.7603000000117,2443.7651000000237,2444.271400000006,2441.695,2443.765,2444.760400000006,2445.2612000000177,2445.261300000012,2450.5575,4719,2450.5576000000237,5,2450.557900000006,3,23,113,21,1,1,0.3,Time
,,653663,001,female,19,2025-06-02_16h24.30.965,Serial_Dependence_U,2023.2.3,Win32,59.523809523799216,,,,,,2450.558300000012,180,3,2450.558400000006,180,,,,2454.347200000018,2454.846400000006,2453.840700000018,2454.347100000024,2451.573400000006,2453.8405,2454.8465,2455.347100000024,2455.347200000018,2459.794200000018,4346,2459.794300000012,5,2459.794900000006,3,24,114,12,1,1.2,0.3,Time
,,653663,001,female,19,2025-06-02_16h24.30.965,Serial_Dependence_U,2023.2.3,Win32,59.523809523799216,,,,,,2459.795300000012,214,3,2459.7955,214,,,,2463.1832000000177,2463.682,2462.677100000024,2463.183100000024,2460.8005,2462.676900000006,2463.682,2464.1826000000237,2464.182800000012,2467.084700000018,2722,2467.084800000012,5,2467.0852000000177,3,25,115,0,1,0.8,0.3,Time
,,653663,001,female,19,2025-06-02_16h24.30.965,Serial_Dependence_U,2023.2.3,Win32,59.523809523799216,,,,,,2467.085700000018,270,3,2467.085800000012,270,,,,2470.884900000006,2471.384900000006,2470.370200000018,2470.884700000018,2468.1005,2470.3701000000237,2471.385,2471.884100000024,2471.884100000024,2476.746600000024,4307,2476.746700000018,5,2476.746900000006,3,26,116,2,1,1.2,0.3,Time
,,653663,001,female,19,2025-06-02_16h24.30.965,Serial_Dependence_U,2023.2.3,Win32,59.523809523799216,,,,,,2476.7471000000237,192,3,2476.747200000018,192,,,,2480.9135,2481.404,2480.387800000012,2480.9135,2477.748300000012,2480.387700000018,2481.404100000024,2481.9132000000177,2481.913300000012,2482.648900000006,243,2482.649,1,2482.649300000012,3,27,117,9,1,1.6,0.7,Time
,,653663,001,female,19,2025-06-02_16h24.30.965,Serial_Dependence_U,2023.2.3,Win32,59.523809523799216,,,,,,2482.65,248,3,2482.650200000018,248,,,,2486.422400000006,2486.921400000006,2485.916100000024,2486.422300000012,2483.682900000006,2485.915900000006,2486.921400000006,2487.421700000018,2487.421700000018,2492.536,4582,2492.536100000024,5,2492.536400000006,3,28,118,17,1,1.2,0.7,Time
,,653663,001,female,19,2025-06-02_16h24.30.965,Serial_Dependence_U,2023.2.3,Win32,59.523809523799216,,,,,,2492.536900000006,285,3,2492.537200000018,285,,,,2496.107900000006,2496.608200000018,2495.600900000006,2496.107800000012,2493.552100000024,2495.600800000012,2496.6083000000117,2497.097800000012,2497.097900000006,2501.668300000012,4017,2501.668300000012,5,2501.6686000000236,3,29,119,26,1,1,0.7,Time
,,653663,001,female,19,2025-06-02_16h24.30.965,Serial_Dependence_U,2023.2.3,Win32,59.523809523799216,,,,,,2501.6691000000237,200,4,3045.536600000024,200,s,543.8492000000178,,3049.1355,3049.635200000018,3048.627900000006,3049.135400000006,3046.553400000006,3048.627900000006,3049.6353000000117,3050.134800000012,3050.134800000012,3052.163700000018,1717,3052.163800000012,5,3052.1643000000117,4,0,120,1,1,1,0.3,Time
,,653663,001,female,19,2025-06-02_16h24.30.965,Serial_Dependence_U,2023.2.3,Win32,59.523809523799216,,,,,,3052.164900000006,295,4,3052.167200000018,295,,,,3055.726,3056.220400000006,3055.2085,3055.725900000006,3053.175,3055.208400000006,3056.220400000006,3056.7205,3056.7206000000238,3057.6663000000117,219,3057.6665,1,3057.666700000018,4,1,121,16,1,1,0.7,Time
,,653663,001,female,19,2025-06-02_16h24.30.965,Serial_Dependence_U,2023.2.3,Win32,59.523809523799216,,,,,,3057.667200000018,53,4,3057.667300000012,53,,,,3061.680600000024,3062.1719000000057,3061.1652000000176,3061.6805,3058.692,3061.164800000012,3062.172,3062.671800000012,3062.6719000000057,3066.373100000024,2945,3066.3732000000177,5,3066.373600000024,4,2,122,23,1,1.4,0.3,Time
,,653663,001,female,19,2025-06-02_16h24.30.965,Serial_Dependence_U,2023.2.3,Win32,59.523809523799216,,,,,,3066.374200000018,230,4,3066.374400000006,230,,,,3069.7527000000177,3070.256700000018,3069.242,3069.752600000024,3067.373900000006,3069.242,3070.256700000018,3070.757400000006,3070.7575,3073.100600000024,1800,3073.1007000000177,5,3073.101,4,3,123,10,1,0.8,0.3,Time
,,653663,001,female,19,2025-06-02_16h24.30.965,Serial_Dependence_U,2023.2.3,Win32,59.523809523799216,,,,,,3073.101400000006,32,4,3073.1016000000236,32,,,,3077.044200000018,3077.5335,3076.542600000024,3077.044,3074.1016000000236,3076.5425,3077.5335,3078.026200000018,3078.026300000012,3078.337100000024,205,3078.337300000012,1,3078.337800000012,4,4,124,18,1,1.4,0.7,Time
,,653663,001,female,19,2025-06-02_16h24.30.965,Serial_Dependence_U,2023.2.3,Win32,59.523809523799216,,,,,,3078.338400000006,68,4,3078.338700000018,68,,,,3081.743300000012,3082.2437000000177,3081.2385,3081.743200000018,3079.353600000024,3081.2381000000237,3082.2437000000177,3082.751900000006,3082.751900000006,3088.655,3639,3088.655,5,3088.6553000000117,4,5,125,0,1,0.8,0.3,Time
,,653663,001,female,19,2025-06-02_16h24.30.965,Serial_Dependence_U,2023.2.3,Win32,59.523809523799216,,,,,,3088.6555,179,4,3088.655700000018,179,,,,3092.606400000006,3093.096100000024,3092.089600000024,3092.606200000018,3089.6465,3092.0895,3093.096300000012,3093.5962000000177,3093.5962000000177,3094.985,619,3094.985,1,3094.985400000006,4,6,126,28,1,1.4,0.7,Time
,,653663,001,female,19,2025-06-02_16h24.30.965,Serial_Dependence_U,2023.2.3,Win32,59.523809523799216,,,,,,3094.9858000000117,166,4,3094.985900000006,166,,,,3098.5655,3099.064200000018,3098.053900000006,3098.565300000012,3095.9845,3098.053900000006,3099.064300000012,3099.564800000012,3099.564800000012,3104.6446000000237,3607,3104.644800000012,5,3104.6452000000177,4,7,127,21,1,1,0.3,Time
,,653663,001,female,19,2025-06-02_16h24.30.965,Serial_Dependence_U,2023.2.3,Win32,59.523809523799216,,,,,,3104.645600000024,184,4,3104.6457000000178,184,,,,3108.644900000006,3109.1336000000238,3108.127900000006,3108.6446000000237,3105.652600000024,3108.127800000012,3109.133700000018,3109.634,3109.634100000024,3110.5515,392,3110.5515,1,3110.551800000012,4,8,128,13,1,1.4,0.3,Time
,,653663,001,female,19,2025-06-02_16h24.30.965,Serial_Dependence_U,2023.2.3,Win32,59.523809523799216,,,,,,3110.552200000018,163,4,3110.552300000012,163,,,,3114.702700000018,3115.201900000006,3114.196200000018,3114.7026000000237,3111.554400000006,3114.196,3115.2019999999998,3115.7026000000237,3115.7026000000237,3117.398,441,3117.398,1,3117.398300000012,4,9,129,29,1,1.6,0.7,Time
,,653663,001,female,19,2025-06-02_16h24.30.965,Serial_Dependence_U,2023.2.3,Win32,59.523809523799216,,,,,,3117.398700000018,255,4,3117.398900000006,255,,,,3121.162700000018,3121.6545,3120.6475,3121.1626000000238,3118.404,3120.6474000000057,3121.6545,3122.1536000000237,3122.153700000018,3125.299900000006,267,3125.3,1,3125.300400000006,4,10,130,7,1,1.2,0.7,Time
,,653663,001,female,19,2025-06-02_16h24.30.965,Serial_Dependence_U,2023.2.3,Win32,59.523809523799216,,,,,,3125.300700000018,231,4,3125.300900000006,231,,,,3129.033300000012,3129.5225,3128.5292000000177,3129.033200000018,3126.294,3128.529100000024,3129.5225,3130.014200000018,3130.014300000012,3133.9345,239,3133.9346000000237,1,3133.935,4,11,131,17,1,1.2,0.7,Time
,,653663,001,female,19,2025-06-02_16h24.30.965,Serial_Dependence_U,2023.2.3,Win32,59.523809523799216,,,,,,3133.9355,131,4,3133.935900000006,131,,,,3138.1187000000177,3138.6085,3137.596400000006,3138.118600000024,3134.9292000000178,3137.596300000012,3138.6085,3139.108100000024,3139.108200000018,3143.038900000006,3435,3143.0391000000236,5,3143.039400000006,4,12,132,14,1,1.6,0.3,Time
,,653663,001,female,19,2025-06-02_16h24.30.965,Serial_Dependence_U,2023.2.3,Win32,59.523809523799216,,,,,,3143.039800000012,101,4,3143.039900000006,101,,,,3146.786800000012,3147.277400000006,3146.281900000006,3146.786800000012,3144.0497000000178,3146.2817000000177,3147.277400000006,3147.777800000012,3147.777900000006,3151.4236000000237,3120,3151.423800000012,5,3151.424,4,13,133,27,1,1.2,0.7,Time
,,653663,001,female,19,2025-06-02_16h24.30.965,Serial_Dependence_U,2023.2.3,Win32,59.523809523799216,,,,,,3151.424600000024,105,4,3151.4247000000178,105,,,,3155.4065,3155.896,3154.901400000006,3155.4065,3152.455600000024,3154.901400000006,3155.896,3156.396,3156.396,3158.591800000012,1861,3158.591800000012,5,3158.592300000012,4,14,134,8,1,1.4,0.7,Time
,,653663,001,female,19,2025-06-02_16h24.30.965,Serial_Dependence_U,2023.2.3,Win32,59.523809523799216,,,,,,3158.5928000000117,319,4,3158.592900000006,319,,,,3162.581700000018,3163.081400000006,3162.075700000018,3162.5815,3159.607600000024,3162.0755,3163.081400000006,3163.581700000018,3163.5818000000118,3167.427700000018,3666,3167.4278000000118,5,3167.428200000018,4,15,135,3,1,1.4,0.3,Time
,,653663,001,female,19,2025-06-02_16h24.30.965,Serial_Dependence_U,2023.2.3,Win32,59.523809523799216,,,,,,3167.4287000000177,310,4,3167.428800000012,310,,,,3171.0115,3171.499700000018,3170.5,3171.011400000006,3168.46,3170.499900000006,3171.499700000018,3171.989700000018,3171.989800000012,3176.2975,4114,3176.297700000018,5,3176.2981000000236,4,16,136,6,1,1,0.7,Time
,,653663,001,female,19,2025-06-02_16h24.30.965,Serial_Dependence_U,2023.2.3,Win32,59.523809523799216,,,,,,3176.298700000018,93,4,3176.298900000006,93,,,,3179.6947000000177,3180.1854000000058,3179.178800000012,3179.6945,3177.323200000018,3179.1787000000177,3180.1855,3180.685800000012,3180.685900000006,3183.297100000024,2333,3183.297300000012,5,3183.297600000024,4,17,137,25,1,0.8,0.7,Time
,,653663,001,female,19,2025-06-02_16h24.30.965,Serial_Dependence_U,2023.2.3,Win32,59.523809523799216,,,,,,3183.2981000000236,211,4,3183.2983000000117,211,,,,3187.487600000024,3187.9875,3186.9816000000237,3187.487600000024,3184.3121000000237,3186.981400000006,3187.9875,3188.4875,3188.4875,3189.815800000012,207,3189.815900000006,1,3189.816300000012,4,18,138,24,1,1.6,0.3,Time
,,653663,001,female,19,2025-06-02_16h24.30.965,Serial_Dependence_U,2023.2.3,Win32,59.523809523799216,,,,,,3189.816700000018,1,4,3189.816800000012,1,,,,3193.957200000018,3194.4557000000177,3193.4501000000237,3193.9571000000237,3190.817100000024,3193.4498000000117,3194.455800000012,3194.9566000000236,3194.9566000000236,3197.693700000018,494,3197.693800000012,1,3197.694,4,19,139,19,1,1.6,0.7,Time
,,653663,001,female,19,2025-06-02_16h24.30.965,Serial_Dependence_U,2023.2.3,Win32,59.523809523799216,,,,,,3197.6944000000058,38,4,3197.694600000024,38,,,,3201.042200000018,3201.541,3200.530400000006,3201.042,3198.694800000012,3200.5303000000117,3201.541100000024,3202.0485,3202.0486000000237,3207.2882000000177,3077,3207.288300000012,5,3207.288700000018,4,20,140,15,1,0.8,0.7,Time
,,653663,001,female,19,2025-06-02_16h24.30.965,Serial_Dependence_U,2023.2.3,Win32,59.523809523799216,,,,,,3207.2893000000117,45,4,3207.2895,45,,,,3211.088700000018,3211.5773000000117,3210.5711000000238,3211.0885,3208.305,3210.571,3211.5773000000117,3212.0771000000236,3212.0771000000236,3214.1055,1271,3214.105600000024,4,3214.105900000006,4,21,141,2,1,1.2,0.3,Time
,,653663,001,female,19,2025-06-02_16h24.30.965,Serial_Dependence_U,2023.2.3,Win32,59.523809523799216,,,,,,3214.1063000000117,267,4,3214.1065,267,,,,3217.6792000000178,3218.179,3217.1632000000177,3217.679100000024,3215.095400000006,3217.163,3218.179,3218.6792000000178,3218.6792000000178,3223.4755,4583,3223.4755,5,3223.475900000006,4,22,142,11,1,1,0.3,Time
,,653663,001,female,19,2025-06-02_16h24.30.965,Serial_Dependence_U,2023.2.3,Win32,59.523809523799216,,,,,,3223.476300000012,294,4,3223.4765,294,,,,3227.259700000018,3227.747700000018,3226.748700000018,3227.259600000024,3224.4809999999998,3226.748600000024,3227.747700000018,3228.2485,3228.248600000024,3228.893,67,3228.893,1,3228.893300000012,4,23,143,22,1,1.2,0.3,Time
,,653663,001,female,19,2025-06-02_16h24.30.965,Serial_Dependence_U,2023.2.3,Win32,59.523809523799216,,,,,,3228.893700000018,124,4,3228.893900000006,124,,,,3232.2755,3232.766,3231.7524000000058,3232.275100000024,3229.890200000018,3231.752300000012,3232.766,3233.266100000024,3233.266100000024,3233.736300000012,441,3233.736400000006,1,3233.7367000000177,4,24,144,20,1,0.8,0.3,Time
,,653663,001,female,19,2025-06-02_16h24.30.965,Serial_Dependence_U,2023.2.3,Win32,59.523809523799216,,,,,,3233.737100000024,109,4,3233.737300000012,109,,,,3237.901,3238.401,3237.395100000024,3237.900900000006,3234.734,3237.394800000012,3238.401,3238.901400000006,3238.901400000006,3241.6252000000177,528,3241.6252000000177,1,3241.6255,4,25,145,4,1,1.6,0.3,Time
,,653663,001,female,19,2025-06-02_16h24.30.965,Serial_Dependence_U,2023.2.3,Win32,59.523809523799216,,,,,,3241.626,130,4,3241.626100000024,130,,,,3245.1866000000236,3245.686,3244.6787000000177,3245.1865,3242.630300000012,3244.678600000024,3245.686100000024,3246.186900000006,3246.186900000006,3276.733200000018,2437,3276.7333000000117,5,3276.733700000018,4,26,146,26,1,1,0.7,Time
,,653663,001,female,19,2025-06-02_16h24.30.965,Serial_Dependence_U,2023.2.3,Win32,59.523809523799216,,,,,,3276.7344000000057,199,4,3276.734600000024,199,,,,3280.900300000012,3281.404700000018,3280.3894999999998,3280.900300000012,3277.756400000006,3280.389300000012,3281.404700000018,3281.896200000018,3281.8963000000117,3285.121200000018,3036,3285.121300000012,5,3285.121600000024,4,27,147,9,1,1.6,0.7,Time
,,653663,001,female,19,2025-06-02_16h24.30.965,Serial_Dependence_U,2023.2.3,Win32,59.523809523799216,,,,,,3285.121900000006,75,4,3285.1221000000237,75,,,,3288.9087000000177,3289.397800000012,3288.391300000012,3288.9085,3286.1142000000177,3288.3912000000178,3289.397800000012,3289.897300000012,3289.8974000000057,3293.8617000000177,3268,3293.8617000000177,5,3293.862100000024,4,28,148,12,1,1.2,0.3,Time
,,653663,001,female,19,2025-06-02_16h24.30.965,Serial_Dependence_U,2023.2.3,Win32,59.523809523799216,,,,,,3293.862400000006,179,4,3293.862600000024,179,,,,3297.217200000018,3297.7167000000177,3296.7111000000236,3297.217100000024,3294.866400000006,3296.710900000006,3297.716800000012,3298.216600000024,3298.2167000000177,3302.962,4101,3302.962100000024,5,3302.962400000006,4,29,149,5,1,0.8,0.7,Time
,,653663,001,female,19,2025-06-02_16h24.30.965,Serial_Dependence_U,2023.2.3,Win32,59.523809523799216,,,,,,3302.962800000012,283,5,3307.8696000000236,283,s,4.8852999999821805,,3311.856800000012,3312.353100000024,3311.346300000012,3311.8566000000237,3308.870900000006,3311.3462000000177,3312.353100000024,3312.8532000000178,3312.8532000000178,3317.666400000006,3717,3317.6666000000237,5,3317.666900000006,5,0,150,23,1,1.4,0.3,Time
,,653663,001,female,19,2025-06-02_16h24.30.965,Serial_Dependence_U,2023.2.3,Win32,59.523809523799216,,,,,,3317.6675,142,5,3317.668900000006,142,,,,3321.456100000024,3321.956300000012,3320.942300000012,3321.456,3318.677700000018,3320.9422000000177,3321.956300000012,3322.455800000012,3322.455900000006,3327.334600000024,4027,3327.334600000024,5,3327.3349000000057,5,1,151,2,1,1.2,0.3,Time
,,653663,001,female,19,2025-06-02_16h24.30.965,Serial_Dependence_U,2023.2.3,Win32,59.523809523799216,,,,,,3327.3352000000177,22,5,3327.335300000012,22,,,,3330.9298000000117,3331.424800000012,3330.4255,3330.929600000024,3328.3525,3330.425400000006,3331.424800000012,3331.924900000006,3331.924900000006,3336.353100000024,3533,3336.3532000000178,5,3336.353300000012,5,2,152,21,1,1,0.3,Time
,,653663,001,female,19,2025-06-02_16h24.30.965,Serial_Dependence_U,2023.2.3,Win32,59.523809523799216,,,,,,3336.353600000024,82,5,3336.353700000018,82,,,,3339.928200000018,3340.427100000024,3339.418100000024,3339.928200000018,3337.353700000018,3339.418,3340.427200000018,3340.927700000018,3340.927700000018,3345.7738000000118,3981,3345.774,5,3345.774400000006,5,3,153,11,1,1,0.3,Time
,,653663,001,female,19,2025-06-02_16h24.30.965,Serial_Dependence_U,2023.2.3,Win32,59.523809523799216,,,,,,3345.775,179,5,3345.775400000006,179,,,,3349.3653000000118,3349.863200000018,3348.856200000018,3349.365200000018,3346.779600000024,3348.8561000000236,3349.863200000018,3350.363,3350.363,3354.8318000000118,3587,3354.831900000006,5,3354.832300000012,5,4,154,1,1,1,0.3,Time
,,653663,001,female,19,2025-06-02_16h24.30.965,Serial_Dependence_U,2023.2.3,Win32,59.523809523799216,,,,,,3354.832900000006,242,5,3354.833100000024,242,,,,3358.182800000012,3358.682200000018,3357.676900000006,3358.1826000000237,3355.832800000012,3357.676800000012,3358.682200000018,3359.182700000018,3359.182800000012,3362.8287000000178,3003,3362.828800000012,5,3362.829200000018,5,5,155,25,1,0.8,0.7,Time
,,653663,001,female,19,2025-06-02_16h24.30.965,Serial_Dependence_U,2023.2.3,Win32,59.523809523799216,,,,,,3362.829700000018,341,5,3362.829900000006,341,,,,3366.395300000012,3366.884600000024,3365.884700000018,3366.395100000024,3363.844800000012,3365.884600000024,3366.884600000024,3367.384,3367.384100000024,3371.4815,3451,3371.481700000018,5,3371.482100000024,5,6,156,26,1,1,0.7,Time
,,653663,001,female,19,2025-06-02_16h24.30.965,Serial_Dependence_U,2023.2.3,Win32,59.523809523799216,,,,,,3371.482600000024,225,5,3371.482900000006,225,,,,3375.6625,3376.1531000000236,3375.1542000000177,3375.6625,3372.486600000024,3375.154100000024,3376.1531000000236,3376.653700000018,3376.653800000012,3382.5005,4771,3382.5005,5,3382.500800000012,5,7,157,14,1,1.6,0.3,Time
,,653663,001,female,19,2025-06-02_16h24.30.965,Serial_Dependence_U,2023.2.3,Win32,59.523809523799216,,,,,,3382.5013000000117,31,5,3382.501400000006,31,,,,3386.6665,3387.156800000012,3386.14,3386.6663000000117,3383.5055,3386.1398000000117,3387.156800000012,3387.656,3387.656100000024,3392.737700000018,4588,3392.7378000000117,5,3392.738200000018,5,8,158,29,1,1.6,0.7,Time
,,653663,001,female,19,2025-06-02_16h24.30.965,Serial_Dependence_U,2023.2.3,Win32,59.523809523799216,,,,,,3392.738800000012,228,5,3392.739,228,,,,3396.100900000006,3396.592400000006,3395.5804000000057,3396.1007000000177,3393.743200000018,3395.580100000024,3396.592400000006,3397.0925,3397.092600000024,3402.7403000000118,4340,3402.740400000006,5,3402.740700000018,5,9,159,5,1,0.8,0.7,Time
,,653663,001,female,19,2025-06-02_16h24.30.965,Serial_Dependence_U,2023.2.3,Win32,59.523809523799216,,,,,,3402.7412000000177,297,5,3402.741400000006,297,,,,3406.322700000018,3406.811700000018,3405.797100000024,3406.3226000000236,3403.760800000012,3405.797,3406.8118000000118,3407.311300000012,3407.311400000006,3412.2905,4344,3412.290600000024,5,3412.290800000012,5,10,160,16,1,1,0.7,Time
,,653663,001,female,19,2025-06-02_16h24.30.965,Serial_Dependence_U,2023.2.3,Win32,59.523809523799216,,,,,,3412.291,223,5,3412.291200000018,223,,,,3416.231700000018,3416.730300000012,3415.725600000024,3416.2316000000237,3413.284400000006,3415.725400000006,3416.730300000012,3417.2313000000117,3417.2315,3422.507100000024,4484,3422.507100000024,5,3422.5072000000177,5,11,161,18,1,1.4,0.7,Time
,,653663,001,female,19,2025-06-02_16h24.30.965,Serial_Dependence_U,2023.2.3,Win32,59.523809523799216,,,,,,3422.507400000006,87,5,3422.5075,87,,,,3426.261900000006,3426.7496000000237,3425.7451000000237,3426.2617000000178,3423.504600000024,3425.745,3426.7496000000237,3427.250400000006,3427.2505,3431.167600000024,3285,3431.167800000012,5,3431.168100000024,5,12,162,17,1,1.2,0.7,Time
,,653663,001,female,19,2025-06-02_16h24.30.965,Serial_Dependence_U,2023.2.3,Win32,59.523809523799216,,,,,,3431.1684999999998,277,5,3431.168700000018,277,,,,3435.129,3435.619300000012,3434.613600000024,3435.128900000006,3432.173400000006,3434.613400000006,3435.619300000012,3436.119200000018,3436.119200000018,3441.181700000018,4164,3441.181800000012,5,3441.182,5,13,163,8,1,1.4,0.7,Time
,,653663,001,female,19,2025-06-02_16h24.30.965,Serial_Dependence_U,2023.2.3,Win32,59.523809523799216,,,,,,3441.1823000000118,345,5,3441.182400000006,345,,,,3444.731400000006,3445.221600000024,3444.2271000000237,3444.7311000000236,3442.188100000024,3444.2271000000237,3445.221600000024,3445.7212000000177,3445.721300000012,3450.351200000018,4067,3450.351300000012,5,3450.351700000018,5,14,164,6,1,1,0.7,Time
,,653663,001,female,19,2025-06-02_16h24.30.965,Serial_Dependence_U,2023.2.3,Win32,59.523809523799216,,,,,,3450.3521000000237,31,5,3450.352200000018,31,,,,3454.098300000012,3454.5984000000058,3453.5782000000177,3454.098300000012,3451.343300000012,3453.578,3454.5985,3455.090300000012,3455.0905,3457.603400000006,2130,3457.6035,5,3457.6038000000117,5,15,165,27,1,1.2,0.7,Time
,,653663,001,female,19,2025-06-02_16h24.30.965,Serial_Dependence_U,2023.2.3,Win32,59.523809523799216,,,,,,3457.604300000012,249,5,3457.604300000012,249,,,,3461.601700000018,3462.092600000024,3461.0816000000236,3461.6015,3458.6185,3461.081400000006,3462.092700000018,3462.592300000012,3462.592400000006,3466.7882000000177,3507,3466.788400000006,5,3466.788900000006,5,16,166,3,1,1.4,0.3,Time
,,653663,001,female,19,2025-06-02_16h24.30.965,Serial_Dependence_U,2023.2.3,Win32,59.523809523799216,,,,,,3466.7893000000117,213,5,3466.7895,213,,,,3470.150200000018,3470.644900000006,3469.645400000006,3470.150100000024,3467.7785,3469.645300000012,3470.645,3471.145300000012,3471.145300000012,3475.3698000000118,3226,3475.37,5,3475.370200000018,5,17,167,10,1,0.8,0.3,Time
,,653663,001,female,19,2025-06-02_16h24.30.965,Serial_Dependence_U,2023.2.3,Win32,59.523809523799216,,,,,,3475.370600000024,78,5,3475.370900000006,78,,,,3479.502600000024,3479.997,3478.997700000018,3479.5025,3476.363700000018,3478.997600000024,3479.9971000000237,3480.497600000024,3480.497600000024,3483.8073000000118,2899,3483.8073000000118,5,3483.807700000018,5,18,168,9,1,1.6,0.7,Time
,,653663,001,female,19,2025-06-02_16h24.30.965,Serial_Dependence_U,2023.2.3,Win32,59.523809523799216,,,,,,3483.808,28,5,3483.8082000000177,28,,,,3487.810300000012,3488.299,3487.294,3487.810200000018,3484.818800000012,3487.2938000000117,3488.299100000024,3488.799,3488.799,3489.660400000006,190,3489.660400000006,1,3489.660800000012,5,19,169,13,1,1.4,0.3,Time
,,653663,001,female,19,2025-06-02_16h24.30.965,Serial_Dependence_U,2023.2.3,Win32,59.523809523799216,,,,,,3489.661300000012,253,5,3489.661400000006,253,,,,3493.4345,3493.933700000018,3492.929400000006,3493.434400000006,3490.6605,3492.9292000000178,3493.933800000012,3494.434100000024,3494.434100000024,3496.1286000000237,1048,3496.128700000018,2,3496.128900000006,5,20,170,12,1,1.2,0.3,Time
,,653663,001,female,19,2025-06-02_16h24.30.965,Serial_Dependence_U,2023.2.3,Win32,59.523809523799216,,,,,,3496.129300000012,329,5,3496.1295,329,,,,3500.087300000012,3500.585300000012,3499.579800000012,3500.0872000000177,3497.146700000018,3499.5796000000237,3500.5855,3501.085700000018,3501.085700000018,3502.269800000012,369,3502.269800000012,1,3502.270100000024,5,21,171,28,1,1.4,0.7,Time
,,653663,001,female,19,2025-06-02_16h24.30.965,Serial_Dependence_U,2023.2.3,Win32,59.523809523799216,,,,,,3502.270400000006,300,5,3502.270600000024,300,,,,3505.648900000006,3506.136800000012,3505.1381000000238,3505.6488000000118,3503.2755,3505.137900000006,3506.136800000012,3506.637800000012,3506.637800000012,3516.468300000012,7282,3516.468400000006,5,3516.468600000024,5,22,172,0,1,0.8,0.3,Time
,,653663,001,female,19,2025-06-02_16h24.30.965,Serial_Dependence_U,2023.2.3,Win32,59.523809523799216,,,,,,3516.469,101,5,3516.469100000024,101,,,,3520.691400000006,3521.191400000006,3520.186300000012,3520.691400000006,3517.498700000018,3520.186300000012,3521.191400000006,3521.6916000000238,3521.6916000000238,3527.171,4586,3527.171,5,3527.171300000012,5,23,173,4,1,1.6,0.3,Time
,,653663,001,female,19,2025-06-02_16h24.30.965,Serial_Dependence_U,2023.2.3,Win32,59.523809523799216,,,,,,3527.171800000012,353,5,3527.172,353,,,,3531.3721000000237,3531.860400000006,3530.8546000000238,3531.372,3528.180300000012,3530.8545,3531.8605,3532.3611000000237,3532.361200000018,3537.2572000000177,4702,3537.257400000006,5,3537.257700000018,5,24,174,24,1,1.6,0.3,Time
,,653663,001,female,19,2025-06-02_16h24.30.965,Serial_Dependence_U,2023.2.3,Win32,59.523809523799216,,,,,,3537.2581000000237,184,5,3537.258300000012,184,,,,3540.639,3541.1295,3540.123400000006,3540.638900000006,3538.271100000024,3540.1232000000177,3541.1295,3541.629400000006,3541.6295,3545.9751000000238,3900,3545.9751000000238,5,3545.975400000006,5,25,175,15,1,0.8,0.7,Time
,,653663,001,female,19,2025-06-02_16h24.30.965,Serial_Dependence_U,2023.2.3,Win32,59.523809523799216,,,,,,3545.975900000006,41,5,3545.976,41,,,,3549.3765,3549.8651000000236,3548.8563000000117,3549.376400000006,3546.9751000000238,3548.8563000000117,3549.865200000018,3550.365200000018,3550.3653000000118,3552.2696000000237,1274,3552.269700000018,5,3552.27,5,26,176,20,1,0.8,0.3,Time
,,653663,001,female,19,2025-06-02_16h24.30.965,Serial_Dependence_U,2023.2.3,Win32,59.523809523799216,,,,,,3552.2705,202,5,3552.270600000024,202,,,,3556.050400000006,3556.549800000012,3555.533900000006,3556.0503000000117,3553.2707000000178,3555.5337000000177,3556.549900000006,3557.05,3557.05,3558.6677000000177,805,3558.667900000006,1,3558.668200000018,5,27,177,22,1,1.2,0.3,Time
,,653663,001,female,19,2025-06-02_16h24.30.965,Serial_Dependence_U,2023.2.3,Win32,59.523809523799216,,,,,,3558.668700000018,305,5,3558.6688000000117,305,,,,3562.435800000012,3562.935200000018,3561.930600000024,3562.4357000000177,3559.6787000000177,3561.9305,3562.935200000018,3563.445200000018,3563.445200000018,3566.1981000000237,2145,3566.198200000018,5,3566.198600000024,5,28,178,7,1,1.2,0.7,Time
,,653663,001,female,19,2025-06-02_16h24.30.965,Serial_Dependence_U,2023.2.3,Win32,59.523809523799216,,,,,,3566.199100000024,201,5,3566.1992000000178,201,,,,3570.364300000012,3570.8622000000178,3569.8545,3570.3642000000177,3567.221,3569.854300000012,3570.8622000000178,3571.354200000018,3571.354200000018,3577.068800000012,2462,3577.068800000012,5,3577.069200000018,5,29,179,19,1,1.6,0.7,Time
,,653663,001,female,19,2025-06-02_16h24.30.965,Serial_Dependence_U,2023.2.3,Win32,59.523809523799216,,,,,,3577.069600000024,303,6,3626.102300000012,303,s,49.01080000001184,,3629.4532000000177,3629.953600000024,3628.9371000000237,3629.453,3627.102300000012,3628.937,3629.953600000024,3630.453,3630.453,3632.470300000012,649,3632.470400000006,2,3632.470700000018,6,0,180,25,1,0.8,0.7,Time
,,653663,001,female,19,2025-06-02_16h24.30.965,Serial_Dependence_U,2023.2.3,Win32,59.523809523799216,,,,,,3632.471100000024,136,6,3632.4726000000237,136,,,,3636.6387000000177,3637.137700000018,3636.1215,3636.638600000024,3633.488300000012,3636.121400000006,3637.137700000018,3637.637900000006,3637.637900000006,3640.706,2269,3640.706200000018,5,3640.706400000006,6,1,181,9,1,1.6,0.7,Time
,,653663,001,female,19,2025-06-02_16h24.30.965,Serial_Dependence_U,2023.2.3,Win32,59.523809523799216,,,,,,3640.7068000000118,94,6,3640.706900000006,94,,,,3644.0908000000118,3644.590400000006,3643.5742000000178,3644.090700000018,3641.707200000018,3643.5742000000178,3644.5905,3645.090400000006,3645.090400000006,3651.208700000018,3619,3651.208900000006,5,3651.209200000018,6,2,182,20,1,0.8,0.3,Time
,,653663,001,female,19,2025-06-02_16h24.30.965,Serial_Dependence_U,2023.2.3,Win32,59.523809523799216,,,,,,3651.209600000024,177,6,3651.209700000018,177,,,,3655.1443000000118,3655.643100000024,3654.643,3655.1441000000236,3652.209300000012,3654.642800000012,3655.6432000000177,3656.142600000024,3656.142700000018,3662.712,4451,3662.712100000024,5,3662.712300000012,6,3,183,28,1,1.4,0.7,Time
,,653663,001,female,19,2025-06-02_16h24.30.965,Serial_Dependence_U,2023.2.3,Win32,59.523809523799216,,,,,,3662.712700000018,325,6,3662.712800000012,325,,,,3666.279,3666.7795,3665.7635,3666.278900000006,3663.728600000024,3665.7634000000057,3666.779600000024,3667.2803000000117,3667.280400000006,3670.030100000024,1845,3670.030100000024,5,3670.0305,6,4,184,26,1,1,0.7,Time
,,653663,001,female,19,2025-06-02_16h24.30.965,Serial_Dependence_U,2023.2.3,Win32,59.523809523799216,,,,,,3670.030800000012,281,6,3670.030800000012,281,,,,3674.2147000000177,3674.715400000006,3673.6978000000117,3674.214600000024,3671.031200000018,3673.697700000018,3674.7155,3675.214300000012,3675.2144000000058,3677.0821000000237,317,3677.082200000018,1,3677.082600000024,6,5,185,14,1,1.6,0.3,Time
,,653663,001,female,19,2025-06-02_16h24.30.965,Serial_Dependence_U,2023.2.3,Win32,59.523809523799216,,,,,,3677.083100000024,187,6,3677.0832000000178,187,,,,3681.049600000024,3681.549900000006,3680.533800000012,3681.0495,3678.099,3680.533600000024,3681.549900000006,3682.049900000006,3682.05,3686.368300000012,2450,3686.3684000000057,5,3686.368800000012,6,6,186,8,1,1.4,0.7,Time
,,653663,001,female,19,2025-06-02_16h24.30.965,Serial_Dependence_U,2023.2.3,Win32,59.523809523799216,,,,,,3686.369100000024,106,6,3686.369300000012,106,,,,3690.336,3690.835400000006,3689.835100000024,3690.335900000006,3687.369100000024,3689.835100000024,3690.835400000006,3691.335400000006,3691.335400000006,3693.586700000018,1537,3693.586700000018,4,3693.586900000006,6,7,187,3,1,1.4,0.3,Time
,,653663,001,female,19,2025-06-02_16h24.30.965,Serial_Dependence_U,2023.2.3,Win32,59.523809523799216,,,,,,3693.587300000012,76,6,3693.587400000006,76,,,,3697.337900000006,3697.837300000012,3696.8206000000237,3697.337900000006,3694.587600000024,3696.8205,3697.837400000006,3698.337100000024,3698.3372000000177,3699.388200000018,217,3699.388300000012,1,3699.3887000000177,6,8,188,27,1,1.2,0.7,Time
,,653663,001,female,19,2025-06-02_16h24.30.965,Serial_Dependence_U,2023.2.3,Win32,59.523809523799216,,,,,,3699.389,186,6,3699.389100000024,186,,,,3703.3231000000237,3703.822300000012,3702.822100000024,3703.322900000006,3700.389100000024,3702.822100000024,3703.822400000006,3704.321900000006,3704.322,3712.791700000018,4749,3712.791800000012,5,3712.792200000018,6,9,189,18,1,1.4,0.7,Time
,,653663,001,female,19,2025-06-02_16h24.30.965,Serial_Dependence_U,2023.2.3,Win32,59.523809523799216,,,,,,3712.7927000000177,281,6,3712.792900000006,281,,,,3716.775700000018,3717.275700000018,3716.259100000024,3716.775600000024,3713.7927000000177,3716.259,3717.2758000000117,3717.7755,3717.7755,3720.609600000024,1533,3720.609600000024,4,3720.609900000006,6,10,190,23,1,1.4,0.3,Time
,,653663,001,female,19,2025-06-02_16h24.30.965,Serial_Dependence_U,2023.2.3,Win32,59.523809523799216,,,,,,3720.610100000024,70,6,3720.610200000018,70,,,,3723.995200000018,3724.494,3723.494,3723.9951000000237,3721.6277000000177,3723.494,3724.494,3724.993900000006,3724.993900000006,3731.246600000024,5069,3731.246700000018,5,3731.246900000006,6,11,191,0,1,0.8,0.3,Time
,,653663,001,female,19,2025-06-02_16h24.30.965,Serial_Dependence_U,2023.2.3,Win32,59.523809523799216,,,,,,3731.247300000012,47,6,3731.2475,47,,,,3734.847900000006,3735.346800000012,3734.331300000012,3734.847700000018,3732.263200000018,3734.331100000024,3735.346800000012,3735.8475,3735.8475,3741.5157000000177,5085,3741.5157000000177,5,3741.516100000024,6,12,192,11,1,1,0.3,Time
,,653663,001,female,19,2025-06-02_16h24.30.965,Serial_Dependence_U,2023.2.3,Win32,59.523809523799216,,,,,,3741.5165,209,6,3741.516700000018,209,,,,3745.716800000012,3746.217,3745.200700000018,3745.7167000000177,3742.532400000006,3745.2006000000238,3746.217,3746.716400000006,3746.716400000006,3748.383300000012,581,3748.383400000006,1,3748.3836000000238,6,13,193,24,1,1.6,0.3,Time
,,653663,001,female,19,2025-06-02_16h24.30.965,Serial_Dependence_U,2023.2.3,Win32,59.523809523799216,,,,,,3748.383800000012,111,6,3748.383900000006,111,,,,3752.152300000012,3752.652100000024,3751.634900000006,3752.1522000000177,3749.401600000024,3751.634800000012,3752.6522000000177,3753.151800000012,3753.151800000012,3755.868900000006,602,3755.868900000006,1,3755.869200000018,6,14,194,17,1,1.2,0.7,Time
,,653663,001,female,19,2025-06-02_16h24.30.965,Serial_Dependence_U,2023.2.3,Win32,59.523809523799216,,,,,,3755.869400000006,93,6,3755.869700000018,93,,,,3759.670700000018,3760.1697000000177,3759.153800000012,3759.670600000024,3756.8862000000177,3759.153700000018,3760.1697000000177,3760.670600000024,3760.670600000024,3768.8725,5400,3768.872600000024,5,3768.8729000000058,6,15,195,12,1,1.2,0.3,Time
,,653663,001,female,19,2025-06-02_16h24.30.965,Serial_Dependence_U,2023.2.3,Win32,59.523809523799216,,,,,,3768.873100000024,174,6,3768.873400000006,174,,,,3772.224400000006,3772.723300000012,3771.707,3772.224200000018,3769.873800000012,3771.706900000006,3772.7235,3773.223100000024,3773.223100000024,3779.659200000018,3101,3779.659200000018,5,3779.6595,6,16,196,5,1,0.8,0.7,Time
,,653663,001,female,19,2025-06-02_16h24.30.965,Serial_Dependence_U,2023.2.3,Win32,59.523809523799216,,,,,,3779.659900000006,258,6,3779.6601000000237,258,,,,3783.227,3783.726700000018,3782.710800000012,3783.226900000006,3780.675700000018,3782.710600000024,3783.7268000000117,3784.2268000000117,3784.226900000006,3788.4115,3167,3788.411700000018,5,3788.412,6,17,197,6,1,1,0.7,Time
,,653663,001,female,19,2025-06-02_16h24.30.965,Serial_Dependence_U,2023.2.3,Win32,59.523809523799216,,,,,,3788.412400000006,331,6,3788.412700000018,331,,,,3792.211700000018,3792.712300000012,3791.6956000000237,3792.2116000000237,3789.427700000018,3791.695400000006,3792.712300000012,3793.2125,3793.2125,3796.529700000018,3162,3796.529900000006,5,3796.530200000018,6,18,198,2,1,1.2,0.3,Time
,,653663,001,female,19,2025-06-02_16h24.30.965,Serial_Dependence_U,2023.2.3,Win32,59.523809523799216,,,,,,3796.5306000000237,185,6,3796.530800000012,185,,,,3800.114800000012,3800.614800000012,3799.5973000000117,3800.114600000024,3797.531,3799.597200000018,3800.614900000006,3801.114300000012,3801.114400000006,3802.064600000024,100,3802.064700000018,1,3802.065100000024,6,19,199,1,1,1,0.3,Time
,,653663,001,female,19,2025-06-02_16h24.30.965,Serial_Dependence_U,2023.2.3,Win32,59.523809523799216,,,,,,3802.0655,342,6,3802.065700000018,342,,,,3805.8495,3806.349400000006,3805.332300000012,3805.849400000006,3803.065900000006,3805.332200000018,3806.349400000006,3806.848600000024,3806.8487000000177,3807.982800000012,284,3807.982900000006,1,3807.9833000000117,6,20,200,22,1,1.2,0.3,Time
,,653663,001,female,19,2025-06-02_16h24.30.965,Serial_Dependence_U,2023.2.3,Win32,59.523809523799216,,,,,,3807.9836000000237,56,6,3807.983800000012,56,,,,3812.1508000000117,3812.650400000006,3811.6342000000177,3812.150700000018,3809.000400000006,3811.634100000024,3812.650400000006,3813.1511000000237,3813.151200000018,3815.118100000024,1017,3815.118200000018,1,3815.118600000024,6,21,201,19,1,1.6,0.7,Time
,,653663,001,female,19,2025-06-02_16h24.30.965,Serial_Dependence_U,2023.2.3,Win32,59.523809523799216,,,,,,3815.119100000024,320,6,3815.119400000006,320,,,,3819.3195,3819.818700000018,3818.803,3819.3194000000058,3816.135400000006,3818.802900000006,3819.818700000018,3820.3195,3820.3195,3822.987300000012,1403,3822.987400000006,2,3822.9878000000117,6,22,202,4,1,1.6,0.3,Time
,,653663,001,female,19,2025-06-02_16h24.30.965,Serial_Dependence_U,2023.2.3,Win32,59.523809523799216,,,,,,3822.988300000012,293,6,3822.988700000018,293,,,,3826.355,3826.854,3825.837900000006,3826.3549000000057,3824.003800000012,3825.837800000012,3826.8541000000237,3827.354800000012,3827.3549000000057,3828.7555,465,3828.755700000018,1,3828.756,6,23,203,15,1,0.8,0.7,Time
,,653663,001,female,19,2025-06-02_16h24.30.965,Serial_Dependence_U,2023.2.3,Win32,59.523809523799216,,,,,,3828.7565,60,6,3828.756800000012,60,,,,3832.906,3833.406,3832.3898000000117,3832.905800000012,3829.755300000012,3832.389700000018,3833.406100000024,3833.906200000018,3833.906300000012,3838.8245,4052,3838.824600000024,5,3838.825,6,24,204,29,1,1.6,0.7,Time
,,653663,001,female,19,2025-06-02_16h24.30.965,Serial_Dependence_U,2023.2.3,Win32,59.523809523799216,,,,,,3838.8255,348,6,3838.8256000000238,348,,,,3842.426,3842.9247000000178,3841.909100000024,3842.425900000006,3839.840900000006,3841.908900000006,3842.9247000000178,3843.424800000012,3843.424800000012,3846.1263000000117,1653,3846.1263000000117,5,3846.1266000000237,6,25,205,21,1,1,0.3,Time
,,653663,001,female,19,2025-06-02_16h24.30.965,Serial_Dependence_U,2023.2.3,Win32,59.523809523799216,,,,,,3846.127,62,6,3846.127200000018,62,,,,3850.127100000024,3850.6274000000058,3849.611300000012,3850.127,3847.1432000000177,3849.6111000000237,3850.6275,3851.127600000024,3851.1277000000177,3852.227600000024,666,3852.227800000012,1,3852.228100000024,6,26,206,13,1,1.4,0.3,Time
,,653663,001,female,19,2025-06-02_16h24.30.965,Serial_Dependence_U,2023.2.3,Win32,59.523809523799216,,,,,,3852.228300000012,110,6,3852.228700000018,110,,,,3855.7955,3856.295100000024,3855.2795,3855.795400000006,3853.244700000018,3855.279400000006,3856.295100000024,3856.795100000024,3856.795100000024,3858.845900000006,150,3858.846,1,3858.8465,6,27,207,16,1,1,0.7,Time
,,653663,001,female,19,2025-06-02_16h24.30.965,Serial_Dependence_U,2023.2.3,Win32,59.523809523799216,,,,,,3858.846900000006,76,6,3858.8473000000117,76,,,,3862.614300000012,3863.113300000012,3862.097100000024,3862.6142000000177,3859.863600000024,3862.097100000024,3863.113300000012,3863.614400000006,3863.614400000006,3868.699,3457,3868.699100000024,5,3868.699400000006,6,28,208,7,1,1.2,0.7,Time
,,653663,001,female,19,2025-06-02_16h24.30.965,Serial_Dependence_U,2023.2.3,Win32,59.523809523799216,,,,,,3868.699700000018,306,6,3868.7,306,,,,3872.082900000006,3872.582800000012,3871.566900000006,3872.082800000012,3869.699600000024,3871.566700000018,3872.582900000006,3873.0835,3873.0835,3876.7679000000057,3040,3876.768,5,3876.768400000006,6,29,209,10,1,0.8,0.3,Time
,,653663,001,female,19,2025-06-02_16h24.30.965,Serial_Dependence_U,2023.2.3,Win32,59.523809523799216,,,,,,3876.768700000018,95,7,5653.851900000006,95,s,1777.0503000000112,,5657.4315,5657.923700000018,5656.924400000006,5657.431300000012,5654.879700000018,5656.924400000006,5657.923800000012,5658.423900000006,5658.424,5661.925600000024,3116,5661.925700000018,5,5661.925900000006,7,0,210,6,1,1,0.7,Time
,,653663,001,female,19,2025-06-02_16h24.30.965,Serial_Dependence_U,2023.2.3,Win32,59.523809523799216,,,,,,5661.926400000006,45,7,5661.9285,45,,,,5665.702100000024,5666.1925,5665.1878000000115,5665.701900000006,5662.926100000024,5665.187600000024,5666.192600000024,5666.692400000006,5666.6925,5672.024100000024,4467,5672.024200000018,5,5672.0245,7,1,211,12,1,1.2,0.3,Time
,,653663,001,female,19,2025-06-02_16h24.30.965,Serial_Dependence_U,2023.2.3,Win32,59.523809523799216,,,,,,5672.024800000012,152,7,5672.0251000000235,152,,,,5675.803700000018,5676.295600000024,5675.2993000000115,5675.803600000024,5673.037900000006,5675.299200000018,5676.295700000018,5676.795,5676.795100000024,5682.125900000006,4711,5682.125900000006,5,5682.1265,7,2,212,22,1,1.2,0.3,Time
,,653663,001,female,19,2025-06-02_16h24.30.965,Serial_Dependence_U,2023.2.3,Win32,59.523809523799216,,,,,,5682.126900000006,79,7,5682.127300000012,79,,,,5686.091100000024,5686.580900000006,5685.5887000000175,5686.091,5683.1395,5685.588600000024,5686.581100000024,5687.080900000006,5687.080900000006,5693.170200000018,5232,5693.170300000012,5,5693.1705,7,3,213,18,1,1.4,0.7,Time
,,653663,001,female,19,2025-06-02_16h24.30.965,Serial_Dependence_U,2023.2.3,Win32,59.523809523799216,,,,,,5693.170800000012,252,7,5693.171,252,,,,5696.5617000000175,5697.050200000018,5696.044,5696.561600000024,5694.170600000024,5696.043800000012,5697.050300000012,5697.5505,5697.550600000024,5702.145900000006,4018,5702.146,5,5702.146200000018,7,4,214,0,1,0.8,0.3,Time
,,653663,001,female,19,2025-06-02_16h24.30.965,Serial_Dependence_U,2023.2.3,Win32,59.523809523799216,,,,,,5702.1465,234,7,5702.1467000000175,234,,,,5705.8865,5706.386200000018,5705.377600000023,5705.886400000006,5703.139400000006,5705.377400000006,5706.386300000012,5706.8866000000235,5706.886700000018,5711.684100000024,4018,5711.684300000012,5,5711.684700000018,7,5,215,27,1,1.2,0.7,Time
,,653663,001,female,19,2025-06-02_16h24.30.965,Serial_Dependence_U,2023.2.3,Win32,59.523809523799216,,,,,,5711.685300000012,250,7,5711.685600000023,250,,,,5715.258600000024,5715.755600000024,5714.756100000024,5715.2585,5712.691400000006,5714.756100000024,5715.755600000024,5716.2485,5716.2486000000235,5722.285300000012,5385,5722.285400000006,5,5722.2858000000115,7,6,216,1,1,1,0.3,Time
,,653663,001,female,19,2025-06-02_16h24.30.965,Serial_Dependence_U,2023.2.3,Win32,59.523809523799216,,,,,,5722.286200000018,263,7,5722.2865,263,,,,5726.253,5726.741400000006,5725.742,5726.252800000012,5723.274800000012,5725.741900000006,5726.7415,5727.241400000006,5727.2415,5733.838300000012,5952,5733.838300000012,5,5733.838600000024,7,7,217,3,1,1.4,0.3,Time
,,653663,001,female,19,2025-06-02_16h24.30.965,Serial_Dependence_U,2023.2.3,Win32,59.523809523799216,,,,,,5733.839,211,7,5733.839100000024,211,,,,5737.4046000000235,5737.894800000012,5736.887200000018,5737.4045,5734.847300000012,5736.887100000024,5737.894800000012,5738.394600000024,5738.394700000018,5741.706900000006,3167,5741.706900000006,5,5741.707300000012,7,8,218,26,1,1,0.7,Time
,,653663,001,female,19,2025-06-02_16h24.30.965,Serial_Dependence_U,2023.2.3,Win32,59.523809523799216,,,,,,5741.707700000018,243,7,5741.707900000006,243,,,,5745.0904000000055,5745.5795,5744.5893000000115,5745.090200000018,5742.715100000024,5744.589200000018,5745.579600000024,5746.080100000024,5746.080200000018,5750.409300000012,3803,5750.409300000012,5,5750.409800000012,7,9,219,10,1,0.8,0.3,Time
,,653663,001,female,19,2025-06-02_16h24.30.965,Serial_Dependence_U,2023.2.3,Win32,59.523809523799216,,,,,,5750.410100000024,260,7,5750.410300000012,260,,,,5754.359300000012,5754.8494000000055,5753.850400000006,5754.359200000018,5751.415600000024,5753.850300000012,5754.8495,5755.349800000012,5755.349900000006,5762.262300000012,4234,5762.262400000006,5,5762.2627000000175,7,10,220,28,1,1.4,0.7,Time
,,653663,001,female,19,2025-06-02_16h24.30.965,Serial_Dependence_U,2023.2.3,Win32,59.523809523799216,,,,,,5762.263300000012,125,7,5762.263700000018,125,,,,5766.018800000012,5766.518700000018,5765.507,5766.018700000018,5763.273300000012,5765.507,5766.518800000012,5767.019200000018,5767.019300000012,5772.683600000024,4794,5772.683600000024,5,5772.684,7,11,221,7,1,1.2,0.7,Time
,,653663,001,female,19,2025-06-02_16h24.30.965,Serial_Dependence_U,2023.2.3,Win32,59.523809523799216,,,,,,5772.6845,138,7,5772.684700000018,138,,,,5776.065200000018,5776.554200000018,5775.555600000024,5776.065100000023,5773.713600000024,5775.5555,5776.554200000018,5777.055100000024,5777.055200000018,5780.650300000012,2854,5780.650400000006,5,5780.650700000017,7,12,222,25,1,0.8,0.7,Time
,,653663,001,female,19,2025-06-02_16h24.30.965,Serial_Dependence_U,2023.2.3,Win32,59.523809523799216,,,,,,5780.651,34,7,5780.651300000012,34,,,,5784.6343000000115,5785.123300000012,5784.110400000006,5784.634100000024,5781.640400000006,5784.110200000018,5785.123300000012,5785.6242000000175,5785.6242000000175,5791.4885,5019,5791.488600000024,5,5791.488900000006,7,13,223,23,1,1.4,0.3,Time
,,653663,001,female,19,2025-06-02_16h24.30.965,Serial_Dependence_U,2023.2.3,Win32,59.523809523799216,,,,,,5791.489300000012,306,7,5791.4896000000235,306,,,,5795.660600000024,5796.160400000006,5795.1518000000115,5795.660400000006,5792.5035,5795.151700000018,5796.1605,5796.6595,5796.6595,5800.933600000024,3265,5800.933600000024,5,5800.933700000018,7,14,224,9,1,1.6,0.7,Time
,,653663,001,female,19,2025-06-02_16h24.30.965,Serial_Dependence_U,2023.2.3,Win32,59.523809523799216,,,,,,5800.934,322,7,5800.934200000018,322,,,,5804.5172000000175,5805.012100000024,5804.006300000012,5804.517100000024,5801.9325,5804.006200000018,5805.012200000018,5805.511900000006,5805.512,5819.279100000023,2715,5819.279200000018,5,5819.2796000000235,7,15,225,11,1,1,0.3,Time
,,653663,001,female,19,2025-06-02_16h24.30.965,Serial_Dependence_U,2023.2.3,Win32,59.523809523799216,,,,,,5819.280100000024,312,7,5819.2805,312,,,,5822.684,5823.183100000024,5822.178700000018,5822.683900000006,5820.310700000018,5822.1785,5823.183100000024,5823.683600000024,5823.683700000018,5828.6645,3893,5828.664700000018,5,5828.665,7,16,226,20,1,0.8,0.3,Time
,,653663,001,female,19,2025-06-02_16h24.30.965,Serial_Dependence_U,2023.2.3,Win32,59.523809523799216,,,,,,5828.665600000024,197,7,5828.665900000006,197,,,,5832.6635,5833.152700000018,5832.145200000018,5832.663400000006,5829.6955,5832.145100000024,5833.152700000018,5833.6529000000055,5833.653,5840.151100000024,5662,5840.151100000024,5,5840.151700000018,7,17,227,8,1,1.4,0.7,Time
,,653663,001,female,19,2025-06-02_16h24.30.965,Serial_Dependence_U,2023.2.3,Win32,59.523809523799216,,,,,,5840.152300000012,358,7,5840.1525,358,,,,5844.333700000018,5844.822200000018,5843.822900000006,5844.333600000024,5841.161400000006,5843.822800000012,5844.822200000018,5845.322900000006,5845.322900000006,5853.585700000018,6535,5853.585700000018,5,5853.586,7,18,228,4,1,1.6,0.3,Time
,,653663,001,female,19,2025-06-02_16h24.30.965,Serial_Dependence_U,2023.2.3,Win32,59.523809523799216,,,,,,5853.5865,198,7,5853.586600000024,198,,,,5857.332300000012,5857.8255,5856.826,5857.332200000018,5854.584600000024,5856.825900000006,5857.8255,5858.326200000018,5858.326200000018,5866.3539000000055,6576,5866.354,5,5866.354300000012,7,19,229,17,1,1.2,0.7,Time
,,653663,001,female,19,2025-06-02_16h24.30.965,Serial_Dependence_U,2023.2.3,Win32,59.523809523799216,,,,,,5866.354700000018,261,7,5866.354900000006,261,,,,5870.556400000006,5871.045700000018,5870.029800000012,5870.556300000012,5867.367300000012,5870.0296000000235,5871.045700000018,5871.546200000018,5871.546200000018,5878.208600000024,5823,5878.208700000018,5,5878.209,7,20,230,24,1,1.6,0.3,Time
,,653663,001,female,19,2025-06-02_16h24.30.965,Serial_Dependence_U,2023.2.3,Win32,59.523809523799216,,,,,,5878.209400000006,86,7,5878.209700000018,86,,,,5881.549200000018,5882.049200000018,5881.042900000006,5881.549100000024,5879.21,5881.042700000018,5882.0493000000115,5882.548900000006,5882.549,5886.55,3452,5886.55,5,5886.5504000000055,7,21,231,5,1,0.8,0.7,Time
,,653663,001,female,19,2025-06-02_16h24.30.965,Serial_Dependence_U,2023.2.3,Win32,59.523809523799216,,,,,,5886.550700000018,324,7,5886.551,324,,,,5890.126700000018,5890.617900000006,5889.619900000006,5890.126600000024,5887.551100000024,5889.619800000012,5890.617900000006,5891.1175,5891.1175,5896.098600000024,4293,5896.098600000024,5,5896.099,7,22,232,21,1,1,0.3,Time
,,653663,001,female,19,2025-06-02_16h24.30.965,Serial_Dependence_U,2023.2.3,Win32,59.523809523799216,,,,,,5896.0995,40,7,5896.099700000018,40,,,,5899.898300000012,5900.386700000018,5899.3798000000115,5899.898100000024,5897.1056000000235,5899.3798000000115,5900.386800000012,5900.887,5900.887,5905.915400000006,4441,5905.915600000024,5,5905.915800000012,7,23,233,2,1,1.2,0.3,Time
,,653663,001,female,19,2025-06-02_16h24.30.965,Serial_Dependence_U,2023.2.3,Win32,59.523809523799216,,,,,,5905.916300000012,236,7,5905.916600000024,236,,,,5909.265300000012,5909.7555,5908.744400000006,5909.265200000018,5906.907600000024,5908.744300000012,5909.7555,5910.256100000024,5910.256200000018,5916.104600000024,5142,5916.104700000018,5,5916.105200000018,7,24,234,15,1,0.8,0.7,Time
,,653663,001,female,19,2025-06-02_16h24.30.965,Serial_Dependence_U,2023.2.3,Win32,59.523809523799216,,,,,,5916.105800000012,69,7,5916.106,69,,,,5920.12,5920.614800000012,5919.619,5920.119800000012,5917.132600000024,5919.618700000018,5920.614800000012,5921.108900000006,5921.109,5927.601200000018,5797,5927.601300000012,5,5927.601800000012,7,25,235,13,1,1.4,0.3,Time
,,653663,001,female,19,2025-06-02_16h24.30.965,Serial_Dependence_U,2023.2.3,Win32,59.523809523799216,,,,,,5927.602200000018,265,7,5927.602600000024,265,,,,5931.779700000018,5932.278600000024,5931.273,5931.7796000000235,5928.610800000012,5931.272800000012,5932.278600000024,5932.785300000012,5932.7855,5937.590900000006,3977,5937.591,5,5937.591200000018,7,26,236,14,1,1.6,0.3,Time
,,653663,001,female,19,2025-06-02_16h24.30.965,Serial_Dependence_U,2023.2.3,Win32,59.523809523799216,,,,,,5937.591600000023,217,7,5937.591800000012,217,,,,5941.747700000018,5942.255700000018,5941.242200000018,5941.747600000024,5938.606700000018,5941.242,5942.255800000012,5942.747700000018,5942.747700000018,5947.694800000012,3418,5947.694900000006,5,5947.695200000018,7,27,237,19,1,1.6,0.7,Time
,,653663,001,female,19,2025-06-02_16h24.30.965,Serial_Dependence_U,2023.2.3,Win32,59.523809523799216,,,,,,5947.6955,87,7,5947.695800000012,87,,,,5951.856200000017,5952.350200000018,5951.345800000012,5951.856,5948.700600000024,5951.345700000018,5952.350300000012,5952.850700000018,5952.850800000012,5957.315100000023,3829,5957.315200000018,5,5957.315700000018,7,28,238,29,1,1.6,0.7,Time
,,653663,001,female,19,2025-06-02_16h24.30.965,Serial_Dependence_U,2023.2.3,Win32,59.523809523799216,,,,,,5957.316800000012,251,7,5957.317,251,,,,5960.894800000012,5961.385900000006,5960.37,5960.894700000018,5958.328700000018,5960.369900000006,5961.386,5961.893400000006,5961.8935,5966.665200000018,3852,5966.665200000018,5,5966.6655,7,29,239,16,1,1,0.7,Time
,,653663,001,female,19,2025-06-02_16h24.30.965,Serial_Dependence_U,2023.2.3,Win32,59.523809523799216,,,,,,5966.665800000012,26,8,6103.957700000018,26,s,137.27570000001742,,6108.174700000018,6108.674700000018,6107.669300000012,6108.174600000024,6104.983200000018,6107.669200000018,6108.674800000012,6109.174800000012,6109.174800000012,6114.3485,4290,6114.348600000024,5,6114.348900000006,8,0,240,14,1,1.6,0.3,Time
,,653663,001,female,19,2025-06-02_16h24.30.965,Serial_Dependence_U,2023.2.3,Win32,59.523809523799216,,,,,,6114.3495,144,8,6114.351700000017,144,,,,6118.310800000012,6118.810400000006,6117.8045,6118.310700000018,6115.3708000000115,6117.804300000012,6118.810400000006,6119.315200000018,6119.315300000012,6121.304900000006,1067,6121.304900000006,2,6121.305100000024,8,1,241,28,1,1.4,0.7,Time
,,653663,001,female,19,2025-06-02_16h24.30.965,Serial_Dependence_U,2023.2.3,Win32,59.523809523799216,,,,,,6121.3055,135,8,6121.305800000012,135,,,,6124.84,6125.329,6124.331200000018,6124.839900000006,6122.299700000018,6124.331200000018,6125.329100000024,6125.837800000012,6125.837900000006,6129.908400000006,3100,6129.9085,5,6129.908700000018,8,2,242,26,1,1,0.7,Time
,,653663,001,female,19,2025-06-02_16h24.30.965,Serial_Dependence_U,2023.2.3,Win32,59.523809523799216,,,,,,6129.9091000000235,92,8,6129.909300000012,92,,,,6133.324600000024,6133.814700000018,6132.798100000024,6133.324400000006,6130.924800000012,6132.798,6133.814700000018,6134.314100000024,6134.314200000018,6145.3125,3301,6145.3125,5,6145.312900000006,8,3,243,20,1,0.8,0.3,Time
,,653663,001,female,19,2025-06-02_16h24.30.965,Serial_Dependence_U,2023.2.3,Win32,59.523809523799216,,,,,,6145.313400000006,140,8,6145.313700000018,140,,,,6149.088300000012,6149.585100000024,6148.586600000024,6149.088200000017,6146.318100000024,6148.586400000006,6149.585100000024,6150.084800000012,6150.084900000006,6155.210600000024,3840,6155.210700000018,5,6155.211,8,4,244,22,1,1.2,0.3,Time
,,653663,001,female,19,2025-06-02_16h24.30.965,Serial_Dependence_U,2023.2.3,Win32,59.523809523799216,,,,,,6155.211300000012,180,8,6155.211600000024,180,,,,6158.560800000012,6159.0538000000115,6158.058600000024,6158.560600000023,6156.220300000012,6158.0585,6159.0538000000115,6159.554600000024,6159.554700000018,6164.245700000018,3894,6164.245900000006,5,6164.2465,8,5,245,25,1,0.8,0.7,Time
,,653663,001,female,19,2025-06-02_16h24.30.965,Serial_Dependence_U,2023.2.3,Win32,59.523809523799216,,,,,,6164.247100000024,236,8,6164.247300000012,236,,,,6168.223800000012,6168.723700000018,6167.717800000012,6168.223600000024,6165.250700000018,6167.717700000017,6168.723700000018,6169.223200000018,6169.2233000000115,6173.518900000006,3368,6173.519,5,6173.519200000018,8,6,246,13,1,1.4,0.3,Time
,,653663,001,female,19,2025-06-02_16h24.30.965,Serial_Dependence_U,2023.2.3,Win32,59.523809523799216,,,,,,6173.5195,357,8,6173.519800000012,357,,,,6177.103200000018,6177.592,6176.586700000018,6177.103,6174.5165,6176.5865,6177.5921000000235,6178.0925,6178.0925,6186.490100000024,4685,6186.490100000024,5,6186.490400000006,8,7,247,1,1,1,0.3,Time
,,653663,001,female,19,2025-06-02_16h24.30.965,Serial_Dependence_U,2023.2.3,Win32,59.523809523799216,,,,,,6186.490800000012,96,8,6186.491,96,,,,6189.879600000024,6190.379100000024,6189.3735,6189.879600000024,6187.499800000012,6189.373300000012,6190.379100000024,6190.879,6190.879100000024,6209.6298000000115,4619,6209.63,5,6209.630400000006,8,8,248,0,1,0.8,0.3,Time
,,653663,001,female,19,2025-06-02_16h24.30.965,Serial_Dependence_U,2023.2.3,Win32,59.523809523799216,,,,,,6209.631,289,8,6209.631200000018,289,,,,6213.618900000006,6214.118700000018,6213.104300000012,6213.618800000012,6210.640200000018,6213.104200000018,6214.118700000018,6214.618900000006,6214.619,6219.966100000024,4209,6219.966100000024,5,6219.9664999999995,8,9,249,3,1,1.4,0.3,Time
,,653663,001,female,19,2025-06-02_16h24.30.965,Serial_Dependence_U,2023.2.3,Win32,59.523809523799216,,,,,,6219.966800000012,299,8,6219.9671000000235,299,,,,6223.930300000012,6224.421300000012,6223.421900000006,6223.930200000018,6220.987100000024,6223.421700000018,6224.421300000012,6224.921600000024,6224.921700000018,6229.3629000000055,3713,6229.3629000000055,5,6229.363300000012,8,10,250,8,1,1.4,0.7,Time
,,653663,001,female,19,2025-06-02_16h24.30.965,Serial_Dependence_U,2023.2.3,Win32,59.523809523799216,,,,,,6229.363700000018,145,8,6229.363900000006,145,,,,6233.107700000018,6233.607200000018,6232.600400000006,6233.1075,6230.356700000018,6232.600300000012,6233.6073000000115,6234.106700000018,6234.106700000018,6239.356,4636,6239.356100000024,5,6239.356400000006,8,11,251,17,1,1.2,0.7,Time
,,653663,001,female,19,2025-06-02_16h24.30.965,Serial_Dependence_U,2023.2.3,Win32,59.523809523799216,,,,,,6239.356800000012,120,8,6239.357100000024,120,,,,6243.3539000000055,6243.843100000024,6242.833300000012,6243.353700000018,6240.36,6242.833200000018,6243.843100000024,6244.346900000006,6244.346900000006,6250.774600000023,5693,6250.774700000018,5,6250.775,8,12,252,23,1,1.4,0.3,Time
,,653663,001,female,19,2025-06-02_16h24.30.965,Serial_Dependence_U,2023.2.3,Win32,59.523809523799216,,,,,,6250.775300000012,182,8,6250.775600000024,182,,,,6254.773300000012,6255.262600000024,6254.255800000012,6254.773100000024,6251.804,6254.255700000018,6255.262600000024,6255.762600000024,6255.762600000024,6261.458300000012,4817,6261.458400000006,5,6261.458700000018,8,13,253,18,1,1.4,0.7,Time
,,653663,001,female,19,2025-06-02_16h24.30.965,Serial_Dependence_U,2023.2.3,Win32,59.523809523799216,,,,,,6261.459,314,8,6261.459300000012,314,,,,6265.0493000000115,6265.548800000012,6264.543300000012,6265.0493000000115,6262.4725,6264.5431000000235,6265.548800000012,6266.048400000006,6266.0485,6270.746600000024,3202,6270.746600000024,5,6270.747,8,14,254,21,1,1,0.3,Time
,,653663,001,female,19,2025-06-02_16h24.30.965,Serial_Dependence_U,2023.2.3,Win32,59.523809523799216,,,,,,6270.747400000006,254,8,6270.7475,254,,,,6274.506800000012,6275.001400000006,6273.989300000012,6274.506700000018,6271.758100000024,6273.989200000018,6275.001400000006,6275.489700000018,6275.489700000018,6282.466700000018,3468,6282.466700000018,5,6282.4671000000235,8,15,255,7,1,1.2,0.7,Time
,,653663,001,female,19,2025-06-02_16h24.30.965,Serial_Dependence_U,2023.2.3,Win32,59.523809523799216,,,,,,6282.467700000017,81,8,6282.4682000000175,81,,,,6286.270900000006,6286.771300000012,6285.765100000024,6286.270800000012,6283.4806000000235,6285.764900000006,6286.771300000012,6287.271100000024,6287.271200000018,6292.212100000023,3796,6292.212200000018,5,6292.2125,8,16,256,2,1,1.2,0.3,Time
,,653663,001,female,19,2025-06-02_16h24.30.965,Serial_Dependence_U,2023.2.3,Win32,59.523809523799216,,,,,,6292.213,266,8,6292.213100000024,266,,,,6295.617800000012,6296.106300000012,6295.101200000018,6295.617600000024,6293.233100000024,6295.101,6296.106400000006,6296.606900000006,6296.607,6300.803900000006,3501,6300.804,5,6300.804400000006,8,17,257,10,1,0.8,0.3,Time
