Scale_setup.started,Scale_setup.stopped,participant,session,sex,age,date,expName,psychopyVersion,OS,frameRate,Intro.started,Intro.stopped,key_resp_2.keys,key_resp_2.rt,key_resp_2.duration,block.started,direction,Block_id,block.stopped,trial_direction,Block_resp_2.keys,Block_resp_2.rt,Block_resp_2.duration,ITI.started,ITI.stopped,Mask_2.started,Mask_2.stopped,encoding.started,encoding.stopped,Cue.started,Cue.stopped,Response.started,Response.stopped,keyDuration,Feedback_Time.started,FeedbackID_T,Feedback_Time.stopped,trials.thisRepN,trials.thisTrialN,trials.thisN,trials.thisIndex,trials.ran,TimeDur,Coherence1,TrialType
0.00019999999926767487,0.00040000000038276085,657789,001,男,20,2025-06-03_22h06.52.295,Serial_Dependence_U,2023.2.3,Win32,60.240963855400565,,,,,,,,,,,,,,,,,,,,,,,,,,,,,,,,,,,
,,657789,001,男,20,2025-06-03_22h06.52.295,Serial_Dependence_U,2023.2.3,Win32,60.240963855400565,150.73680000000073,205.49230000000077,space,54.715799999998865,,,,,,,,,,,,,,,,,,,,,,,,,,,,,,,
,,657789,001,男,20,2025-06-03_22h06.52.295,Serial_Dependence_U,2023.2.3,Win32,60.240963855400565,,,,,,205.50119999999927,303,0,217.31169999999926,303,s,11.793999999999983,,221.30830000000074,221.80719999999926,220.79240000000036,221.3079000000004,218.32530000000074,220.79209999999964,221.80769999999924,222.31109999999964,222.31130000000073,229.12890000000036,2708,229.12909999999962,5,230.12390000000036,0,0,0,23,1,1.4,0.3,Time
,,657789,001,男,20,2025-06-03_22h06.52.295,Serial_Dependence_U,2023.2.3,Win32,60.240963855400565,,,,,,230.12480000000076,265,0,230.126,265,,,,233.86249999999998,234.3565,233.36050000000003,233.86249999999998,231.12909999999962,233.3604000000004,234.35669999999928,234.85859999999965,234.85859999999965,237.09490000000037,1878,237.09490000000037,5,238.09469999999928,0,1,1,27,1,1.2,0.7,Time
,,657789,001,男,20,2025-06-03_22h06.52.295,Serial_Dependence_U,2023.2.3,Win32,60.240963855400565,,,,,,238.095,43,0,238.09509999999963,43,,,,241.65969999999928,242.16019999999926,241.14459999999966,241.65959999999964,239.095,241.14450000000002,242.16019999999926,242.66190000000037,242.66190000000037,246.00619999999927,2938,246.00640000000035,5,247.006,0,2,2,26,1,1,0.7,Time
,,657789,001,男,20,2025-06-03_22h06.52.295,Serial_Dependence_U,2023.2.3,Win32,60.240963855400565,,,,,,247.0069000000004,44,0,247.00719999999924,44,,,,250.9565999999996,251.45569999999927,250.44430000000077,250.95630000000077,248.01119999999926,250.44419999999926,251.45580000000078,251.95959999999965,251.9596999999993,252.49369999999928,99,252.49369999999928,1,253.489,0,3,3,8,1,1.4,0.7,Time
,,657789,001,男,20,2025-06-03_22h06.52.295,Serial_Dependence_U,2023.2.3,Win32,60.240963855400565,,,,,,253.49000000000004,14,0,253.4904000000004,14,,,,257.6940999999996,258.1885999999996,257.17759999999964,257.69399999999996,254.51059999999964,257.17759999999964,258.1888000000008,258.6885,258.68869999999924,260.12750000000005,1017,260.12750000000005,1,261.1229000000003,0,4,4,4,1,1.6,0.3,Time
,,657789,001,男,20,2025-06-03_22h06.52.295,Serial_Dependence_U,2023.2.3,Win32,60.240963855400565,,,,,,261.12409999999966,109,0,261.1245,109,,,,265.0894000000004,265.58849999999995,264.57740000000035,265.0890999999996,262.13930000000073,264.5773000000007,265.5885999999996,266.0930999999996,266.0930999999996,267.9586999999992,1382,267.9588000000007,3,268.95949999999993,0,5,5,18,1,1.4,0.7,Time
,,657789,001,男,20,2025-06-03_22h06.52.295,Serial_Dependence_U,2023.2.3,Win32,60.240963855400565,,,,,,268.95980000000077,185,0,268.9599000000004,185,,,,272.7434000000004,273.23799999999994,272.2225999999996,272.7434000000004,269.95959999999957,272.2223000000007,273.2380999999996,273.7375999999996,273.7378000000007,274.94340000000034,861,274.9435,2,275.93790000000035,0,6,6,22,1,1.2,0.3,Time
,,657789,001,男,20,2025-06-03_22h06.52.295,Serial_Dependence_U,2023.2.3,Win32,60.240963855400565,,,,,,275.93869999999924,232,0,275.9390999999996,232,,,,279.74280000000067,280.2375999999996,279.22249999999997,279.74280000000067,276.9594000000003,279.2220999999996,280.2378000000007,280.74030000000073,280.74040000000036,282.3098000000008,1242,282.3099000000004,3,283.30919999999935,0,7,7,2,1,1.2,0.3,Time
,,657789,001,男,20,2025-06-03_22h06.52.295,Serial_Dependence_U,2023.2.3,Win32,60.240963855400565,,,,,,283.3095999999997,255,0,283.30969999999934,255,,,,286.6713000000009,287.1708000000009,286.1598000000008,286.6710999999997,284.30940000000044,286.15969999999936,287.1708000000009,287.6755999999997,287.6755999999997,289.0090000000001,1013,289.0090000000001,4,290.0039000000005,0,8,8,25,1,0.8,0.7,Time
,,657789,001,男,20,2025-06-03_22h06.52.295,Serial_Dependence_U,2023.2.3,Win32,60.240963855400565,,,,,,290.0050000000001,285,0,290.0051999999994,285,,,,293.55859999999973,294.05369999999937,293.0424000000005,293.5585000000001,291.00930000000085,293.04230000000086,294.0538000000008,294.55340000000047,294.55369999999937,296.1424000000005,1234,296.14250000000004,4,297.1419000000004,0,9,9,6,1,1,0.7,Time
,,657789,001,男,20,2025-06-03_22h06.52.295,Serial_Dependence_U,2023.2.3,Win32,60.240963855400565,,,,,,297.1421999999993,275,0,297.1424000000005,275,,,,300.5253000000008,301.02409999999975,300.00459999999975,300.52519999999936,298.14009999999973,300.00430000000085,301.02409999999975,301.5236999999994,301.5236999999994,302.70840000000044,811,302.7085000000001,3,303.7083000000008,0,10,10,20,1,0.8,0.3,Time
,,657789,001,男,20,2025-06-03_22h06.52.295,Serial_Dependence_U,2023.2.3,Win32,60.240963855400565,,,,,,303.70869999999934,318,0,303.7089000000004,318,,,,307.47350000000006,307.9695999999997,306.9583000000008,307.4734000000004,304.7090999999997,306.95819999999935,307.9696999999993,308.4694000000005,308.4695999999997,310.0920000000001,1256,310.0920000000001,3,311.0915000000001,0,11,11,17,1,1.2,0.7,Time
,,657789,001,男,20,2025-06-03_22h06.52.295,Serial_Dependence_U,2023.2.3,Win32,60.240963855400565,,,,,,311.09180000000083,264,0,311.0920000000001,264,,,,315.2581999999993,315.75219999999933,314.7420000000001,315.2581999999993,312.09240000000045,314.7418000000008,315.7524000000004,316.2530999999997,316.2531999999993,318.1745000000001,1585,318.1745999999997,3,319.16909999999973,0,12,12,29,1,1.6,0.7,Time
,,657789,001,男,20,2025-06-03_22h06.52.295,Serial_Dependence_U,2023.2.3,Win32,60.240963855400565,,,,,,319.16990000000044,167,0,319.1703000000008,167,,,,322.5531999999994,323.05280000000084,322.0415999999997,322.5530000000001,320.17440000000045,322.04150000000004,323.0529000000005,323.5524000000005,323.5525000000001,325.02440000000047,1117,325.02440000000047,5,326.0186999999994,0,13,13,0,1,0.8,0.3,Time
,,657789,001,男,20,2025-06-03_22h06.52.295,Serial_Dependence_U,2023.2.3,Win32,60.240963855400565,,,,,,326.0198000000008,125,0,326.02009999999973,125,,,,330.0250000000001,330.5189000000005,329.50300000000004,330.02490000000046,327.03909999999973,329.5028000000009,330.5189000000005,331.0184000000005,331.01859999999976,332.4084000000005,1049,332.4085000000001,2,333.4016999999993,0,14,14,13,1,1.4,0.3,Time
,,657789,001,男,20,2025-06-03_22h06.52.295,Serial_Dependence_U,2023.2.3,Win32,60.240963855400565,,,,,,333.40300000000013,121,0,333.4031999999994,121,,,,336.9564000000005,337.45240000000047,336.45269999999937,336.9564000000005,334.4193000000008,336.45240000000047,337.4525000000001,337.9514000000005,337.95159999999976,339.54050000000007,1250,339.54050000000007,4,340.53919999999937,0,15,15,16,1,1,0.7,Time
,,657789,001,男,20,2025-06-03_22h06.52.295,Serial_Dependence_U,2023.2.3,Win32,60.240963855400565,,,,,,340.53969999999936,281,0,340.53990000000044,281,,,,344.54019999999934,345.03859999999975,344.0240000000001,344.5400999999997,341.5561999999993,344.02380000000085,345.0386999999994,345.5341999999994,345.53440000000046,346.96790000000044,1117,346.9680000000001,2,347.97240000000045,0,16,16,3,1,1.4,0.3,Time
,,657789,001,男,20,2025-06-03_22h06.52.295,Serial_Dependence_U,2023.2.3,Win32,60.240963855400565,,,,,,347.9725999999997,260,0,347.9728000000008,260,,,,351.5564000000005,352.0508000000009,351.03490000000045,351.5564000000005,348.97290000000044,351.03469999999936,352.05100000000004,352.55100000000004,352.5510999999997,354.06780000000083,1187,354.06780000000083,4,355.06759999999974,0,17,17,21,1,1,0.3,Time
,,657789,001,男,20,2025-06-03_22h06.52.295,Serial_Dependence_U,2023.2.3,Win32,60.240963855400565,,,,,,355.06840000000045,242,0,355.0685999999997,242,,,,358.47240000000045,358.9675000000001,357.9515000000001,358.47240000000045,356.0894000000005,357.95109999999977,358.9675999999997,359.46790000000044,359.4680000000001,360.3726999999993,533,360.3726999999993,1,361.3673000000008,0,18,18,10,1,0.8,0.3,Time
,,657789,001,男,20,2025-06-03_22h06.52.295,Serial_Dependence_U,2023.2.3,Win32,60.240963855400565,,,,,,361.3680999999997,14,0,361.3683000000009,14,,,,365.53909999999973,366.03750000000014,365.0350000000001,365.5390000000001,362.37030000000084,365.03469999999936,366.03750000000014,366.5379000000005,366.5379000000005,368.25619999999935,1417,368.2563000000008,2,369.2499000000005,0,19,19,24,1,1.6,0.3,Time
,,657789,001,男,20,2025-06-03_22h06.52.295,Serial_Dependence_U,2023.2.3,Win32,60.240963855400565,,,,,,369.2510000000001,60,0,369.25119999999936,60,,,,373.2006999999993,373.70390000000043,372.6888000000008,373.2004000000005,370.2551999999994,372.68869999999936,373.70390000000043,374.2000999999997,374.2000999999997,375.51669999999933,1003,375.5169000000004,2,376.5046999999994,0,20,20,28,1,1.4,0.7,Time
,,657789,001,男,20,2025-06-03_22h06.52.295,Serial_Dependence_U,2023.2.3,Win32,60.240963855400565,,,,,,376.5050000000001,111,0,376.5051999999994,111,,,,380.0835999999997,380.58719999999937,379.5714000000005,380.08340000000044,377.5034000000005,379.57130000000086,380.58719999999937,381.08340000000044,381.0835999999997,382.4220999999998,951,382.4221999999994,3,383.4161999999993,0,21,21,1,1,1,0.3,Time
,,657789,001,男,20,2025-06-03_22h06.52.295,Serial_Dependence_U,2023.2.3,Win32,60.240963855400565,,,,,,383.4170999999998,104,0,383.41730000000086,104,,,,386.7673000000009,387.26650000000006,386.2545000000001,386.76700000000005,384.4213000000009,386.2545000000001,387.2665999999997,387.76990000000046,387.76990000000046,389.24959999999976,1123,389.24980000000085,5,390.25380000000087,0,22,22,15,1,0.8,0.7,Time
,,657789,001,男,20,2025-06-03_22h06.52.295,Serial_Dependence_U,2023.2.3,Win32,60.240963855400565,,,,,,390.25409999999977,247,0,390.2541999999994,247,,,,393.8378000000008,394.33240000000046,393.33369999999934,393.83769999999936,391.26700000000005,393.33340000000044,394.33259999999973,394.8321999999994,394.83240000000046,396.3360000000001,1194,396.3360000000001,4,397.3325000000001,0,23,23,11,1,1,0.3,Time
,,657789,001,男,20,2025-06-03_22h06.52.295,Serial_Dependence_U,2023.2.3,Win32,60.240963855400565,,,,,,397.3335999999997,243,0,397.3338000000008,243,,,,401.53750000000014,402.0320999999997,401.0160000000001,401.5374000000005,398.3538000000009,401.0158000000008,402.0321999999993,402.53569999999934,402.53569999999934,404.10400000000004,1229,404.10400000000004,2,405.10319999999933,0,24,24,14,1,1.6,0.3,Time
,,657789,001,男,20,2025-06-03_22h06.52.295,Serial_Dependence_U,2023.2.3,Win32,60.240963855400565,,,,,,405.1034000000004,173,0,405.10350000000005,173,,,,408.88250000000005,409.3815000000001,408.3706999999994,408.88219999999933,406.1036999999993,408.37059999999974,409.38169999999934,409.8815999999997,409.8818000000008,411.53709999999967,1333,411.53709999999967,4,412.5315999999997,0,25,25,12,1,1.2,0.3,Time
,,657789,001,男,20,2025-06-03_22h06.52.295,Serial_Dependence_U,2023.2.3,Win32,60.240963855400565,,,,,,412.5326999999993,173,0,412.5331999999994,173,,,,416.30309999999974,416.7979000000005,415.7863000000009,416.30309999999974,413.55340000000047,415.7863000000009,416.79809999999975,417.29809999999975,417.2981999999994,418.9035000000001,1300,418.9035000000001,4,419.8980999999998,0,26,26,7,1,1.2,0.7,Time
,,657789,001,男,20,2025-06-03_22h06.52.295,Serial_Dependence_U,2023.2.3,Win32,60.240963855400565,,,,,,419.8990000000001,132,0,419.89930000000084,132,,,,424.0694000000004,424.56869999999935,423.5526999999994,424.0693000000008,420.9029000000005,423.55259999999976,424.56869999999935,425.0638000000008,425.0640000000001,427.0530000000001,1676,427.05309999999974,3,428.04759999999976,0,27,27,19,1,1.6,0.7,Time
,,657789,001,男,20,2025-06-03_22h06.52.295,Serial_Dependence_U,2023.2.3,Win32,60.240963855400565,,,,,,428.0488000000008,38,0,428.0490999999997,38,,,,431.4355999999997,431.93050000000005,430.9195000000001,431.43550000000005,429.06759999999974,430.91940000000045,431.9305999999997,432.4306999999993,432.4309000000005,434.03569999999934,1300,434.0358000000008,5,435.03069999999934,0,28,28,5,1,0.8,0.7,Time
,,657789,001,男,20,2025-06-03_22h06.52.295,Serial_Dependence_U,2023.2.3,Win32,60.240963855400565,,,,,,435.0315999999997,113,0,435.0319000000005,113,,,,439.2148000000009,439.71350000000007,438.70230000000083,439.21450000000004,436.0524000000005,438.7021999999994,439.71350000000007,440.2133000000008,440.21350000000007,442.3855999999997,1850,442.3855999999997,4,443.3800000000001,0,29,29,9,1,1.6,0.7,Time
,,657789,001,男,20,2025-06-03_22h06.52.295,Serial_Dependence_U,2023.2.3,Win32,60.240963855400565,,,,,,443.38090000000045,235,1,448.78469999999936,235,s,5.371700000001169,,452.13059999999973,452.6341999999994,451.61850000000004,452.13030000000083,449.7850999999997,451.6184000000005,452.6341999999994,453.13409999999976,453.13409999999976,454.2015000000001,811,454.2015000000001,3,454.2065000000001,1,0,30,15,1,0.8,0.7,Time
,,657789,001,男,20,2025-06-03_22h06.52.295,Serial_Dependence_U,2023.2.3,Win32,60.240963855400565,,,,,,454.2066999999994,42,1,454.20759999999973,42,,,,458.1803000000008,458.6793000000008,457.6690000000001,458.18000000000006,455.1996999999993,457.6690000000001,458.67940000000044,459.1795000000001,459.1795999999997,460.5514000000005,1184,460.55150000000015,2,460.5563000000009,1,1,31,23,1,1.4,0.3,Time
,,657789,001,男,20,2025-06-03_22h06.52.295,Serial_Dependence_U,2023.2.3,Win32,60.240963855400565,,,,,,460.5565999999998,38,1,460.5565999999998,38,,,,464.1345000000001,464.62900000000013,463.6178000000008,464.1344000000005,461.5513000000009,463.6178000000008,464.6291999999994,465.12930000000085,465.1294000000005,466.2015000000001,878,466.2015000000001,2,466.20680000000084,1,2,32,1,1,1,0.3,Time
,,657789,001,男,20,2025-06-03_22h06.52.295,Serial_Dependence_U,2023.2.3,Win32,60.240963855400565,,,,,,466.2069000000005,78,1,466.2069000000005,78,,,,470.3844000000005,470.8829000000005,469.86740000000043,470.38430000000085,467.2009000000005,469.8673000000008,470.8829000000005,471.3826999999993,471.3826999999993,472.0625000000001,205,472.0626999999994,1,472.0685000000001,1,3,33,4,1,1.6,0.3,Time
,,657789,001,男,20,2025-06-03_22h06.52.295,Serial_Dependence_U,2023.2.3,Win32,60.240963855400565,,,,,,472.06869999999935,30,1,472.06869999999935,30,,,,476.2339000000005,476.7325000000001,475.71680000000083,476.2338000000009,473.0656999999993,475.71680000000083,476.7325000000001,477.2286999999993,477.2286999999993,479.20059999999967,1600,479.2006999999993,3,479.20609999999976,1,4,34,19,1,1.6,0.7,Time
,,657789,001,男,20,2025-06-03_22h06.52.295,Serial_Dependence_U,2023.2.3,Win32,60.240963855400565,,,,,,479.2061999999994,210,1,479.2064000000005,210,,,,482.6004000000005,483.0994000000005,482.0840999999997,482.6001999999994,480.2170000000001,482.08400000000006,483.0994000000005,483.59450000000004,483.5946999999993,485.36140000000046,1473,485.3615999999997,5,485.36669999999935,1,5,35,0,1,0.8,0.3,Time
,,657789,001,男,20,2025-06-03_22h06.52.295,Serial_Dependence_U,2023.2.3,Win32,60.240963855400565,,,,,,485.3670000000001,207,1,485.3670000000001,207,,,,489.3665999999997,489.86509999999976,488.84530000000086,489.3665999999997,486.3818000000008,488.8450999999998,489.86509999999976,490.36119999999937,490.36140000000046,492.35030000000086,1618,492.35030000000086,4,492.35530000000085,1,6,36,3,1,1.4,0.3,Time
,,657789,001,男,20,2025-06-03_22h06.52.295,Serial_Dependence_U,2023.2.3,Win32,60.240963855400565,,,,,,492.3555000000001,204,1,492.35559999999975,204,,,,496.54550000000006,497.04840000000047,496.03280000000086,496.54519999999934,493.36240000000043,496.0326999999993,497.04840000000047,497.54440000000045,497.5445000000001,499.4498000000009,1600,499.4499000000004,3,499.4550999999997,1,7,37,24,1,1.6,0.3,Time
,,657789,001,男,20,2025-06-03_22h06.52.295,Serial_Dependence_U,2023.2.3,Win32,60.240963855400565,,,,,,499.4553000000009,202,1,499.4553000000009,202,,,,503.00009999999975,503.4938000000009,502.48269999999934,502.9999000000005,500.44759999999974,502.4825999999997,503.4939000000005,503.9979000000004,503.99800000000005,505.6829000000005,1350,505.6829000000005,5,505.6883000000008,1,8,38,6,1,1,0.7,Time
,,657789,001,男,20,2025-06-03_22h06.52.295,Serial_Dependence_U,2023.2.3,Win32,60.240963855400565,,,,,,505.6885000000001,57,1,505.6885000000001,57,,,,509.46050000000014,509.9604000000005,508.94919999999934,509.46030000000087,506.6826999999994,508.94919999999934,509.96050000000014,510.4640999999997,510.4641999999993,511.5994000000005,859,511.59950000000015,2,511.60450000000014,1,9,39,2,1,1.2,0.3,Time
,,657789,001,男,20,2025-06-03_22h06.52.295,Serial_Dependence_U,2023.2.3,Win32,60.240963855400565,,,,,,511.6045999999998,299,1,511.60480000000086,299,,,,514.9783000000008,515.4765999999997,514.4654000000005,514.9779000000004,512.6156999999994,514.4654000000005,515.4768000000008,515.9764000000005,515.9765000000001,517.3661999999994,1100,517.3661999999994,5,517.3715000000001,1,10,40,5,1,0.8,0.7,Time
,,657789,001,男,20,2025-06-03_22h06.52.295,Serial_Dependence_U,2023.2.3,Win32,60.240963855400565,,,,,,517.3716999999994,255,1,517.3718000000008,255,,,,521.3106999999993,521.8095000000001,520.7983000000008,521.3105,518.3651999999994,520.7981999999994,521.8095999999997,522.3139000000004,522.3139000000004,524.0150000000001,1381,524.0150000000001,3,524.0200000000001,1,11,41,28,1,1.4,0.7,Time
,,657789,001,男,20,2025-06-03_22h06.52.295,Serial_Dependence_U,2023.2.3,Win32,60.240963855400565,,,,,,524.0200999999997,161,1,524.0201999999994,161,,,,527.3773000000008,527.8806999999994,526.8646999999994,527.3770000000001,525.0150000000001,526.8646999999994,527.8806999999994,528.3801999999994,528.3801999999994,529.4480999999997,785,529.4480999999997,3,529.4530999999997,1,12,42,25,1,0.8,0.7,Time
,,657789,001,男,20,2025-06-03_22h06.52.295,Serial_Dependence_U,2023.2.3,Win32,60.240963855400565,,,,,,529.4533000000008,123,1,529.4533000000008,123,,,,533.2143000000009,533.7093000000009,532.6979000000005,533.2141999999993,530.4644000000005,532.6978000000008,533.7094000000004,534.2090000000001,534.2091999999993,535.6478000000009,1207,535.6479000000005,3,535.6526999999993,1,13,43,17,1,1.2,0.7,Time
,,657789,001,男,20,2025-06-03_22h06.52.295,Serial_Dependence_U,2023.2.3,Win32,60.240963855400565,,,,,,535.6529000000005,27,1,535.6529000000005,27,,,,539.4093000000008,539.9085999999998,538.8975999999997,539.4091999999994,536.6600000000001,538.8975999999997,539.9086999999994,540.4088000000008,540.4090999999997,542.1806999999993,1452,542.1806999999993,4,542.1856999999993,1,14,44,7,1,1.2,0.7,Time
,,657789,001,男,20,2025-06-03_22h06.52.295,Serial_Dependence_U,2023.2.3,Win32,60.240963855400565,,,,,,542.1858000000009,209,1,542.1859000000005,209,,,,546.1428000000009,546.6416999999993,545.6310000000001,546.1425999999997,543.1974000000005,545.6309000000005,546.6418000000008,547.1420999999997,547.1421999999993,548.6418000000008,1168,548.642,2,548.6474000000005,1,15,45,18,1,1.4,0.7,Time
,,657789,001,男,20,2025-06-03_22h06.52.295,Serial_Dependence_U,2023.2.3,Win32,60.240963855400565,,,,,,548.6475000000002,39,1,548.6475999999997,39,,,,552.0430000000001,552.5415,551.5305000000001,552.0426999999994,549.6640000000001,551.5304000000004,552.5416999999993,553.0411999999993,553.0414000000005,554.3584000000004,967,554.3586999999993,4,554.3643000000009,1,16,46,20,1,0.8,0.3,Time
,,657789,001,男,20,2025-06-03_22h06.52.295,Serial_Dependence_U,2023.2.3,Win32,60.240963855400565,,,,,,554.3644000000005,328,1,554.3645000000001,328,,,,558.5294000000005,559.0248000000008,558.0135999999998,558.5293000000008,555.3619000000004,558.0135000000001,559.0249000000005,559.5248000000008,559.5249000000005,561.3083000000008,1460,561.3085000000001,2,561.3139000000004,1,17,47,9,1,1.6,0.7,Time
,,657789,001,男,20,2025-06-03_22h06.52.295,Serial_Dependence_U,2023.2.3,Win32,60.240963855400565,,,,,,561.3140000000001,196,1,561.3141999999993,196,,,,565.4924000000004,565.9913000000008,564.9796999999993,565.4921999999993,562.3140000000001,564.9795999999998,565.9913000000008,566.4950999999998,566.4950999999998,567.9634000000004,1250,567.9635000000001,2,567.9693000000009,1,18,48,14,1,1.6,0.3,Time
,,657789,001,男,20,2025-06-03_22h06.52.295,Serial_Dependence_U,2023.2.3,Win32,60.240963855400565,,,,,,567.9694000000005,94,1,567.9695,94,,,,571.5251999999994,572.0241999999994,571.0126999999993,571.5249000000005,568.9750000000001,571.0125999999997,572.0241999999994,572.5239000000005,572.5241999999994,574.0463000000009,1233,574.0463000000009,4,574.0519000000005,1,19,49,26,1,1,0.7,Time
,,657789,001,男,20,2025-06-03_22h06.52.295,Serial_Dependence_U,2023.2.3,Win32,60.240963855400565,,,,,,574.0520999999998,45,1,574.0520999999998,45,,,,578.0453000000008,578.5404000000004,577.5245000000001,578.0451999999993,575.0623000000008,577.5243000000008,578.5405000000001,579.0405000000001,579.0405999999997,580.5289000000005,1183,580.5290000000001,2,580.5339000000005,1,20,50,13,1,1.4,0.3,Time
,,657789,001,男,20,2025-06-03_22h06.52.295,Serial_Dependence_U,2023.2.3,Win32,60.240963855400565,,,,,,580.5340999999997,36,1,580.5340999999997,36,,,,584.4739000000004,584.9736999999993,583.9624000000005,584.4735999999997,581.5285000000001,583.9623000000008,584.9738000000009,585.4734000000004,585.4735999999997,586.9955000000001,1244,586.9955000000001,2,587.0005000000001,1,21,51,8,1,1.4,0.7,Time
,,657789,001,男,20,2025-06-03_22h06.52.295,Serial_Dependence_U,2023.2.3,Win32,60.240963855400565,,,,,,587.0006999999994,94,1,587.0006999999994,94,,,,590.7740999999997,591.2731999999994,590.2620000000001,590.7738000000008,587.9955000000001,590.2619000000004,591.2733000000009,591.7731999999994,591.7733000000009,593.2951999999993,1200,593.2951999999993,3,593.3009000000005,1,22,52,22,1,1.2,0.3,Time
,,657789,001,男,20,2025-06-03_22h06.52.295,Serial_Dependence_U,2023.2.3,Win32,60.240963855400565,,,,,,593.301,329,1,593.3010999999997,329,,,,596.8738000000009,597.3728000000009,596.3571999999994,596.8735999999997,594.2954000000004,596.3570000000001,597.3729000000004,597.873,597.8731999999993,599.5794000000004,1317,599.5795,5,599.5845999999997,1,23,53,21,1,1,0.3,Time
,,657789,001,男,20,2025-06-03_22h06.52.295,Serial_Dependence_U,2023.2.3,Win32,60.240963855400565,,,,,,599.5846999999993,256,1,599.5846999999993,256,,,,603.1235000000001,603.6228000000009,602.6113000000008,603.1231999999993,600.5761999999994,602.6113000000008,603.6229000000004,604.1228000000009,604.123,606.3445999999997,1883,606.3445999999997,5,606.3501999999994,1,24,54,16,1,1,0.7,Time
,,657789,001,男,20,2025-06-03_22h06.52.295,Serial_Dependence_U,2023.2.3,Win32,60.240963855400565,,,,,,606.3505000000001,331,1,606.3505000000001,331,,,,609.7279000000004,610.2224000000004,609.2234000000004,609.7279000000004,607.3610000000001,609.2230999999997,610.2225999999997,610.7221999999994,610.7223000000008,612.7765999999997,1732,612.7765999999997,5,612.7818000000009,1,25,55,10,1,0.8,0.3,Time
,,657789,001,男,20,2025-06-03_22h06.52.295,Serial_Dependence_U,2023.2.3,Win32,60.240963855400565,,,,,,612.782,25,1,612.7821999999993,25,,,,616.9440000000001,617.4430999999997,616.4275000000001,616.9440000000001,613.7894000000005,616.4274000000005,617.4430999999997,617.9386999999994,617.9388000000008,620.4606999999994,2200,620.4606999999994,5,620.4661999999994,1,26,56,29,1,1.6,0.7,Time
,,657789,001,男,20,2025-06-03_22h06.52.295,Serial_Dependence_U,2023.2.3,Win32,60.240963855400565,,,,,,620.4664000000005,163,1,620.4664000000005,163,,,,624.0556999999993,624.5579000000005,623.5439000000005,624.0554000000004,621.4750000000001,623.5438000000008,624.5579000000005,625.0551999999993,625.0551999999993,627.8606999999994,2467,627.8606999999994,5,627.8655999999997,1,27,57,11,1,1,0.3,Time
,,657789,001,男,20,2025-06-03_22h06.52.295,Serial_Dependence_U,2023.2.3,Win32,60.240963855400565,,,,,,627.8658000000008,12,1,627.8659000000005,12,,,,631.6265000000001,632.1260000000001,631.1100000000001,631.6264000000004,628.8604000000005,631.1100000000001,632.1260000000001,632.6211999999994,632.6214000000004,634.7769000000005,1800,634.7769000000005,5,634.7825999999998,1,28,58,27,1,1.2,0.7,Time
,,657789,001,男,20,2025-06-03_22h06.52.295,Serial_Dependence_U,2023.2.3,Win32,60.240963855400565,,,,,,634.7826999999993,197,1,634.7828000000009,197,,,,638.5766999999994,639.0709000000005,638.0555,638.5765999999998,635.7929000000005,638.0551999999993,639.0710000000001,639.5751999999993,639.5751999999993,641.5765999999998,1650,641.5765999999998,5,641.5815000000001,1,29,59,12,1,1.2,0.3,Time
,,657789,001,男,20,2025-06-03_22h06.52.295,Serial_Dependence_U,2023.2.3,Win32,60.240963855400565,,,,,,641.5816999999994,356,2,644.9759000000005,356,s,3.376699999999232,,648.9430000000001,649.4368000000009,648.4244000000004,648.9430000000001,645.9908000000008,648.4244000000004,649.4369000000005,649.9415000000001,649.9415999999998,651.7095999999997,1550,651.7095999999997,4,651.7145,2,0,60,18,1,1.4,0.7,Time
,,657789,001,男,20,2025-06-03_22h06.52.295,Serial_Dependence_U,2023.2.3,Win32,60.240963855400565,,,,,,651.7145999999997,71,2,651.7151999999993,71,,,,655.8754000000005,656.3699000000005,655.3589000000005,655.8754000000005,652.7255999999998,655.3589000000005,656.3701999999994,656.8701999999994,656.8703000000008,658.7703000000008,1769,658.7703000000008,4,658.7761999999993,2,1,61,9,1,1.6,0.7,Time
,,657789,001,男,20,2025-06-03_22h06.52.295,Serial_Dependence_U,2023.2.3,Win32,60.240963855400565,,,,,,658.7765,330,2,658.7765,330,,,,662.9375000000001,663.4368000000009,662.4254000000004,662.9373000000008,659.7759000000004,662.4253000000008,663.4368000000009,663.9364000000005,663.9366999999994,666.4928000000008,2267,666.4928000000008,5,666.4984000000005,2,2,62,19,1,1.6,0.7,Time
,,657789,001,男,20,2025-06-03_22h06.52.295,Serial_Dependence_U,2023.2.3,Win32,60.240963855400565,,,,,,666.4985000000001,14,2,666.4986999999993,14,,,,669.9083000000008,670.4025999999998,669.3913000000008,669.9081999999994,667.5250999999997,669.3911999999993,670.4026999999993,670.9030999999998,670.9033000000009,672.9083000000008,1678,672.9083000000008,5,672.9131999999994,2,3,63,20,1,0.8,0.3,Time
,,657789,001,男,20,2025-06-03_22h06.52.295,Serial_Dependence_U,2023.2.3,Win32,60.240963855400565,,,,,,672.9134000000005,56,2,672.9135000000001,56,,,,676.4700999999998,676.9735000000001,675.9585000000001,676.4698000000009,673.9076999999993,675.9585000000001,676.9735999999997,677.4690999999997,677.4693000000009,680.5418000000009,2789,680.5418000000009,5,680.5470999999998,2,4,64,16,1,1,0.7,Time
,,657789,001,男,20,2025-06-03_22h06.52.295,Serial_Dependence_U,2023.2.3,Win32,60.240963855400565,,,,,,680.5473000000009,220,2,680.5474000000005,220,,,,684.0868000000008,684.5851999999993,683.5741999999993,684.0865000000001,681.5404000000004,683.5741999999993,684.5854000000005,685.0894000000005,685.0894000000005,688.0243000000008,2683,688.0243000000008,5,688.0295999999997,2,5,65,26,1,1,0.7,Time
,,657789,001,男,20,2025-06-03_22h06.52.295,Serial_Dependence_U,2023.2.3,Win32,60.240963855400565,,,,,,688.0295999999997,192,2,688.0298000000008,192,,,,692.2239000000004,692.724,691.7073000000008,692.2238000000009,689.0400000000001,691.7070999999997,692.724,693.2225999999997,693.2226999999993,695.9075000000001,2485,695.9075999999998,5,695.9131999999994,2,6,66,24,1,1.6,0.3,Time
,,657789,001,男,20,2025-06-03_22h06.52.295,Serial_Dependence_U,2023.2.3,Win32,60.240963855400565,,,,,,695.9134000000005,340,2,695.9135000000001,340,,,,699.4529000000005,699.9515999999998,698.9404000000005,699.4526999999994,696.9075999999998,698.9403000000009,699.9519000000005,700.4515000000001,700.4515999999998,703.1904000000005,2500,703.1904000000005,5,703.1960999999998,2,7,67,6,1,1,0.7,Time
,,657789,001,男,20,2025-06-03_22h06.52.295,Serial_Dependence_U,2023.2.3,Win32,60.240963855400565,,,,,,703.1961999999993,351,2,703.1963000000009,351,,,,706.9718000000008,707.4680000000001,706.4561999999994,706.9716999999994,704.1904000000005,706.4560999999998,707.4680999999997,707.9678000000008,707.9680000000001,710.4908000000008,2252,710.4908000000008,5,710.4963000000008,2,8,68,12,1,1.2,0.3,Time
,,657789,001,男,20,2025-06-03_22h06.52.295,Serial_Dependence_U,2023.2.3,Win32,60.240963855400565,,,,,,710.4964000000004,67,2,710.4965000000001,67,,,,713.8735000000001,714.3675999999997,713.3545000000001,713.8735000000001,711.4900999999998,713.3545000000001,714.3676999999993,714.8714000000004,714.8715999999997,717.0231999999994,1852,717.0233000000009,5,717.0280000000001,2,9,69,0,1,0.8,0.3,Time
,,657789,001,男,20,2025-06-03_22h06.52.295,Serial_Dependence_U,2023.2.3,Win32,60.240963855400565,,,,,,717.0281999999994,126,2,717.0281999999994,126,,,,721.1894000000004,721.6840000000001,720.6845999999997,721.1891999999993,718.0226999999993,720.6845000000001,721.6840999999997,722.1840999999997,722.1841999999994,724.4894000000005,1950,724.4895000000001,4,724.4946999999994,2,10,70,4,1,1.6,0.3,Time
,,657789,001,男,20,2025-06-03_22h06.52.295,Serial_Dependence_U,2023.2.3,Win32,60.240963855400565,,,,,,724.4948000000009,286,2,724.4949000000005,286,,,,728.0721999999994,728.5666999999994,727.5675999999997,728.0720999999998,725.5054000000005,727.5675000000001,728.5669000000005,729.0671999999994,729.0675000000001,731.6893000000008,2367,731.6893000000008,5,731.6945999999997,2,11,71,1,1,1,0.3,Time
,,657789,001,男,20,2025-06-03_22h06.52.295,Serial_Dependence_U,2023.2.3,Win32,60.240963855400565,,,,,,731.6948000000009,229,2,731.6949000000004,229,,,,735.6883000000008,736.1834000000005,735.1720000000001,735.6880999999997,732.7055000000001,735.1720000000001,736.1835000000001,736.6833000000008,736.6833000000008,739.0720999999998,2211,739.0720999999998,5,739.0780999999997,2,12,72,3,1,1.4,0.3,Time
,,657789,001,男,20,2025-06-03_22h06.52.295,Serial_Dependence_U,2023.2.3,Win32,60.240963855400565,,,,,,739.0783000000008,357,2,739.0784000000004,357,,,,742.8338000000008,743.3329000000004,742.3213000000009,742.8336999999993,740.0840000000001,742.3211999999993,743.3330000000001,743.8351999999993,743.8353000000009,746.1883000000008,2117,746.1884000000005,5,746.1934000000005,2,13,73,7,1,1.2,0.7,Time
,,657789,001,男,20,2025-06-03_22h06.52.295,Serial_Dependence_U,2023.2.3,Win32,60.240963855400565,,,,,,746.1935000000001,27,2,746.1935999999997,27,,,,749.5501999999993,750.0490000000001,749.0374000000005,749.5500999999997,747.2045,749.0373000000009,750.0490999999997,750.5493000000008,750.5495000000001,752.3159000000005,1601,752.3160999999998,5,752.3216999999994,2,14,74,25,1,0.8,0.7,Time
,,657789,001,男,20,2025-06-03_22h06.52.295,Serial_Dependence_U,2023.2.3,Win32,60.240963855400565,,,,,,752.3218000000008,75,2,752.3219000000005,75,,,,755.6661999999993,756.1538000000008,755.1540000000001,755.666,753.3213000000009,755.1539000000005,756.1538000000008,756.6490999999997,756.6493000000008,758.9383000000008,1826,758.9383000000008,5,758.9436999999994,2,15,75,5,1,0.8,0.7,Time
,,657789,001,男,20,2025-06-03_22h06.52.295,Serial_Dependence_U,2023.2.3,Win32,60.240963855400565,,,,,,758.9439000000004,215,2,758.9440000000001,215,,,,762.5375000000001,763.0318000000009,762.0211999999993,762.5374000000005,759.9540999999997,762.0210999999997,763.0319000000005,763.5321999999993,763.5321999999993,765.4985000000001,1800,765.4985000000001,5,765.5039000000005,2,16,76,11,1,1,0.3,Time
,,657789,001,男,20,2025-06-03_22h06.52.295,Serial_Dependence_U,2023.2.3,Win32,60.240963855400565,,,,,,765.5040999999998,315,2,765.5040999999998,315,,,,769.6870000000001,770.1816999999993,769.1825999999998,769.6870000000001,766.5205000000001,769.1823000000009,770.1818000000009,770.6855,770.6855,772.7871999999994,2017,772.7871999999994,4,772.7920999999998,2,17,77,14,1,1.6,0.3,Time
,,657789,001,男,20,2025-06-03_22h06.52.295,Serial_Dependence_U,2023.2.3,Win32,60.240963855400565,,,,,,772.7923000000009,99,2,772.7924000000004,99,,,,776.7701999999994,777.2646999999994,776.2535999999997,776.7700999999996,773.7850999999997,776.2535000000001,777.264800000001,777.7685,777.7685,780.2870999999997,2350,780.2871999999994,5,780.2925000000001,2,18,78,13,1,1.4,0.3,Time
,,657789,001,男,20,2025-06-03_22h06.52.295,Serial_Dependence_U,2023.2.3,Win32,60.240963855400565,,,,,,780.2926999999994,172,2,780.2926999999994,172,,,,783.6651999999993,784.1643000000009,783.1530000000001,783.6649000000006,781.303,783.1530000000001,784.1645000000002,784.6644000000005,784.6645000000002,786.6034000000005,1750,786.6034000000005,5,786.6084000000004,2,19,79,15,1,0.8,0.7,Time
,,657789,001,男,20,2025-06-03_22h06.52.295,Serial_Dependence_U,2023.2.3,Win32,60.240963855400565,,,,,,786.6085999999997,249,2,786.6085999999997,249,,,,790.2011999999994,790.6970999999998,789.6814000000005,790.2010999999997,787.6195000000001,789.6813000000008,790.6973000000008,791.1968000000007,791.1969000000005,793.4359000000005,1913,793.436,5,793.4415999999998,2,20,80,21,1,1,0.3,Time
,,657789,001,男,20,2025-06-03_22h06.52.295,Serial_Dependence_U,2023.2.3,Win32,60.240963855400565,,,,,,793.4416999999993,104,2,793.4418000000009,104,,,,797.2028000000008,797.6968000000007,796.6859000000005,797.2025999999997,794.4535000000002,796.6858000000008,797.697,798.1969000000005,798.1970999999998,800.3636999999993,1755,800.3638000000009,5,800.3690999999998,2,21,81,17,1,1.2,0.7,Time
,,657789,001,男,20,2025-06-03_22h06.52.295,Serial_Dependence_U,2023.2.3,Win32,60.240963855400565,,,,,,800.3693000000009,199,2,800.3694000000004,199,,,,804.1645000000002,804.6630999999996,803.6520999999997,804.1641999999994,801.3856999999992,803.6520000000002,804.6631999999994,805.1635,805.1635999999997,807.6520000000002,2150,807.6520999999997,5,807.6574000000004,2,22,82,22,1,1.2,0.3,Time
,,657789,001,男,20,2025-06-03_22h06.52.295,Serial_Dependence_U,2023.2.3,Win32,60.240963855400565,,,,,,807.6575000000001,145,2,807.6575000000001,145,,,,811.8308000000007,812.3298000000008,811.3181999999994,811.8304000000004,808.6665999999997,811.3181999999994,812.33,812.8299000000005,812.8300999999998,815.0354000000005,2117,815.0355000000001,5,815.0404000000004,2,23,83,29,1,1.6,0.7,Time
,,657789,001,男,20,2025-06-03_22h06.52.295,Serial_Dependence_U,2023.2.3,Win32,60.240963855400565,,,,,,815.0405999999997,98,2,815.0406999999994,98,,,,818.9969000000004,819.4964000000006,818.4849000000005,818.9966999999994,816.0519000000005,818.4849000000005,819.4965000000001,819.9959000000005,819.9960999999997,822.1184000000004,1972,822.1185000000002,5,822.1238000000009,2,24,84,8,1,1.4,0.7,Time
,,657789,001,男,20,2025-06-03_22h06.52.295,Serial_Dependence_U,2023.2.3,Win32,60.240963855400565,,,,,,822.1240000000001,15,2,822.1240999999997,15,,,,825.8841999999994,826.3790999999998,825.3631999999994,825.8840999999996,823.1298000000007,825.3630000000002,826.3791999999993,826.8788000000008,826.8789000000005,828.784,1751,828.784,5,828.7893000000009,2,25,85,27,1,1.2,0.7,Time
,,657789,001,男,20,2025-06-03_22h06.52.295,Serial_Dependence_U,2023.2.3,Win32,60.240963855400565,,,,,,828.7895000000002,50,2,828.7895999999997,50,,,,832.7465000000001,833.2450999999998,832.234,832.7461999999992,829.784,832.2339000000005,833.2451999999993,833.7480999999997,833.7481999999994,835.6008000000007,1685,835.6008000000007,4,835.6060999999996,2,26,86,28,1,1.4,0.7,Time
,,657789,001,男,20,2025-06-03_22h06.52.295,Serial_Dependence_U,2023.2.3,Win32,60.240963855400565,,,,,,835.6061999999994,253,2,835.6063000000009,253,,,,839.6004000000004,840.0949000000004,839.0838000000009,839.6003000000009,836.6133000000008,839.0838000000009,840.0950000000001,840.5950999999997,840.5953000000007,842.3340000000002,1434,842.3340000000002,3,842.3388000000008,2,27,87,23,1,1.4,0.3,Time
,,657789,001,男,20,2025-06-03_22h06.52.295,Serial_Dependence_U,2023.2.3,Win32,60.240963855400565,,,,,,842.3389000000005,32,2,842.3390999999998,32,,,,846.1166999999992,846.6115999999996,845.6124000000005,846.1166999999992,843.3500999999998,845.6121999999995,846.6115999999996,847.1111999999993,847.1113000000008,849.0116999999995,1533,849.0118000000008,4,849.0171999999994,2,28,88,2,1,1.2,0.3,Time
,,657789,001,男,20,2025-06-03_22h06.52.295,Serial_Dependence_U,2023.2.3,Win32,60.240963855400565,,,,,,849.0173000000008,130,2,849.0174000000005,130,,,,852.3950999999996,852.8968000000008,851.8831999999994,852.3949000000006,850.0165999999998,851.8830999999997,852.8968000000008,853.3941999999994,853.3944000000005,855.6336999999993,1928,855.6336999999993,5,855.6391999999993,2,29,89,10,1,0.8,0.3,Time
,,657789,001,男,20,2025-06-03_22h06.52.295,Serial_Dependence_U,2023.2.3,Win32,60.240963855400565,,,,,,855.6394000000004,16,3,1042.5248000000008,16,s,186.86589999999865,,1045.92,1046.4188000000008,1045.4076999999993,1045.9196999999992,1043.5360999999996,1045.4076999999993,1046.4189000000003,1046.9188000000008,1046.9189999999999,1048.7743000000007,1394,1048.7743000000007,5,1048.7793000000008,3,0,90,0,1,0.8,0.3,Time
,,657789,001,男,20,2025-06-03_22h06.52.295,Serial_Dependence_U,2023.2.3,Win32,60.240963855400565,,,,,,1048.7794999999999,328,3,1048.7800999999997,328,,,,1052.3693000000007,1052.8684000000003,1051.857,1052.369,1049.7860999999996,1051.857,1052.8685999999996,1053.3729000000003,1053.3729000000003,1054.8911999999993,1300,1054.8911999999993,5,1054.896,3,1,91,21,1,1,0.3,Time
,,657789,001,男,20,2025-06-03_22h06.52.295,Serial_Dependence_U,2023.2.3,Win32,60.240963855400565,,,,,,1054.8961999999992,83,3,1054.8961999999992,83,,,,1058.2900999999997,1058.7848000000008,1057.7738000000006,1058.29,1055.9070999999997,1057.7736999999993,1058.7849000000003,1059.285,1059.2851999999993,1060.502,890,1060.5021999999992,4,1060.5075,3,2,92,20,1,0.8,0.3,Time
,,657789,001,男,20,2025-06-03_22h06.52.295,Serial_Dependence_U,2023.2.3,Win32,60.240963855400565,,,,,,1060.5075999999997,295,3,1060.5076999999992,295,,,,1064.2569000000003,1064.7511999999992,1063.7565,1064.2568000000008,1061.5065999999997,1063.7564000000004,1064.7513000000008,1065.2510999999995,1065.2513000000008,1066.8236999999992,1260,1066.8236999999992,4,1066.829,3,3,93,17,1,1.2,0.7,Time
,,657789,001,男,20,2025-06-03_22h06.52.295,Serial_Dependence_U,2023.2.3,Win32,60.240963855400565,,,,,,1066.8291999999992,308,3,1066.8291999999992,308,,,,1070.4231999999993,1070.9219000000003,1069.9021999999993,1070.4230999999995,1067.84,1069.9019000000003,1070.9219000000003,1071.4176999999993,1071.4179000000004,1072.9069000000004,1184,1072.9069000000004,4,1072.912,3,4,94,1,1,1,0.3,Time
,,657789,001,男,20,2025-06-03_22h06.52.295,Serial_Dependence_U,2023.2.3,Win32,60.240963855400565,,,,,,1072.9121999999993,166,3,1072.9123000000006,166,,,,1077.0878000000007,1077.5840999999996,1076.5734000000004,1077.0876999999991,1073.9064000000003,1076.5731999999991,1077.5841999999993,1078.0886999999993,1078.0888000000007,1079.9406999999992,1668,1079.9406999999992,3,1079.9456999999993,3,5,95,14,1,1.6,0.3,Time
,,657789,001,男,20,2025-06-03_22h06.52.295,Serial_Dependence_U,2023.2.3,Win32,60.240963855400565,,,,,,1079.9458000000006,333,3,1079.9458000000006,333,,,,1083.9349000000004,1084.4361999999992,1083.4231999999993,1083.9346999999993,1080.9560999999997,1083.4231999999993,1084.4361999999992,1084.9338000000007,1084.9339000000004,1086.4055999999996,1033,1086.4056999999993,2,1086.4105999999997,3,6,96,13,1,1.4,0.3,Time
,,657789,001,男,20,2025-06-03_22h06.52.295,Serial_Dependence_U,2023.2.3,Win32,60.240963855400565,,,,,,1086.4106999999992,51,3,1086.4108000000008,51,,,,1090.3841999999993,1090.8875,1089.8714000000004,1090.384,1087.4056999999993,1089.8713000000007,1090.8875,1091.3833000000006,1091.3835,1093.1393000000007,1484,1093.1393000000007,4,1093.1448000000007,3,7,97,23,1,1.4,0.3,Time
,,657789,001,男,20,2025-06-03_22h06.52.295,Serial_Dependence_U,2023.2.3,Win32,60.240963855400565,,,,,,1093.145,221,3,1093.1450999999995,221,,,,1097.105,1097.6040999999996,1096.5885,1097.1049000000003,1094.1551999999992,1096.5884000000003,1097.6040999999996,1098.0996999999993,1098.0998000000006,1100.4724000000003,2077,1100.4724000000003,5,1100.4773000000007,3,8,98,28,1,1.4,0.7,Time
,,657789,001,男,20,2025-06-03_22h06.52.295,Serial_Dependence_U,2023.2.3,Win32,60.240963855400565,,,,,,1100.4774000000004,257,3,1100.4774000000004,257,,,,1104.267,1104.7659000000003,1103.7508000000007,1104.2666999999992,1101.4866999999992,1103.7504000000004,1104.7660999999996,1105.266,1105.2661999999993,1107.072,1484,1107.0720999999996,4,1107.0774000000004,3,9,99,2,1,1.2,0.3,Time
,,657789,001,男,20,2025-06-03_22h06.52.295,Serial_Dependence_U,2023.2.3,Win32,60.240963855400565,,,,,,1107.0774999999999,246,3,1107.0775999999996,246,,,,1110.4376999999993,1110.9366999999993,1109.9216999999992,1110.4375999999995,1108.0835999999997,1109.9216999999992,1110.9366999999993,1111.432,1111.4321999999993,1112.8380999999997,1167,1112.8381999999992,5,1112.8435,3,10,100,15,1,0.8,0.7,Time
,,657789,001,男,20,2025-06-03_22h06.52.295,Serial_Dependence_U,2023.2.3,Win32,60.240963855400565,,,,,,1112.8436999999992,236,3,1112.8436999999992,236,,,,1116.7874000000004,1117.2821999999992,1116.271,1116.7871999999993,1113.8384000000003,1116.2709000000004,1117.2823000000008,1117.7821999999992,1117.7825,1119.4213000000007,1362,1119.4214000000004,3,1119.4268000000006,3,11,101,18,1,1.4,0.7,Time
,,657789,001,男,20,2025-06-03_22h06.52.295,Serial_Dependence_U,2023.2.3,Win32,60.240963855400565,,,,,,1119.427,355,3,1119.427,355,,,,1122.7829000000004,1123.2816999999993,1122.2705999999996,1122.7826999999993,1120.437,1122.2705999999996,1123.2819000000004,1123.7824000000003,1123.7824000000003,1125.4545999999996,1335,1125.4545999999996,5,1125.4595,3,12,102,5,1,0.8,0.7,Time
,,657789,001,男,20,2025-06-03_22h06.52.295,Serial_Dependence_U,2023.2.3,Win32,60.240963855400565,,,,,,1125.4596999999992,255,3,1125.4598000000008,255,,,,1129.4535999999996,1129.9480999999996,1128.9328000000007,1129.4535,1126.4704000000004,1128.9325999999996,1129.9481999999991,1130.4484000000004,1130.4485,1131.8039000000003,1316,1131.8039000000003,2,1131.809,3,13,103,3,1,1.4,0.3,Time
,,657789,001,男,20,2025-06-03_22h06.52.295,Serial_Dependence_U,2023.2.3,Win32,60.240963855400565,,,,,,1131.8090999999997,104,3,1131.8090999999997,104,,,,1135.1656999999993,1135.6688000000008,1134.6534000000004,1135.1654000000003,1132.8201999999992,1134.6534000000004,1135.6688000000008,1136.1646999999991,1136.1649000000004,1137.7703000000008,1317,1137.7704000000003,5,1137.7750999999996,3,14,104,25,1,0.8,0.7,Time
,,657789,001,男,20,2025-06-03_22h06.52.295,Serial_Dependence_U,2023.2.3,Win32,60.240963855400565,,,,,,1137.7753000000007,48,3,1137.7753000000007,48,,,,1141.9484000000004,1142.4515999999996,1141.437,1141.9481999999991,1138.7845,1141.4369000000004,1142.4515999999996,1142.9479000000003,1142.948,1144.6864000000003,1473,1144.6864000000003,2,1144.6916999999992,3,15,105,9,1,1.6,0.7,Time
,,657789,001,男,20,2025-06-03_22h06.52.295,Serial_Dependence_U,2023.2.3,Win32,60.240963855400565,,,,,,1144.6919000000003,217,3,1144.6919000000003,217,,,,1148.6483000000007,1149.1476999999993,1148.136,1148.648,1145.6846999999993,1148.1359000000004,1149.1478000000006,1149.6518000000008,1149.6519000000003,1151.37,1436,1151.3700999999996,3,1151.3755999999996,3,16,106,8,1,1.4,0.7,Time
,,657789,001,男,20,2025-06-03_22h06.52.295,Serial_Dependence_U,2023.2.3,Win32,60.240963855400565,,,,,,1151.3758000000007,85,3,1151.3758000000007,85,,,,1154.9364000000003,1155.4304000000004,1154.4145999999996,1154.9363000000008,1152.3814000000004,1154.4143000000008,1155.4305,1155.9305,1155.9306999999992,1157.852,1633,1157.852,5,1157.8570999999997,3,17,107,6,1,1,0.7,Time
,,657789,001,男,20,2025-06-03_22h06.52.295,Serial_Dependence_U,2023.2.3,Win32,60.240963855400565,,,,,,1157.8574000000003,189,3,1157.8575999999996,189,,,,1161.4353000000008,1161.9350999999997,1160.9140999999995,1161.4353000000008,1158.8523000000007,1160.9139000000005,1161.9350999999997,1162.4343000000008,1162.4343000000008,1164.1525999999997,1400,1164.1526999999992,5,1164.1575999999995,3,18,108,11,1,1,0.3,Time
,,657789,001,男,20,2025-06-03_22h06.52.295,Serial_Dependence_U,2023.2.3,Win32,60.240963855400565,,,,,,1164.1578000000006,185,3,1164.1578000000006,185,,,,1168.3478000000007,1168.8463000000008,1167.8311999999992,1168.3475,1165.1681999999992,1167.8309000000004,1168.8463000000008,1169.3466999999991,1169.3468000000007,1171.6188000000006,1933,1171.6189000000004,4,1171.6244000000004,3,19,109,24,1,1.6,0.3,Time
,,657789,001,男,20,2025-06-03_22h06.52.295,Serial_Dependence_U,2023.2.3,Win32,60.240963855400565,,,,,,1171.6245999999996,93,3,1171.6246999999992,93,,,,1175.7803000000008,1176.2836999999993,1175.2680999999995,1175.78,1172.6349000000002,1175.268,1176.2836999999993,1176.7798000000007,1176.7799000000005,1179.2185999999997,2117,1179.2185999999997,5,1179.2235,3,20,110,19,1,1.6,0.7,Time
,,657789,001,男,20,2025-06-03_22h06.52.295,Serial_Dependence_U,2023.2.3,Win32,60.240963855400565,,,,,,1179.2238000000007,102,3,1179.2238000000007,102,,,,1183.3805,1183.879,1182.868,1183.3801999999991,1180.2300999999995,1182.8679000000004,1183.8790999999997,1184.3835,1184.3835999999997,1186.7519000000004,2050,1186.752,4,1186.7571999999993,3,21,111,29,1,1.6,0.7,Time
,,657789,001,男,20,2025-06-03_22h06.52.295,Serial_Dependence_U,2023.2.3,Win32,60.240963855400565,,,,,,1186.7575,158,3,1186.7575,158,,,,1190.5130999999997,1191.0125,1190.0005999999996,1190.513,1187.751,1190.0005999999996,1191.0125999999996,1191.5123000000008,1191.5124000000003,1193.3343000000007,1483,1193.3343000000007,4,1193.3396999999993,3,22,112,7,1,1.2,0.7,Time
,,657789,001,男,20,2025-06-03_22h06.52.295,Serial_Dependence_U,2023.2.3,Win32,60.240963855400565,,,,,,1193.3398000000007,149,3,1193.34,149,,,,1197.5343000000007,1198.0283000000006,1197.0126999999993,1197.5340999999996,1194.3459000000003,1197.0125,1198.0285,1198.5328000000006,1198.5328000000006,1200.8341999999993,2000,1200.8343000000007,4,1200.8394000000003,3,23,113,4,1,1.6,0.3,Time
,,657789,001,男,20,2025-06-03_22h06.52.295,Serial_Dependence_U,2023.2.3,Win32,60.240963855400565,,,,,,1200.8396999999993,168,3,1200.8396999999993,168,,,,1204.6123000000007,1205.1114000000005,1204.1006999999993,1204.612,1201.8325999999995,1204.1005999999995,1205.1114000000005,1205.6111999999991,1205.6113000000007,1215.5835999999997,1517,1215.5835999999997,4,1215.5889000000004,3,24,114,12,1,1.2,0.3,Time
,,657789,001,男,20,2025-06-03_22h06.52.295,Serial_Dependence_U,2023.2.3,Win32,60.240963855400565,,,,,,1215.5890999999997,319,3,1215.5890999999997,319,,,,1219.3495999999996,1219.8439000000003,1218.8334000000004,1219.3495999999996,1216.5985,1218.8334000000004,1219.8440999999996,1220.3316999999993,1220.3316999999993,1222.133,1400,1222.1330999999996,4,1222.1384000000003,3,25,115,27,1,1.2,0.7,Time
,,657789,001,男,20,2025-06-03_22h06.52.295,Serial_Dependence_U,2023.2.3,Win32,60.240963855400565,,,,,,1222.1385,328,3,1222.1386999999993,328,,,,1225.6948000000007,1226.1935999999996,1225.1828000000007,1225.6945,1223.1329000000003,1225.1826999999992,1226.1936999999991,1226.6816999999992,1226.6816999999992,1228.2996999999993,1261,1228.2996999999993,4,1228.3045999999997,3,26,116,26,1,1,0.7,Time
,,657789,001,男,20,2025-06-03_22h06.52.295,Serial_Dependence_U,2023.2.3,Win32,60.240963855400565,,,,,,1228.3048000000008,353,3,1228.3048000000008,353,,,,1231.8615,1232.3600999999996,1231.3490999999997,1231.8613000000007,1229.3155999999997,1231.349,1232.3601999999992,1232.8643000000006,1232.8643000000006,1234.4656999999993,1333,1234.4656999999993,5,1234.4704000000004,3,27,117,16,1,1,0.7,Time
,,657789,001,男,20,2025-06-03_22h06.52.295,Serial_Dependence_U,2023.2.3,Win32,60.240963855400565,,,,,,1234.4705999999996,199,3,1234.4705999999996,199,,,,1238.2619000000004,1238.7596999999992,1237.7444000000003,1238.2615999999996,1235.4821999999992,1237.7441999999992,1238.7598000000007,1239.2598000000007,1239.26,1240.8990999999996,1350,1240.8990999999996,4,1240.904,3,28,118,22,1,1.2,0.3,Time
,,657789,001,男,20,2025-06-03_22h06.52.295,Serial_Dependence_U,2023.2.3,Win32,60.240963855400565,,,,,,1240.9040999999995,132,3,1240.9041999999993,132,,,,1244.2820999999997,1244.7763000000007,1243.7653000000007,1244.282,1241.8985,1243.7653000000007,1244.7764000000004,1245.2805,1245.2805999999996,1247.2468000000008,1610,1247.247,5,1247.2514000000003,3,29,119,10,1,0.8,0.3,Time
,,657789,001,男,20,2025-06-03_22h06.52.295,Serial_Dependence_U,2023.2.3,Win32,60.240963855400565,,,,,,1247.2515999999996,139,4,1276.2331999999992,139,s,28.963999999999942,,1280.0133000000008,1280.5080999999996,1279.5090999999995,1280.0131999999992,1277.2468000000008,1279.5088000000007,1280.5083000000006,1281.0075999999997,1281.0076999999992,1282.5305999999996,1183,1282.5306999999993,3,1282.5356999999992,4,0,120,2,1,1.2,0.3,Time
,,657789,001,男,20,2025-06-03_22h06.52.295,Serial_Dependence_U,2023.2.3,Win32,60.240963855400565,,,,,,1282.5359000000003,116,4,1282.5365,116,,,,1286.1254999999999,1286.6285999999996,1285.6086999999993,1286.1253000000008,1283.5469000000003,1285.6085,1286.6285999999996,1287.1243000000006,1287.1245,1288.5245,1243,1288.5245,4,1288.5299000000005,4,1,121,1,1,1,0.3,Time
,,657789,001,男,20,2025-06-03_22h06.52.295,Serial_Dependence_U,2023.2.3,Win32,60.240963855400565,,,,,,1288.53,312,4,1288.5300999999997,312,,,,1291.8918000000008,1292.3944000000004,1291.3795,1291.8916999999992,1289.5294000000004,1291.3794000000003,1292.3944000000004,1292.8908000000008,1292.8908000000008,1294.3306999999993,1134,1294.3308000000006,5,1294.3356999999992,4,2,122,15,1,0.8,0.7,Time
,,657789,001,男,20,2025-06-03_22h06.52.295,Serial_Dependence_U,2023.2.3,Win32,60.240963855400565,,,,,,1294.3359000000003,234,4,1294.3359000000003,234,,,,1298.3250999999996,1298.8238000000008,1297.8085,1298.3246999999992,1295.3455999999996,1297.8081999999993,1298.8239000000003,1299.3115999999995,1299.3115999999995,1302.1959000000004,2576,1302.196,5,1302.2014000000004,4,3,123,23,1,1.4,0.3,Time
,,657789,001,男,20,2025-06-03_22h06.52.295,Serial_Dependence_U,2023.2.3,Win32,60.240963855400565,,,,,,1302.2015999999996,1,4,1302.2016999999992,1,,,,1305.9286999999993,1306.4234999999999,1305.4271999999992,1305.9286999999993,1303.196,1305.4270999999997,1306.4235999999996,1306.9236999999991,1306.9239000000005,1308.6288000000006,1283,1308.6288000000006,4,1308.6343000000006,4,4,124,27,1,1.2,0.7,Time
,,657789,001,男,20,2025-06-03_22h06.52.295,Serial_Dependence_U,2023.2.3,Win32,60.240963855400565,,,,,,1308.6344000000004,218,4,1308.6345,218,,,,1312.0119000000004,1312.5066999999992,1311.4934000000003,1312.0119000000004,1309.6283000000008,1311.4934000000003,1312.5068000000008,1313.0068000000008,1313.0069000000003,1314.7620999999997,1283,1314.7620999999997,5,1314.7673000000007,4,5,125,20,1,0.8,0.3,Time
,,657789,001,男,20,2025-06-03_22h06.52.295,Serial_Dependence_U,2023.2.3,Win32,60.240963855400565,,,,,,1314.7674000000004,233,4,1314.7674000000004,233,,,,1318.7238000000007,1319.2225999999996,1318.2119000000002,1318.7235999999996,1315.762,1318.2118000000007,1319.2228000000007,1319.7275,1319.7275999999997,1319.8299000000004,67,1319.83,1,1319.8348000000008,4,6,126,8,1,1.4,0.7,Time
,,657789,001,男,20,2025-06-03_22h06.52.295,Serial_Dependence_U,2023.2.3,Win32,60.240963855400565,,,,,,1319.835,318,4,1319.8353000000006,318,,,,1324.0409000000004,1324.5391999999993,1323.5279000000003,1324.0406999999993,1320.8614000000005,1323.5279000000003,1324.5394000000003,1325.0393000000008,1325.0394000000003,1327.7225,2257,1327.7225999999996,5,1327.7286999999992,4,7,127,4,1,1.6,0.3,Time
,,657789,001,男,20,2025-06-03_22h06.52.295,Serial_Dependence_U,2023.2.3,Win32,60.240963855400565,,,,,,1327.7289000000003,168,4,1327.729,168,,,,1331.0735,1331.5725999999995,1330.561,1331.0731999999991,1328.7278000000008,1330.5609000000004,1331.5726999999993,1332.0723000000007,1332.0723000000007,1333.7778000000008,1083,1333.7778000000008,5,1333.7831999999992,4,8,128,25,1,0.8,0.7,Time
,,657789,001,男,20,2025-06-03_22h06.52.295,Serial_Dependence_U,2023.2.3,Win32,60.240963855400565,,,,,,1333.7834000000003,133,4,1333.7835,133,,,,1337.5728000000008,1338.072,1337.061,1337.5726999999993,1334.7939999999999,1337.0609000000004,1338.0721999999992,1338.5745999999997,1338.5745999999997,1340.5115,1590,1340.5115,5,1340.5165,4,9,129,22,1,1.2,0.3,Time
,,657789,001,男,20,2025-06-03_22h06.52.295,Serial_Dependence_U,2023.2.3,Win32,60.240963855400565,,,,,,1340.5165999999997,132,4,1340.5166999999992,132,,,,1344.7106999999992,1345.2050999999997,1344.1890999999996,1344.7105999999997,1341.5273000000007,1344.1888000000008,1345.2051999999992,1345.7046999999993,1345.7049000000004,1348.011,1967,1348.0110999999997,4,1348.0165,4,10,130,14,1,1.6,0.3,Time
,,657789,001,男,20,2025-06-03_22h06.52.295,Serial_Dependence_U,2023.2.3,Win32,60.240963855400565,,,,,,1348.0166999999992,26,4,1348.0168000000008,26,,,,1351.5556999999992,1352.0548000000008,1351.0439000000003,1351.5554000000004,1349.0103000000008,1351.0438000000008,1352.0549000000003,1352.5588000000007,1352.5588000000007,1354.5101999999993,1574,1354.5101999999993,5,1354.5151999999991,4,11,131,6,1,1,0.7,Time
,,657789,001,男,20,2025-06-03_22h06.52.295,Serial_Dependence_U,2023.2.3,Win32,60.240963855400565,,,,,,1354.5153000000007,358,4,1354.5154000000005,358,,,,1357.9095999999995,1358.4043000000008,1357.3930999999995,1357.9095999999995,1355.5263000000007,1357.3930999999995,1358.4044000000004,1358.9043000000008,1358.9044999999999,1360.4376999999993,1226,1360.4378000000008,5,1360.4430999999995,4,12,132,0,1,0.8,0.3,Time
,,657789,001,男,20,2025-06-03_22h06.52.295,Serial_Dependence_U,2023.2.3,Win32,60.240963855400565,,,,,,1360.4433000000008,265,4,1360.4433000000008,265,,,,1364.4098000000008,1364.9036999999992,1363.9049000000005,1364.4096999999992,1361.4429000000005,1363.9046999999991,1364.9039000000002,1365.404,1365.4044000000004,1367.5928000000008,1833,1367.5929000000003,5,1367.5983000000008,4,13,133,13,1,1.4,0.3,Time
,,657789,001,男,20,2025-06-03_22h06.52.295,Serial_Dependence_U,2023.2.3,Win32,60.240963855400565,,,,,,1367.5985,338,4,1367.5985,338,,,,1370.9879000000003,1371.4874000000004,1370.4759000000004,1370.9876999999992,1368.6094000000003,1370.4756999999993,1371.4874000000004,1371.987,1371.9870999999996,1374.093,1701,1374.093,5,1374.0979000000004,4,14,134,10,1,0.8,0.3,Time
,,657789,001,男,20,2025-06-03_22h06.52.295,Serial_Dependence_U,2023.2.3,Win32,60.240963855400565,,,,,,1374.098,137,4,1374.0981999999992,137,,,,1378.2375999999997,1378.7368000000008,1377.7255999999995,1378.2374000000004,1375.0924000000005,1377.7255,1378.7369000000003,1379.2369000000003,1379.237,1381.5865999999996,1822,1381.5868000000007,4,1381.5926999999992,4,15,135,9,1,1.6,0.7,Time
,,657789,001,男,20,2025-06-03_22h06.52.295,Serial_Dependence_U,2023.2.3,Win32,60.240963855400565,,,,,,1381.5929000000003,222,4,1381.593,222,,,,1385.3753000000008,1385.8699000000004,1384.8585,1385.3751999999993,1382.6085,1384.8584000000003,1385.8699000000004,1386.37,1386.3701999999992,1388.0753000000007,1550,1388.0753000000007,4,1388.0801999999992,4,16,136,17,1,1.2,0.7,Time
,,657789,001,男,20,2025-06-03_22h06.52.295,Serial_Dependence_U,2023.2.3,Win32,60.240963855400565,,,,,,1388.0804000000003,219,4,1388.0804000000003,219,,,,1391.658,1392.1528000000008,1391.1540999999995,1391.658,1389.0916999999993,1391.1538000000007,1392.153,1392.6530999999995,1392.6531999999993,1394.3085999999996,1284,1394.3086999999991,4,1394.3143000000007,4,17,137,11,1,1,0.3,Time
,,657789,001,男,20,2025-06-03_22h06.52.295,Serial_Dependence_U,2023.2.3,Win32,60.240963855400565,,,,,,1394.3145999999997,235,4,1394.3146999999992,235,,,,1398.4695,1398.9693000000007,1397.9581999999991,1398.4694000000004,1395.324,1397.9580999999996,1398.9694000000004,1399.4693000000007,1399.4695,1401.2916999999993,1519,1401.2919000000004,2,1401.2973000000006,4,18,138,19,1,1.6,0.7,Time
,,657789,001,男,20,2025-06-03_22h06.52.295,Serial_Dependence_U,2023.2.3,Win32,60.240963855400565,,,,,,1401.2974000000004,136,4,1401.2975,136,,,,1405.0413000000008,1405.5354000000004,1404.5396999999991,1405.0411999999992,1402.3034000000005,1404.5395,1405.5355999999997,1406.0234000000003,1406.0235,1407.5354000000004,1200,1407.5355,3,1407.5409000000004,4,19,139,7,1,1.2,0.7,Time
,,657789,001,男,20,2025-06-03_22h06.52.295,Serial_Dependence_U,2023.2.3,Win32,60.240963855400565,,,,,,1407.5410999999997,155,4,1407.5410999999997,155,,,,1410.9031999999993,1411.402,1410.3908000000008,1410.903,1408.5529000000004,1410.3908000000008,1411.402,1411.9018000000008,1411.902,1413.4415,1217,1413.4416999999992,5,1413.4464000000003,4,20,140,5,1,0.8,0.7,Time
,,657789,001,男,20,2025-06-03_22h06.52.295,Serial_Dependence_U,2023.2.3,Win32,60.240963855400565,,,,,,1413.4465999999995,91,4,1413.4465999999995,91,,,,1417.2236999999993,1417.7225999999996,1416.7195,1417.2235999999996,1414.4570999999996,1416.7191999999993,1417.7225999999996,1418.2183000000007,1418.2185,1420.1405,1516,1420.1405999999997,4,1420.1455,4,21,141,12,1,1.2,0.3,Time
,,657789,001,男,20,2025-06-03_22h06.52.295,Serial_Dependence_U,2023.2.3,Win32,60.240963855400565,,,,,,1420.1456999999991,44,4,1420.1456999999991,44,,,,1424.1234000000004,1424.6181999999992,1423.6025,1424.1233000000007,1421.1399999999999,1423.6021999999991,1424.6183000000008,1425.1203000000007,1425.1203000000007,1427.1401999999991,1691,1427.1403000000007,4,1427.1454000000003,4,22,142,3,1,1.4,0.3,Time
,,657789,001,男,20,2025-06-03_22h06.52.295,Serial_Dependence_U,2023.2.3,Win32,60.240963855400565,,,,,,1427.1455999999996,134,4,1427.1456999999991,134,,,,1431.0854000000004,1431.584,1430.5731999999991,1431.0850999999996,1428.1395,1430.5731999999991,1431.5841999999993,1432.0884000000003,1432.0884000000003,1434.0569000000003,1667,1434.0569000000003,4,1434.0623000000007,4,23,143,28,1,1.4,0.7,Time
,,657789,001,男,20,2025-06-03_22h06.52.295,Serial_Dependence_U,2023.2.3,Win32,60.240963855400565,,,,,,1434.0625,193,4,1434.0625999999995,193,,,,1437.6225,1438.1213000000007,1437.1066999999991,1437.6224000000004,1435.0554000000004,1437.1065999999996,1438.1214000000004,1438.622,1438.6220999999996,1441.9565,1450,1441.9565999999995,5,1441.9624000000003,4,24,144,26,1,1,0.7,Time
,,657789,001,男,20,2025-06-03_22h06.52.295,Serial_Dependence_U,2023.2.3,Win32,60.240963855400565,,,,,,1441.9625999999996,114,4,1441.9626999999991,114,,,,1445.5725,1446.0668000000007,1445.0519000000004,1445.5724000000002,1442.9899000000003,1445.0514000000003,1446.067,1446.5666999999992,1446.5669000000003,1448.2061999999992,1200,1448.2063000000007,4,1448.211,4,25,145,21,1,1,0.3,Time
,,657789,001,男,20,2025-06-03_22h06.52.295,Serial_Dependence_U,2023.2.3,Win32,60.240963855400565,,,,,,1448.2111999999993,28,4,1448.2113000000006,28,,,,1452.3674000000003,1452.8665,1451.8555,1452.3671999999992,1449.2039000000004,1451.8554000000004,1452.8665999999996,1453.3706999999993,1453.3706999999993,1455.6399000000004,1328,1455.6399999999999,2,1455.645,4,26,146,29,1,1.6,0.7,Time
,,657789,001,男,20,2025-06-03_22h06.52.295,Serial_Dependence_U,2023.2.3,Win32,60.240963855400565,,,,,,1455.6451999999992,100,4,1455.6451999999992,100,,,,1459.2170999999996,1459.7161999999992,1458.7049000000004,1459.2168000000008,1456.6550999999997,1458.7049000000004,1459.7164000000002,1460.2189000000003,1460.2189000000003,1461.7334000000003,1185,1461.7335,4,1461.7389000000003,4,27,147,16,1,1,0.7,Time
,,657789,001,男,20,2025-06-03_22h06.52.295,Serial_Dependence_U,2023.2.3,Win32,60.240963855400565,,,,,,1461.739,95,4,1461.7390999999996,95,,,,1465.6835999999996,1466.183,1465.1715,1465.6833000000008,1462.7359999999999,1465.1714000000004,1466.1830999999995,1466.6869000000004,1466.6869000000004,1468.2550999999996,1117,1468.2551999999991,2,1468.261,4,28,148,18,1,1.4,0.7,Time
,,657789,001,男,20,2025-06-03_22h06.52.295,Serial_Dependence_U,2023.2.3,Win32,60.240963855400565,,,,,,1468.2611999999992,7,4,1468.2611999999992,7,,,,1472.4375999999995,1472.933,1471.9211999999993,1472.4375,1469.2548000000006,1471.9210999999996,1472.9330999999995,1473.4326999999992,1473.4329000000002,1491.9150999999997,1370,1491.9153000000008,2,1491.9210999999996,4,29,149,24,1,1.6,0.3,Time
,,657789,001,男,20,2025-06-03_22h06.52.295,Serial_Dependence_U,2023.2.3,Win32,60.240963855400565,,,,,,1491.9213000000007,87,5,1494.7868000000008,87,s,2.835200000001123,,1498.3534000000004,1498.8478000000007,1497.8319999999999,1498.3534000000004,1495.7988000000007,1497.8315999999995,1498.848,1499.352,1499.352,1501.4515999999996,1765,1501.4515999999996,5,1501.4561999999992,5,0,150,26,1,1,0.7,Time
,,657789,001,男,20,2025-06-03_22h06.52.295,Serial_Dependence_U,2023.2.3,Win32,60.240963855400565,,,,,,1501.4564000000003,348,5,1501.4569999999999,348,,,,1505.0365999999997,1505.5305999999996,1504.532,1505.0365,1502.4678000000008,1504.5316999999993,1505.5308000000007,1506.031,1506.0310999999997,1514.6863000000008,1150,1514.6864000000003,4,1514.6915999999997,5,1,151,1,1,1,0.3,Time
,,657789,001,男,20,2025-06-03_22h06.52.295,Serial_Dependence_U,2023.2.3,Win32,60.240963855400565,,,,,,1514.6918000000007,39,5,1514.6918000000007,39,,,,1518.0356999999992,1518.5305999999996,1517.5190999999995,1518.0356999999992,1515.6839000000004,1517.5190999999995,1518.5305999999996,1519.0304000000003,1519.0305,1520.4863000000007,1160,1520.4863000000007,5,1520.4914000000003,5,2,152,25,1,0.8,0.7,Time
,,657789,001,男,20,2025-06-03_22h06.52.295,Serial_Dependence_U,2023.2.3,Win32,60.240963855400565,,,,,,1520.4915999999996,286,5,1520.4916999999991,286,,,,1524.2810999999997,1524.7801999999992,1523.7691999999993,1524.2808000000007,1521.5025999999996,1523.7690999999995,1524.7803000000008,1525.2798000000007,1525.28,1527.1525999999997,1557,1527.1526999999992,4,1527.1580999999996,5,3,153,2,1,1.2,0.3,Time
,,657789,001,男,20,2025-06-03_22h06.52.295,Serial_Dependence_U,2023.2.3,Win32,60.240963855400565,,,,,,1527.1583000000007,340,5,1527.1584000000003,340,,,,1531.3306999999993,1531.8298000000007,1530.8183000000008,1531.3305,1528.1505999999997,1530.8181999999993,1531.8299000000004,1532.3319999999999,1532.3319999999999,1533.9018000000008,1216,1533.902,2,1533.9070999999997,5,4,154,24,1,1.6,0.3,Time
,,657789,001,男,20,2025-06-03_22h06.52.295,Serial_Dependence_U,2023.2.3,Win32,60.240963855400565,,,,,,1533.9073000000008,182,5,1533.9074000000003,182,,,,1537.497,1538.0000999999995,1536.9849000000004,1537.4968000000008,1534.9134000000004,1536.9849000000004,1538.0000999999995,1538.4986999999992,1538.4986999999992,1540.085,1278,1540.085,4,1540.09,5,5,155,21,1,1,0.3,Time
,,657789,001,男,20,2025-06-03_22h06.52.295,Serial_Dependence_U,2023.2.3,Win32,60.240963855400565,,,,,,1540.0900999999997,265,5,1540.0901999999992,265,,,,1543.6678000000006,1544.1625,1543.1465999999996,1543.6675999999995,1541.0848000000008,1543.1464000000003,1544.1626999999992,1544.6669000000004,1544.6669000000004,1546.5354000000004,1534,1546.5355999999997,5,1546.5405,5,6,156,11,1,1,0.3,Time
,,657789,001,男,20,2025-06-03_22h06.52.295,Serial_Dependence_U,2023.2.3,Win32,60.240963855400565,,,,,,1546.5405999999996,241,5,1546.5406999999993,241,,,,1550.6671999999992,1551.1661999999992,1550.1661999999992,1550.6670999999997,1547.5341999999991,1550.1661999999992,1551.1663000000008,1551.6619000000003,1551.6620999999996,1553.7676999999992,1892,1553.7676999999992,4,1553.7731999999992,5,7,157,19,1,1.6,0.7,Time
,,657789,001,男,20,2025-06-03_22h06.52.295,Serial_Dependence_U,2023.2.3,Win32,60.240963855400565,,,,,,1553.7734000000003,47,5,1553.7734000000003,47,,,,1557.5176999999992,1558.016,1557.0175,1557.5175999999997,1554.7825,1557.0174000000004,1558.016,1558.5159000000003,1558.516,1561.1840999999997,1768,1561.1840999999997,5,1561.1896999999992,5,8,158,17,1,1.2,0.7,Time
,,657789,001,男,20,2025-06-03_22h06.52.295,Serial_Dependence_U,2023.2.3,Win32,60.240963855400565,,,,,,1561.1899000000003,220,5,1561.19,220,,,,1565.383,1565.8779000000004,1564.8671999999992,1565.383,1562.2000999999996,1564.8670999999997,1565.878,1566.3823000000007,1566.3823000000007,1569.568,2233,1569.5681999999993,5,1569.5733000000007,5,9,159,4,1,1.6,0.3,Time
,,657789,001,男,20,2025-06-03_22h06.52.295,Serial_Dependence_U,2023.2.3,Win32,60.240963855400565,,,,,,1569.5735,281,5,1569.5735,281,,,,1573.345,1573.8441999999993,1572.8335,1573.3446999999992,1570.5814000000003,1572.8334000000004,1573.8443000000007,1574.3446999999992,1574.3448000000008,1576.267,1568,1576.267,5,1576.272,5,10,160,27,1,1.2,0.7,Time
,,657789,001,男,20,2025-06-03_22h06.52.295,Serial_Dependence_U,2023.2.3,Win32,60.240963855400565,,,,,,1576.2720999999997,73,5,1576.2720999999997,73,,,,1579.8159000000003,1580.3106999999993,1579.2998000000007,1579.8158000000008,1577.2641999999992,1579.2996999999993,1580.3109000000004,1580.811,1580.8110999999997,1582.1778000000006,1001,1582.1779000000004,3,1582.1835999999996,5,11,161,6,1,1,0.7,Time
,,657789,001,男,20,2025-06-03_22h06.52.295,Serial_Dependence_U,2023.2.3,Win32,60.240963855400565,,,,,,1582.1839000000004,153,5,1582.184,153,,,,1586.3664000000003,1586.8603000000007,1585.8655999999996,1586.3663000000008,1583.1975,1585.8654000000004,1586.8603000000007,1587.3603000000007,1587.3605,1589.0660999999996,1416,1589.0661999999993,2,1589.0711999999992,5,12,162,14,1,1.6,0.3,Time
,,657789,001,男,20,2025-06-03_22h06.52.295,Serial_Dependence_U,2023.2.3,Win32,60.240963855400565,,,,,,1589.0714000000003,32,5,1589.0715,32,,,,1592.4274000000003,1592.927,1591.917,1592.4273000000007,1590.0824000000005,1591.9169000000004,1592.9270999999997,1593.4268000000006,1593.427,1594.9806999999992,1149,1594.9806999999992,5,1594.9854000000003,5,13,163,15,1,0.8,0.7,Time
,,657789,001,男,20,2025-06-03_22h06.52.295,Serial_Dependence_U,2023.2.3,Win32,60.240963855400565,,,,,,1594.9855,304,5,1594.9856999999993,304,,,,1598.3445,1598.8476999999993,1597.8325,1598.3441999999993,1595.9986999999992,1597.8325,1598.8476999999993,1599.3430999999996,1599.3433000000007,1601.0669000000003,1444,1601.067,5,1601.0719000000004,5,14,164,5,1,0.8,0.7,Time
,,657789,001,男,20,2025-06-03_22h06.52.295,Serial_Dependence_U,2023.2.3,Win32,60.240963855400565,,,,,,1601.0720999999996,305,5,1601.0721999999992,305,,,,1605.0439000000003,1605.5468000000008,1604.5318000000007,1605.0435999999995,1602.08,1604.5315999999996,1605.5468000000008,1606.043,1606.0430999999996,1607.932,1500,1607.9320999999995,4,1607.9376999999993,5,15,165,8,1,1.4,0.7,Time
,,657789,001,男,20,2025-06-03_22h06.52.295,Serial_Dependence_U,2023.2.3,Win32,60.240963855400565,,,,,,1607.9379999999999,7,5,1607.9379999999999,7,,,,1612.098,1612.5953000000006,1611.5819000000004,1612.098,1608.9313000000006,1611.5819000000004,1612.5953000000006,1613.0921999999991,1613.0924000000005,1615.2821999999992,1962,1615.2824000000003,4,1615.2870999999996,5,16,166,9,1,1.6,0.7,Time
,,657789,001,男,20,2025-06-03_22h06.52.295,Serial_Dependence_U,2023.2.3,Win32,60.240963855400565,,,,,,1615.2871999999993,138,5,1615.2873000000006,138,,,,1619.2596999999992,1619.7589000000003,1618.7475,1619.2594000000004,1616.2978000000007,1618.7474000000004,1619.759,1620.2634000000003,1620.2634000000003,1622.1145999999997,1574,1622.1145999999997,4,1622.1200999999996,5,17,167,18,1,1.4,0.7,Time
,,657789,001,男,20,2025-06-03_22h06.52.295,Serial_Dependence_U,2023.2.3,Win32,60.240963855400565,,,,,,1622.1204000000002,14,5,1622.1204000000002,14,,,,1625.4805999999996,1625.9755,1624.9765,1625.4805999999996,1623.1140999999996,1624.9763000000007,1625.9755,1626.4779000000003,1626.4779000000003,1628.4315,1642,1628.4315999999997,5,1628.4365,5,18,168,0,1,0.8,0.3,Time
,,657789,001,男,20,2025-06-03_22h06.52.295,Serial_Dependence_U,2023.2.3,Win32,60.240963855400565,,,,,,1628.4366999999993,272,5,1628.4366999999993,272,,,,1631.8138000000008,1632.3085999999996,1631.3095999999996,1631.8136999999992,1629.4474000000002,1631.3095,1632.3086999999991,1632.8085,1632.8085999999996,1634.7478000000008,1750,1634.7479000000003,5,1634.7526999999993,5,19,169,20,1,0.8,0.3,Time
,,657789,001,男,20,2025-06-03_22h06.52.295,Serial_Dependence_U,2023.2.3,Win32,60.240963855400565,,,,,,1634.7529000000004,227,5,1634.753,227,,,,1638.729,1639.2245,1638.2093000000007,1638.729,1635.7469000000003,1638.2090999999996,1639.2245999999996,1639.7245,1639.7245999999996,1641.6634000000004,1649,1641.6634000000004,4,1641.6688000000008,5,20,170,23,1,1.4,0.3,Time
,,657789,001,男,20,2025-06-03_22h06.52.295,Serial_Dependence_U,2023.2.3,Win32,60.240963855400565,,,,,,1641.6689999999999,255,5,1641.6690999999996,255,,,,1645.0629000000004,1645.5578000000007,1644.5459000000003,1645.0629000000004,1642.6785999999995,1644.5458000000008,1645.5579000000002,1646.0575,1646.0576999999992,1647.9635,1617,1647.9635,5,1647.9686999999992,5,21,171,10,1,0.8,0.3,Time
,,657789,001,男,20,2025-06-03_22h06.52.295,Serial_Dependence_U,2023.2.3,Win32,60.240963855400565,,,,,,1647.9689000000003,84,5,1647.969,84,,,,1651.7625999999996,1652.2575,1651.2465,1651.7625,1648.9800999999995,1651.2464000000004,1652.2576999999992,1652.7451999999992,1652.7453000000007,1654.6628000000007,1594,1654.6628000000007,5,1654.6676999999993,5,22,172,22,1,1.2,0.3,Time
,,657789,001,男,20,2025-06-03_22h06.52.295,Serial_Dependence_U,2023.2.3,Win32,60.240963855400565,,,,,,1654.6678000000006,249,5,1654.6679000000004,249,,,,1658.6453000000008,1659.1406999999992,1658.1248000000007,1658.6451999999992,1655.6625,1658.1245,1659.1409000000003,1659.6399999999999,1659.6401999999991,1661.5736999999992,1593,1661.5739000000003,4,1661.5791999999992,5,23,173,3,1,1.4,0.3,Time
,,657789,001,男,20,2025-06-03_22h06.52.295,Serial_Dependence_U,2023.2.3,Win32,60.240963855400565,,,,,,1661.5794000000003,199,5,1661.5794000000003,199,,,,1665.5746999999992,1666.0735,1665.0629000000004,1665.5744000000004,1662.596,1665.0628000000008,1666.0735999999997,1666.5760999999995,1666.5760999999995,1668.9124000000004,2000,1668.9125,5,1668.9178000000006,5,24,174,13,1,1.4,0.3,Time
,,657789,001,男,20,2025-06-03_22h06.52.295,Serial_Dependence_U,2023.2.3,Win32,60.240963855400565,,,,,,1668.9179000000004,218,5,1668.9180999999996,218,,,,1672.462,1672.9563000000007,1671.9460999999997,1672.4619000000002,1669.9124000000004,1671.946,1672.9564000000003,1673.4605999999997,1673.4606999999992,1675.4628000000007,1725,1675.4628000000007,5,1675.4676999999992,5,25,175,16,1,1,0.7,Time
,,657789,001,男,20,2025-06-03_22h06.52.295,Serial_Dependence_U,2023.2.3,Win32,60.240963855400565,,,,,,1675.4678000000008,18,5,1675.4679000000003,18,,,,1679.6283000000008,1680.1226999999992,1679.1115,1679.6283000000008,1676.4786999999992,1679.1114000000005,1680.1228000000008,1680.6230999999996,1680.6233000000007,1683.3954000000003,2450,1683.3954000000003,5,1683.4009000000003,5,26,176,29,1,1.6,0.7,Time
,,657789,001,男,20,2025-06-03_22h06.52.295,Serial_Dependence_U,2023.2.3,Win32,60.240963855400565,,,,,,1683.4010999999996,119,5,1683.4010999999996,119,,,,1687.3734000000004,1687.8724000000004,1686.8615,1687.3731999999993,1684.411,1686.8614000000005,1687.8725999999997,1688.3725999999997,1688.3728000000008,1690.4785,1883,1690.4785999999997,5,1690.4840999999997,5,27,177,28,1,1.4,0.7,Time
,,657789,001,男,20,2025-06-03_22h06.52.295,Serial_Dependence_U,2023.2.3,Win32,60.240963855400565,,,,,,1690.4843000000008,99,5,1690.4844000000003,99,,,,1694.2393000000006,1694.7389000000003,1693.7279000000003,1694.2390999999996,1691.4779000000003,1693.7276999999992,1694.7390999999996,1695.2386999999992,1695.2389000000003,1697.7276999999992,2161,1697.7276999999992,5,1697.7326999999993,5,28,178,7,1,1.2,0.7,Time
,,657789,001,男,20,2025-06-03_22h06.52.295,Serial_Dependence_U,2023.2.3,Win32,60.240963855400565,,,,,,1697.7329000000004,219,5,1697.7329000000004,219,,,,1701.4936999999993,1701.9886999999992,1700.9895999999997,1701.4935999999996,1698.7275,1700.9894000000004,1701.9888000000008,1702.4886999999992,1702.4888000000008,1704.3775999999996,1517,1704.3776999999993,4,1704.3830999999996,5,29,179,12,1,1.2,0.3,Time
,,657789,001,男,20,2025-06-03_22h06.52.295,Serial_Dependence_U,2023.2.3,Win32,60.240963855400565,,,,,,1704.3831999999993,123,6,1707.1253000000008,123,s,2.7315999999996166,,1710.8934000000004,1711.3875999999996,1710.3773000000008,1710.8934000000004,1708.1278000000007,1710.3771999999992,1711.3876999999993,1711.8935999999997,1711.8936999999992,1713.8384000000003,1568,1713.8385999999996,5,1713.8436999999992,6,0,180,7,1,1.2,0.7,Time
,,657789,001,男,20,2025-06-03_22h06.52.295,Serial_Dependence_U,2023.2.3,Win32,60.240963855400565,,,,,,1713.8439000000003,244,6,1713.8445999999997,244,,,,1717.2430999999997,1717.7375,1716.7268000000008,1717.2430999999997,1714.855,1716.7266999999993,1717.7375999999997,1718.238,1718.2380999999996,1720.6876999999993,2070,1720.6878000000008,5,1720.6935999999996,6,1,181,0,1,0.8,0.3,Time
,,657789,001,男,20,2025-06-03_22h06.52.295,Serial_Dependence_U,2023.2.3,Win32,60.240963855400565,,,,,,1720.6938000000007,283,6,1720.6939000000004,283,,,,1724.6764000000003,1725.1709000000003,1724.158,1724.6764000000003,1721.6928000000007,1724.158,1725.171,1725.6709000000003,1725.671,1727.6541999999993,1672,1727.6543000000008,4,1727.66,6,2,182,23,1,1.4,0.3,Time
,,657789,001,男,20,2025-06-03_22h06.52.295,Serial_Dependence_U,2023.2.3,Win32,60.240963855400565,,,,,,1727.6603000000007,45,6,1727.6604000000004,45,,,,1731.2594000000004,1731.754,1730.7424000000003,1731.2593000000006,1728.6755999999996,1730.7424000000003,1731.7540999999997,1732.254,1732.2541999999992,1773.6186999999993,1754,1773.6188000000006,5,1773.6248000000007,6,3,183,11,1,1,0.3,Time
,,657789,001,男,20,2025-06-03_22h06.52.295,Serial_Dependence_U,2023.2.3,Win32,60.240963855400565,,,,,,1773.6249000000003,217,6,1773.625,217,,,,1777.4064000000003,1777.902,1776.8859000000004,1777.4063000000008,1774.6238000000008,1776.8856999999991,1777.902,1778.4018000000008,1778.4019000000003,1780.3740999999995,1684,1780.3740999999995,5,1780.3799000000004,6,4,184,12,1,1.2,0.3,Time
,,657789,001,男,20,2025-06-03_22h06.52.295,Serial_Dependence_U,2023.2.3,Win32,60.240963855400565,,,,,,1780.3800999999996,67,6,1780.3800999999996,67,,,,1783.7523000000008,1784.2510999999995,1783.2410999999995,1783.7521999999992,1781.3904000000005,1783.2410999999995,1784.2511999999992,1784.7391999999993,1784.7391999999993,1786.7239000000004,1700,1786.7239000000004,5,1786.7289000000003,6,5,185,25,1,0.8,0.7,Time
,,657789,001,男,20,2025-06-03_22h06.52.295,Serial_Dependence_U,2023.2.3,Win32,60.240963855400565,,,,,,1786.729,358,6,1786.7290999999996,358,,,,1790.9065,1791.4013000000007,1790.3904000000005,1790.9065,1787.7404000000004,1790.3903000000007,1791.4014000000004,1791.9013000000007,1791.9014000000004,1794.2176999999992,1957,1794.2178000000008,4,1794.2238000000007,6,6,186,9,1,1.6,0.7,Time
,,657789,001,男,20,2025-06-03_22h06.52.295,Serial_Dependence_U,2023.2.3,Win32,60.240963855400565,,,,,,1794.224,168,6,1794.2240999999997,168,,,,1798.187699999999,1798.6838000000007,1797.685,1798.187699999999,1795.2229000000004,1797.6846999999993,1798.6840000000002,1799.1844999999998,1799.1846999999993,1801.2399000000005,1800,1801.2399999999998,4,1801.245,6,7,187,13,1,1.4,0.3,Time
,,657789,001,男,20,2025-06-03_22h06.52.295,Serial_Dependence_U,2023.2.3,Win32,60.240963855400565,,,,,,1801.2451999999994,345,6,1801.245300000001,345,,,,1805.2010999999998,1805.7003000000009,1804.689300000001,1805.2009000000003,1802.2560999999996,1804.6891999999993,1805.7005,1806.2003000000009,1806.2005,1811.9561999999992,1750,1811.9561999999992,4,1811.9614000000001,6,8,188,18,1,1.4,0.7,Time
,,657789,001,男,20,2025-06-03_22h06.52.295,Serial_Dependence_U,2023.2.3,Win32,60.240963855400565,,,,,,1811.9615999999996,333,6,1811.9615999999996,333,,,,1816.117800000001,1816.6165,1815.6059000000005,1816.1174999999998,1812.9726999999993,1815.6058000000007,1816.6166999999991,1817.1166999999991,1817.1168000000007,1819.2555999999995,1566,1819.2556999999993,3,1819.2615999999998,6,9,189,19,1,1.6,0.7,Time
,,657789,001,男,20,2025-06-03_22h06.52.295,Serial_Dependence_U,2023.2.3,Win32,60.240963855400565,,,,,,1819.2619000000004,337,6,1819.2620000000002,337,,,,1822.817199999999,1823.3190999999997,1822.3049999999998,1822.817,1820.2714999999998,1822.3049999999998,1823.3190999999997,1823.8158000000008,1823.8160999999996,1826.1053000000006,1967,1826.1053000000006,5,1826.1103000000007,6,10,190,16,1,1,0.7,Time
,,657789,001,男,20,2025-06-03_22h06.52.295,Serial_Dependence_U,2023.2.3,Win32,60.240963855400565,,,,,,1826.1104999999998,285,6,1826.1104999999998,285,,,,1829.4544999999998,1829.9490999999998,1828.9505,1829.4544000000005,1827.1168000000007,1828.9501999999993,1829.949199999999,1830.4493000000007,1830.4495000000002,1832.6388000000006,1851,1832.6389000000004,5,1832.6440999999995,6,11,191,5,1,0.8,0.7,Time
,,657789,001,男,20,2025-06-03_22h06.52.295,Serial_Dependence_U,2023.2.3,Win32,60.240963855400565,,,,,,1832.6443000000008,332,6,1832.6443000000008,332,,,,1836.2216999999991,1836.7150999999994,1835.7046999999993,1836.2216999999991,1833.6543000000006,1835.7045999999996,1836.7153000000008,1837.2190999999998,1837.2190999999998,1839.3545,1850,1839.3545999999997,5,1839.3593000000005,6,12,192,26,1,1,0.7,Time
,,657789,001,男,20,2025-06-03_22h06.52.295,Serial_Dependence_U,2023.2.3,Win32,60.240963855400565,,,,,,1839.3595,32,6,1839.3595,32,,,,1843.3190999999997,1843.815199999999,1842.8044000000004,1843.3190999999997,1840.3709000000003,1842.8043000000007,1843.8153000000007,1844.3154000000004,1844.3155999999994,1846.5878000000007,1933,1846.5879000000004,5,1846.5930999999996,6,13,193,28,1,1.4,0.7,Time
,,657789,001,男,20,2025-06-03_22h06.52.295,Serial_Dependence_U,2023.2.3,Win32,60.240963855400565,,,,,,1846.593300000001,207,6,1846.5934000000002,207,,,,1850.7658000000006,1851.2646999999993,1850.2536999999993,1850.7655,1847.5870999999997,1850.2535999999996,1851.2649000000006,1851.7651999999994,1851.765300000001,1854.1379000000002,2051,1854.138,4,1854.1429000000003,6,14,194,4,1,1.6,0.3,Time
,,657789,001,男,20,2025-06-03_22h06.52.295,Serial_Dependence_U,2023.2.3,Win32,60.240963855400565,,,,,,1854.1430999999998,313,6,1854.143199999999,313,,,,1858.2823000000008,1858.7813000000006,1857.7696999999994,1858.2820999999994,1855.1361999999995,1857.7696999999994,1858.7814000000003,1859.2814000000003,1859.2818000000007,1861.6706999999992,2109,1861.6706999999992,5,1861.676,6,15,195,29,1,1.6,0.7,Time
,,657789,001,男,20,2025-06-03_22h06.52.295,Serial_Dependence_U,2023.2.3,Win32,60.240963855400565,,,,,,1861.6761999999994,76,6,1861.6761999999994,76,,,,1865.2530999999994,1865.752,1864.7323000000006,1865.2530000000002,1862.669699999999,1864.7320999999997,1865.752,1866.2476999999994,1866.2479000000003,1868.6875999999997,2051,1868.6875999999997,5,1868.6929999999998,6,16,196,21,1,1,0.3,Time
,,657789,001,男,20,2025-06-03_22h06.52.295,Serial_Dependence_U,2023.2.3,Win32,60.240963855400565,,,,,,1868.6931999999993,102,6,1868.6933000000008,102,,,,1872.9024000000004,1873.3973000000005,1872.3814000000002,1872.9024000000004,1869.7150000000001,1872.3811999999994,1873.3974000000003,1873.9009999999998,1873.9009999999998,1876.6205,2184,1876.6205999999997,5,1876.6256999999991,6,17,197,14,1,1.6,0.3,Time
,,657789,001,男,20,2025-06-03_22h06.52.295,Serial_Dependence_U,2023.2.3,Win32,60.240963855400565,,,,,,1876.6259000000005,110,6,1876.6260000000002,110,,,,1880.5860999999995,1881.0803000000005,1880.0694000000003,1880.5859000000005,1877.6364000000003,1880.0691999999995,1881.0804000000003,1881.5804000000003,1881.5805,1883.7528000000007,1800,1883.7528000000007,4,1883.7575999999995,6,18,198,8,1,1.4,0.7,Time
,,657789,001,男,20,2025-06-03_22h06.52.295,Serial_Dependence_U,2023.2.3,Win32,60.240963855400565,,,,,,1883.7578000000008,273,6,1883.7578000000008,273,,,,1887.0976999999993,1887.5969000000005,1886.5853000000006,1887.0974999999999,1884.750199999999,1886.5850999999998,1887.5969000000005,1888.1004000000003,1888.1004000000003,1890.3020999999994,1749,1890.3020999999994,5,1890.3070999999995,6,19,199,15,1,0.8,0.7,Time
,,657789,001,男,20,2025-06-03_22h06.52.295,Serial_Dependence_U,2023.2.3,Win32,60.240963855400565,,,,,,1890.3071999999993,340,6,1890.3073000000009,340,,,,1893.7003000000009,1894.1960999999997,1893.1805,1893.7001999999993,1891.3184000000006,1893.1801999999993,1894.1963000000005,1894.6961999999994,1894.6964000000003,1896.1679000000004,1261,1896.1679000000004,5,1896.1730999999995,6,20,200,20,1,0.8,0.3,Time
,,657789,001,男,20,2025-06-03_22h06.52.295,Serial_Dependence_U,2023.2.3,Win32,60.240963855400565,,,,,,1896.1733000000008,83,6,1896.1734000000001,83,,,,1899.9680999999996,1900.466699999999,1899.4465,1899.9679999999998,1897.184800000001,1899.4463000000005,1900.466699999999,1900.9628000000007,1900.9628000000007,1902.4515000000001,1018,1902.4515999999994,2,1902.4565999999995,6,21,201,22,1,1.2,0.3,Time
,,657789,001,男,20,2025-06-03_22h06.52.295,Serial_Dependence_U,2023.2.3,Win32,60.240963855400565,,,,,,1902.4566999999993,186,6,1902.4568000000008,186,,,,1906.0179000000003,1906.5121999999992,1905.5133000000005,1906.0178000000005,1903.4515000000001,1905.5130999999997,1906.5123000000008,1907.0165000000002,1907.0165000000002,1909.0023000000006,1734,1909.0024000000003,5,1909.0075999999995,6,22,202,1,1,1,0.3,Time
,,657789,001,男,20,2025-06-03_22h06.52.295,Serial_Dependence_U,2023.2.3,Win32,60.240963855400565,,,,,,1909.0078000000008,117,6,1909.0079000000005,117,,,,1912.7630999999997,1913.2628000000009,1912.2506999999991,1912.7628000000009,1910.0169000000005,1912.2506999999991,1913.2630999999997,1913.7669000000005,1913.7669000000005,1915.7851999999993,1815,1915.785300000001,5,1915.79,6,23,203,27,1,1.2,0.7,Time
,,657789,001,男,20,2025-06-03_22h06.52.295,Serial_Dependence_U,2023.2.3,Win32,60.240963855400565,,,,,,1915.7900999999997,289,6,1915.7901999999995,289,,,,1919.3630999999996,1919.8620999999998,1918.851,1919.3628000000008,1916.800800000001,1918.8509000000004,1919.8621999999991,1920.362,1920.3621999999991,1922.3285,1662,1922.3285999999998,5,1922.3338000000008,6,24,204,6,1,1,0.7,Time
,,657789,001,男,20,2025-06-03_22h06.52.295,Serial_Dependence_U,2023.2.3,Win32,60.240963855400565,,,,,,1922.3339999999998,102,6,1922.3340999999996,102,,,,1926.3153000000007,1926.8114000000005,1925.7986999999994,1926.315199999999,1923.3333000000007,1925.7984999999999,1926.8115999999995,1927.3114000000005,1927.3115999999995,1929.4835999999996,1916,1929.4836999999993,5,1929.489,6,25,205,3,1,1.4,0.3,Time
,,657789,001,男,20,2025-06-03_22h06.52.295,Serial_Dependence_U,2023.2.3,Win32,60.240963855400565,,,,,,1929.4890999999998,144,6,1929.489199999999,144,,,,1932.8498000000009,1933.3444000000004,1932.3455,1932.8498000000009,1930.4829000000004,1932.3453000000009,1933.3445999999994,1933.8446999999992,1933.8448000000008,1935.4506999999994,1333,1935.4508000000005,5,1935.4555,6,26,206,10,1,0.8,0.3,Time
,,657789,001,男,20,2025-06-03_22h06.52.295,Serial_Dependence_U,2023.2.3,Win32,60.240963855400565,,,,,,1935.4555999999998,195,6,1935.455699999999,195,,,,1939.2498000000005,1939.7440000000001,1938.7285999999995,1939.2496999999994,1936.4615,1938.7284000000004,1939.7441999999992,1940.2444999999998,1940.2445999999995,1942.8495999999996,2316,1942.8496999999993,5,1942.855,6,27,207,2,1,1.2,0.3,Time
,,657789,001,男,20,2025-06-03_22h06.52.295,Serial_Dependence_U,2023.2.3,Win32,60.240963855400565,,,,,,1942.855199999999,4,6,1942.8553000000006,4,,,,1947.0324999999998,1947.5274000000004,1946.5281999999993,1947.0324999999998,1943.8614000000002,1946.5279999999998,1947.5274000000004,1948.0311999999994,1948.0311999999994,1951.5100999999995,3172,1951.5103000000008,5,1951.5166999999992,6,28,208,24,1,1.6,0.3,Time
,,657789,001,男,20,2025-06-03_22h06.52.295,Serial_Dependence_U,2023.2.3,Win32,60.240963855400565,,,,,,1951.5169000000005,170,6,1951.5169000000005,170,,,,1955.2941999999994,1955.7934999999998,1954.7824999999998,1955.2939999999999,1952.5320999999994,1954.7824000000005,1955.7936999999993,1956.2979000000005,1956.2979000000005,1958.127,1689,1958.1270999999997,5,1958.1325000000002,6,29,209,17,1,1.2,0.7,Time
,,657789,001,男,20,2025-06-03_22h06.52.295,Serial_Dependence_U,2023.2.3,Win32,60.240963855400565,,,,,,1958.1325999999995,178,7,1960.1931999999993,178,s,2.0385999999998603,,1963.7981999999993,1964.2970999999998,1963.2818000000007,1963.7980999999995,1961.2151999999992,1963.2818000000007,1964.2970999999998,1964.7933000000007,1964.7934000000005,1966.7320999999997,1744,1966.7320999999997,5,1966.737,7,0,210,11,1,1,0.3,Time
,,657789,001,男,20,2025-06-03_22h06.52.295,Serial_Dependence_U,2023.2.3,Win32,60.240963855400565,,,,,,1966.7371999999991,100,7,1966.7376999999992,100,,,,1970.3314000000005,1970.8260999999998,1969.810699999999,1970.3313000000007,1967.748199999999,1969.8105,1970.826199999999,1971.326199999999,1971.3263000000006,1973.3426999999992,1750,1973.3429000000006,5,1973.348699999999,7,1,211,1,1,1,0.3,Time
,,657789,001,男,20,2025-06-03_22h06.52.295,Serial_Dependence_U,2023.2.3,Win32,60.240963855400565,,,,,,1973.3489000000004,159,7,1973.3490000000002,159,,,,1977.5436999999993,1978.0468000000005,1977.0313000000006,1977.5434999999998,1974.3644000000004,1977.0310999999997,1978.0468000000005,1978.5425999999998,1978.5428000000006,1980.8980999999994,2211,1980.8981999999992,5,1980.9038000000005,7,2,212,14,1,1.6,0.3,Time
,,657789,001,男,20,2025-06-03_22h06.52.295,Serial_Dependence_U,2023.2.3,Win32,60.240963855400565,,,,,,1980.904,358,7,1980.9040999999997,358,,,,1984.2480999999998,1984.7421999999992,1983.7471999999993,1984.248,1981.9139999999998,1983.7470999999996,1984.7423000000008,1985.2420999999995,1985.2423000000008,1986.8314999999998,1300,1986.8314999999998,5,1986.8364000000001,7,3,213,25,1,0.8,0.7,Time
,,657789,001,男,20,2025-06-03_22h06.52.295,Serial_Dependence_U,2023.2.3,Win32,60.240963855400565,,,,,,1986.8365999999996,269,7,1986.8366999999994,269,,,,1990.3970999999997,1990.8914000000004,1989.8805999999995,1990.3970999999997,1987.8474000000006,1989.8805999999995,1990.8915000000002,1991.3960000000002,1991.3960000000002,1993.1488000000008,1468,1993.1488000000008,5,1993.154,7,4,214,6,1,1,0.7,Time
,,657789,001,男,20,2025-06-03_22h06.52.295,Serial_Dependence_U,2023.2.3,Win32,60.240963855400565,,,,,,1993.1540999999997,4,7,1993.154199999999,4,,,,1997.1256999999991,1997.6248000000005,1996.613300000001,1997.1255,1994.1796999999992,1996.6131999999993,1997.625,1998.1249000000003,1998.125199999999,2000.6455999999998,2284,2000.6456999999991,5,2000.6505000000002,7,5,215,18,1,1.4,0.7,Time
,,657789,001,男,20,2025-06-03_22h06.52.295,Serial_Dependence_U,2023.2.3,Win32,60.240963855400565,,,,,,2000.6506999999992,160,7,2000.6506999999992,160,,,,2004.6256999999991,2005.1245999999996,2004.1134000000002,2004.6254000000004,2001.6635,2004.113300000001,2005.1246999999994,2005.6280999999994,2005.6280999999994,2007.9469000000004,2200,2007.9469000000004,5,2007.9524000000006,7,6,216,28,1,1.4,0.7,Time
,,657789,001,男,20,2025-06-03_22h06.52.295,Serial_Dependence_U,2023.2.3,Win32,60.240963855400565,,,,,,2007.9524999999999,346,7,2007.9524999999999,346,,,,2012.1294000000003,2012.6281999999992,2011.6129000000005,2012.1293000000005,2008.9464000000003,2011.6129000000005,2012.6281999999992,2013.1284999999998,2013.1285999999996,2016.8303000000005,3334,2016.8305,5,2016.8358000000007,7,7,217,4,1,1.6,0.3,Time
,,657789,001,男,20,2025-06-03_22h06.52.295,Serial_Dependence_U,2023.2.3,Win32,60.240963855400565,,,,,,2016.8359000000005,232,7,2016.8359999999998,232,,,,2020.5914000000002,2021.0904000000005,2020.078199999999,2020.5911999999994,2017.8449000000005,2020.078199999999,2021.0904999999998,2021.5904999999998,2021.5905999999995,2024.0641999999993,2135,2024.064300000001,5,2024.0698000000007,7,8,218,17,1,1.2,0.7,Time
,,657789,001,男,20,2025-06-03_22h06.52.295,Serial_Dependence_U,2023.2.3,Win32,60.240963855400565,,,,,,2024.0700999999995,43,7,2024.0700999999995,43,,,,2027.6625,2028.1569000000004,2027.1458000000007,2027.6624000000002,2025.0945000000002,2027.1456999999991,2028.1569000000004,2028.6569000000004,2028.6570000000002,2030.7290999999996,1900,2030.7291999999993,5,2030.734,7,9,219,16,1,1,0.7,Time
,,657789,001,男,20,2025-06-03_22h06.52.295,Serial_Dependence_U,2023.2.3,Win32,60.240963855400565,,,,,,2030.7343000000005,282,7,2030.7343000000005,282,,,,2034.2908000000007,2034.7894999999999,2033.7793000000006,2034.2905,2031.7455999999997,2033.779199999999,2034.7896999999994,2035.2774000000004,2035.2774000000004,2037.3733000000007,1800,2037.3735000000001,5,2037.3786999999993,7,10,220,26,1,1,0.7,Time
,,657789,001,男,20,2025-06-03_22h06.52.295,Serial_Dependence_U,2023.2.3,Win32,60.240963855400565,,,,,,2037.3789000000002,195,7,2037.3789000000002,195,,,,2041.3618000000006,2041.8604999999998,2040.8406999999993,2041.361699999999,2038.3778000000007,2040.8404999999998,2041.8604999999998,2042.3559999999998,2042.3561999999993,2044.4630999999995,1851,2044.4631999999992,5,2044.468300000001,7,11,221,23,1,1.4,0.3,Time
,,657789,001,男,20,2025-06-03_22h06.52.295,Serial_Dependence_U,2023.2.3,Win32,60.240963855400565,,,,,,2044.4685999999997,160,7,2044.4686999999994,160,,,,2048.0568000000007,2048.5558000000005,2047.5403000000006,2048.0565,2045.478,2047.5400999999997,2048.556,2049.0556999999994,2049.0558000000005,2051.0784000000003,1844,2051.0784000000003,5,2051.0834000000004,7,12,222,21,1,1,0.3,Time
,,657789,001,男,20,2025-06-03_22h06.52.295,Serial_Dependence_U,2023.2.3,Win32,60.240963855400565,,,,,,2051.0835,183,7,2051.0835999999995,183,,,,2054.827300000001,2055.3249000000005,2054.311,2054.8271999999993,2052.078,2054.3109000000004,2055.3249000000005,2055.822,2055.822199999999,2058.0890999999997,1983,2058.0891999999994,5,2058.095,7,13,223,27,1,1.2,0.7,Time
,,657789,001,男,20,2025-06-03_22h06.52.295,Serial_Dependence_U,2023.2.3,Win32,60.240963855400565,,,,,,2058.0950999999995,63,7,2058.0950999999995,63,,,,2061.494,2061.992800000001,2060.9725999999996,2061.494,2059.1105,2060.9724000000006,2061.992800000001,2062.4889000000003,2062.4889000000003,2064.994800000001,2217,2064.994800000001,5,2064.9995,7,14,224,0,1,0.8,0.3,Time
,,657789,001,男,20,2025-06-03_22h06.52.295,Serial_Dependence_U,2023.2.3,Win32,60.240963855400565,,,,,,2064.9996999999994,12,7,2064.9996999999994,12,,,,2068.3436999999994,2068.8381999999992,2067.8268000000007,2068.3435999999997,2065.9938000000006,2067.826699999999,2068.838300000001,2069.3384000000005,2069.3385999999996,2071.6439000000005,2061,2071.644,5,2071.6486999999993,7,15,225,5,1,0.8,0.7,Time
,,657789,001,男,20,2025-06-03_22h06.52.295,Serial_Dependence_U,2023.2.3,Win32,60.240963855400565,,,,,,2071.6489,102,7,2071.649,102,,,,2075.407800000001,2075.904699999999,2074.889199999999,2075.4076999999993,2072.6555999999996,2074.889,2075.9048000000007,2076.4045999999994,2076.4048000000007,2078.4445,1851,2078.444699999999,5,2078.4495999999995,7,16,226,7,1,1.2,0.7,Time
,,657789,001,男,20,2025-06-03_22h06.52.295,Serial_Dependence_U,2023.2.3,Win32,60.240963855400565,,,,,,2078.449699999999,97,7,2078.449800000001,97,,,,2081.8593000000005,2082.354300000001,2081.3429000000006,2081.8593000000005,2079.4764999999998,2081.3429000000006,2082.3544,2082.8544,2082.8545999999997,2084.793800000001,1778,2084.7939000000006,5,2084.799,7,17,227,20,1,0.8,0.3,Time
,,657789,001,男,20,2025-06-03_22h06.52.295,Serial_Dependence_U,2023.2.3,Win32,60.240963855400565,,,,,,2084.7990999999997,248,7,2084.799199999999,248,,,,2088.5714000000003,2089.0704000000005,2088.0594000000006,2088.5711999999994,2085.7925999999998,2088.059300000001,2089.0705,2089.558,2089.5580999999997,2091.654,2006,2091.654,5,2091.6595999999995,7,18,228,2,1,1.2,0.3,Time
,,657789,001,男,20,2025-06-03_22h06.52.295,Serial_Dependence_U,2023.2.3,Win32,60.240963855400565,,,,,,2091.659800000001,231,7,2091.6599000000006,231,,,,2095.6425,2096.141199999999,2095.1259000000005,2095.6425,2092.6596999999992,2095.1258000000007,2096.141199999999,2096.6394000000005,2096.6394000000005,2098.576699999999,1793,2098.5769000000005,4,2098.5819,7,19,229,3,1,1.4,0.3,Time
,,657789,001,男,20,2025-06-03_22h06.52.295,Serial_Dependence_U,2023.2.3,Win32,60.240963855400565,,,,,,2098.582,292,7,2098.582,292,,,,2102.7205999999996,2103.2199000000005,2102.2089000000005,2102.7204,2099.5739000000003,2102.208800000001,2103.2200999999995,2103.719699999999,2103.72,2106.103800000001,2294,2106.1039000000005,5,2106.1090999999997,7,20,230,29,1,1.6,0.7,Time
,,657789,001,男,20,2025-06-03_22h06.52.295,Serial_Dependence_U,2023.2.3,Win32,60.240963855400565,,,,,,2106.1091999999994,285,7,2106.1093000000005,285,,,,2110.091699999999,2110.5903000000008,2109.575,2110.0915999999997,2107.1246999999994,2109.575,2110.5903000000008,2111.086,2111.0860999999995,2113.492,2190,2113.492,5,2113.4974,7,21,231,8,1,1.4,0.7,Time
,,657789,001,男,20,2025-06-03_22h06.52.295,Serial_Dependence_U,2023.2.3,Win32,60.240963855400565,,,,,,2113.4975999999997,351,7,2113.4976999999994,351,,,,2116.8704000000002,2117.369199999999,2116.3579000000004,2116.8700999999996,2114.5085,2116.3579000000004,2117.369199999999,2117.873699999999,2117.8738000000008,2119.84,1722,2119.8400999999994,5,2119.8445999999994,7,22,232,15,1,0.8,0.7,Time
,,657789,001,男,20,2025-06-03_22h06.52.295,Serial_Dependence_U,2023.2.3,Win32,60.240963855400565,,,,,,2119.844699999999,350,7,2119.8448000000008,350,,,,2123.236300000001,2123.736,2122.719699999999,2123.2360999999996,2120.857699999999,2122.7195,2123.736,2124.2359,2124.236,2126.125,1583,2126.1250999999997,5,2126.130199999999,7,23,233,10,1,0.8,0.3,Time
,,657789,001,男,20,2025-06-03_22h06.52.295,Serial_Dependence_U,2023.2.3,Win32,60.240963855400565,,,,,,2126.1303000000007,198,7,2126.1304000000005,198,,,,2129.9225999999994,2130.419,2129.4074000000005,2129.9225,2127.140699999999,2129.4073000000008,2130.4191999999994,2130.9186999999993,2130.9189000000006,2133.041800000001,1634,2133.042,5,2133.0473000000006,7,24,234,12,1,1.2,0.3,Time
,,657789,001,男,20,2025-06-03_22h06.52.295,Serial_Dependence_U,2023.2.3,Win32,60.240963855400565,,,,,,2133.0475999999994,261,7,2133.0475999999994,261,,,,2137.202800000001,2137.704300000001,2136.688199999999,2137.2026999999994,2134.055300000001,2136.6880999999994,2137.704300000001,2138.2059000000004,2138.2059000000004,2140.5245999999997,2185,2140.524699999999,5,2140.529699999999,7,25,235,19,1,1.6,0.7,Time
,,657789,001,男,20,2025-06-03_22h06.52.295,Serial_Dependence_U,2023.2.3,Win32,60.240963855400565,,,,,,2140.5298000000007,71,7,2140.5298000000007,71,,,,2144.323300000001,2144.822199999999,2143.8023000000007,2144.323300000001,2141.5355,2143.8020999999994,2144.822199999999,2145.322,2145.322,2147.257199999999,1823,2147.257199999999,5,2147.262,7,26,236,22,1,1.2,0.3,Time
,,657789,001,男,20,2025-06-03_22h06.52.295,Serial_Dependence_U,2023.2.3,Win32,60.240963855400565,,,,,,2147.2620999999995,131,7,2147.262300000001,131,,,,2151.4189000000006,2151.922,2150.9018000000005,2151.4184999999998,2148.2684000000004,2150.9015999999997,2151.922,2152.4204000000004,2152.4204000000004,2154.5401999999995,2050,2154.5403000000006,4,2154.5453000000007,7,27,237,9,1,1.6,0.7,Time
,,657789,001,男,20,2025-06-03_22h06.52.295,Serial_Dependence_U,2023.2.3,Win32,60.240963855400565,,,,,,2154.5455,5,7,2154.5455,5,,,,2158.5400999999997,2159.034,2158.0178000000005,2158.54,2155.556199999999,2158.0175999999997,2159.034199999999,2159.5339000000004,2159.5340999999994,2161.4565999999995,1695,2161.4565999999995,4,2161.4620999999997,7,28,238,13,1,1.4,0.3,Time
,,657789,001,男,20,2025-06-03_22h06.52.295,Serial_Dependence_U,2023.2.3,Win32,60.240963855400565,,,,,,2161.462199999999,280,7,2161.4623000000006,280,,,,2165.6390999999994,2166.1335,2165.122300000001,2165.639,2162.4556,2165.122300000001,2166.1335999999997,2166.6364000000003,2166.6364000000003,2169.3735,2583,2169.373699999999,5,2169.378800000001,7,29,239,24,1,1.6,0.3,Time
,,657789,001,男,20,2025-06-03_22h06.52.295,Serial_Dependence_U,2023.2.3,Win32,60.240963855400565,,,,,,2169.379,82,8,2172.050199999999,82,s,2.650699999999233,,2175.6174000000005,2176.1205,2175.105199999999,2175.6170999999995,2173.0675999999994,2175.1050999999998,2176.1205999999997,2176.6160999999997,2176.6163000000006,2178.2055,1435,2178.2055,5,2178.2103000000006,8,0,240,26,1,1,0.7,Time
,,657789,001,男,20,2025-06-03_22h06.52.295,Serial_Dependence_U,2023.2.3,Win32,60.240963855400565,,,,,,2178.2105,348,8,2178.2110999999995,348,,,,2182.155,2182.6499000000003,2181.6505999999995,2182.1549000000005,2179.2175999999995,2181.6504000000004,2182.6499000000003,2183.1538000000005,2183.1538000000005,2185.439300000001,2167,2185.4394,5,2185.4443000000006,8,1,241,8,1,1.4,0.7,Time
,,657789,001,男,20,2025-06-03_22h06.52.295,Serial_Dependence_U,2023.2.3,Win32,60.240963855400565,,,,,,2185.4445,1,8,2185.4446,1,,,,2189.433699999999,2189.9329000000002,2188.9215999999997,2189.4335,2186.4546999999993,2188.9215999999997,2189.933,2190.4326999999994,2190.4329000000002,2192.8050999999996,2183,2192.8051999999993,5,2192.8100999999997,8,2,242,3,1,1.4,0.3,Time
,,657789,001,男,20,2025-06-03_22h06.52.295,Serial_Dependence_U,2023.2.3,Win32,60.240963855400565,,,,,,2192.8101999999994,129,8,2192.8103000000006,129,,,,2196.954199999999,2197.4491,2196.437699999999,2196.9540999999995,2193.8045999999995,2196.437699999999,2197.4493000000007,2197.9489000000003,2197.9491,2200.3214000000003,1967,2200.3215,4,2200.3269999999998,8,3,243,9,1,1.6,0.7,Time
,,657789,001,男,20,2025-06-03_22h06.52.295,Serial_Dependence_U,2023.2.3,Win32,60.240963855400565,,,,,,2200.3271999999993,244,8,2200.3271999999993,244,,,,2204.2994000000003,2204.798800000001,2203.7871999999993,2204.299199999999,2201.3205999999996,2203.7870999999996,2204.798800000001,2205.298300000001,2205.2985,2207.3039000000003,1767,2207.3041,4,2207.3094000000006,8,4,244,23,1,1.4,0.3,Time
,,657789,001,男,20,2025-06-03_22h06.52.295,Serial_Dependence_U,2023.2.3,Win32,60.240963855400565,,,,,,2207.3095,249,8,2207.3095999999996,249,,,,2210.6854000000003,2211.185699999999,2210.1705,2210.6854000000003,2208.303699999999,2210.1705,2211.1858000000007,2211.681699999999,2211.6818000000007,2214.0545,2083,2214.0546999999992,5,2214.0594000000006,8,5,245,10,1,0.8,0.3,Time
,,657789,001,男,20,2025-06-03_22h06.52.295,Serial_Dependence_U,2023.2.3,Win32,60.240963855400565,,,,,,2214.0595999999996,257,8,2214.0596999999993,257,,,,2217.6200999999996,2218.1189000000004,2217.1034000000004,2217.62,2215.0535999999997,2217.103199999999,2218.119,2218.6148000000007,2218.6148000000007,2220.504,1733,2220.5040999999997,5,2220.509,8,6,246,6,1,1,0.7,Time
,,657789,001,男,20,2025-06-03_22h06.52.295,Serial_Dependence_U,2023.2.3,Win32,60.240963855400565,,,,,,2220.509199999999,310,8,2220.5093000000006,310,,,,2224.4695999999994,2224.9640999999997,2223.9526999999994,2224.4695999999994,2221.5033000000008,2223.9526999999994,2224.9641999999994,2225.4643000000005,2225.4645,2228.021199999999,2141,2228.021300000001,5,2228.0265999999997,8,7,247,18,1,1.4,0.7,Time
,,657789,001,男,20,2025-06-03_22h06.52.295,Serial_Dependence_U,2023.2.3,Win32,60.240963855400565,,,,,,2228.0269000000003,70,8,2228.0269000000003,70,,,,2231.4358000000007,2231.9308000000005,2230.9195,2231.435699999999,2229.0525999999995,2230.9195,2231.9308000000005,2232.4349,2232.4349,2233.9363000000008,1290,2233.9363000000008,5,2233.9416999999994,8,8,248,20,1,0.8,0.3,Time
,,657789,001,男,20,2025-06-03_22h06.52.295,Serial_Dependence_U,2023.2.3,Win32,60.240963855400565,,,,,,2233.9419000000003,38,8,2233.9419000000003,38,,,,2237.7348000000006,2238.2349000000004,2237.214699999999,2237.7348000000006,2234.9525,2237.2144000000003,2238.2349000000004,2238.7345,2238.7345,2241.1033000000007,2300,2241.1033000000007,5,2241.108199999999,8,9,249,22,1,1.2,0.3,Time
,,657789,001,男,20,2025-06-03_22h06.52.295,Serial_Dependence_U,2023.2.3,Win32,60.240963855400565,,,,,,2241.108300000001,190,8,2241.1084000000005,190,,,,2245.0645999999997,2245.5635,2244.552199999999,2245.0641999999993,2242.1020999999996,2244.5520999999994,2245.5635999999995,2246.0634000000005,2246.0635999999995,2248.386699999999,2218,2248.3869000000004,5,2248.392300000001,8,10,250,28,1,1.4,0.7,Time
,,657789,001,男,20,2025-06-03_22h06.52.295,Serial_Dependence_U,2023.2.3,Win32,60.240963855400565,,,,,,2248.3924,95,8,2248.3925999999997,95,,,,2252.5808000000006,2253.079800000001,2252.0685,2252.5805,2249.4019000000003,2252.0684000000006,2253.0799,2253.5795999999996,2253.579800000001,2255.602300000001,1845,2255.6024,4,2255.6078000000007,8,11,251,24,1,1.6,0.3,Time
