Scale_setup.started,Scale_setup.stopped,participant,session,sex,age,date,expName,psychopyVersion,OS,frameRate,Intro.started,Intro.stopped,key_resp_2.keys,key_resp_2.rt,key_resp_2.duration,block.started,direction,Block_id,block.stopped,trial_direction,Block_resp_2.keys,Block_resp_2.rt,Block_resp_2.duration,ITI.started,ITI.stopped,Mask_2.started,Mask_2.stopped,encoding.started,encoding.stopped,Cue.started,Cue.stopped,Response.started,Response.stopped,keyDuration,Feedback_Time.started,FeedbackID_T,Feedback_Time.stopped,trials.thisRepN,trials.thisTrialN,trials.thisN,trials.thisIndex,trials.ran,TimeDur,Coherence1,TrialType
0.00010000002384202844,0.0003000000119186552,671778,001,,,2025-06-03_22h58.43.509,Serial_Dependence_U,2023.2.3,Win32,166.66666666666666,,,,,,,,,,,,,,,,,,,,,,,,,,,,,,,,,,,
,,671778,001,,,2025-06-03_22h58.43.509,Serial_Dependence_U,2023.2.3,Win32,166.66666666666666,54.672100000023846,74.93170000004766,space,20.23289999997614,,,,,,,,,,,,,,,,,,,,,,,,,,,,,,,
,,671778,001,,,2025-06-03_22h58.43.509,Serial_Dependence_U,2023.2.3,Win32,166.66666666666666,,,,,,74.94260000002383,353,0,78.02780000001191,353,s,3.074600000023821,,82.1673000000119,82.66349999999998,81.66430000001192,82.16710000002384,79.02860000002381,81.66430000001192,82.66370000004768,83.16070000004767,83.16090000003574,87.4575,126,87.45770000004767,1,88.45699999999998,0,0,0,19,1,1.6,0.7,Time
,,671778,001,,,2025-06-03_22h58.43.509,Serial_Dependence_U,2023.2.3,Win32,166.66666666666666,,,,,,88.45760000002382,227,0,88.45899999999999,227,,,,92.63249999999998,93.12890000003576,92.12970000004766,92.63249999999998,89.46320000004768,92.12960000002381,93.12890000003576,93.62590000003574,93.62590000003574,96.70460000002383,1608,96.70460000002383,3,97.70440000003576,0,1,1,14,1,1.6,0.3,Time
,,671778,001,,,2025-06-03_22h58.43.509,Serial_Dependence_U,2023.2.3,Win32,166.66666666666666,,,,,,97.7048000000119,268,0,97.705,268,,,,101.24410000002383,101.74010000002382,100.74070000004768,101.24390000003574,98.70470000004768,100.74060000002383,101.74020000004766,102.23699999999998,102.23710000002383,104.05520000004766,1776,104.05520000004766,5,105.0548000000119,0,2,2,6,1,1,0.7,Time
,,671778,001,,,2025-06-03_22h58.43.509,Serial_Dependence_U,2023.2.3,Win32,166.66666666666666,,,,,,105.05520000004766,31,0,105.05530000001191,31,,,,109.02440000003575,109.52099999999997,108.52160000002384,109.0243000000119,106.05490000003574,108.52149999999999,109.52099999999997,110.01790000003574,110.01790000003574,112.70890000003574,2188,112.70899999999999,5,113.7083000000119,0,3,3,23,1,1.4,0.3,Time
,,671778,001,,,2025-06-03_22h58.43.509,Serial_Dependence_U,2023.2.3,Win32,166.66666666666666,,,,,,113.70849999999997,239,0,113.70860000002382,239,,,,117.24770000004766,117.7443000000119,116.74499999999999,117.24770000004766,114.70899999999999,116.74490000003574,117.7443000000119,118.24110000002382,118.24110000002382,120.74399999999999,2035,120.74410000002383,5,121.74390000003574,0,4,4,16,1,1,0.7,Time
,,671778,001,,,2025-06-03_22h58.43.509,Serial_Dependence_U,2023.2.3,Win32,166.66666666666666,,,,,,121.74420000004766,338,0,121.7443000000119,338,,,,125.11349999999997,125.61,124.61070000004766,125.11349999999997,122.7443000000119,124.61060000002384,125.61,126.1073000000119,126.10740000003575,128.30080000001192,1792,128.30090000003577,5,129.30060000002385,0,5,5,20,1,0.8,0.3,Time
,,671778,001,,,2025-06-03_22h58.43.509,Serial_Dependence_U,2023.2.3,Win32,166.66666666666666,,,,,,129.30090000003577,338,0,129.30110000002384,338,,,,133.03990000003574,133.53630000001192,132.53699999999998,133.0398000000119,130.30080000001192,132.53699999999998,133.53640000003577,134.03330000001193,134.03330000001193,136.51220000004764,1963,136.51220000004764,5,137.5116000000238,0,6,6,7,1,1.2,0.7,Time
,,671778,001,,,2025-06-03_22h58.43.509,Serial_Dependence_U,2023.2.3,Win32,166.66666666666666,,,,,,137.51180000001193,258,0,137.512,258,,,,141.08140000003573,141.5778000000119,140.5786000000238,141.08130000001188,138.51210000002385,140.57849999999996,141.57790000003575,142.07470000004764,142.07470000004764,144.6567000000477,2146,144.6568000000119,5,145.65610000002386,0,7,7,1,1,1,0.3,Time
,,671778,001,,,2025-06-03_22h58.43.509,Serial_Dependence_U,2023.2.3,Win32,166.66666666666666,,,,,,145.65640000003577,94,0,145.6565,94,,,,149.7951000000238,150.2918000000119,149.29280000001188,149.7951000000238,146.65630000001192,149.29270000004766,150.29190000003575,150.78890000003577,150.78890000003577,152.73449999999997,1466,152.73460000002382,2,153.73399999999998,0,8,8,29,1,1.6,0.7,Time
,,671778,001,,,2025-06-03_22h58.43.509,Serial_Dependence_U,2023.2.3,Win32,166.66666666666666,,,,,,153.73440000003575,327,0,153.73449999999997,327,,,,157.70370000004766,158.20010000002384,157.20049999999998,157.70349999999996,154.73420000004768,157.20049999999998,158.2002000000477,158.697,158.69710000002385,161.4787000000477,2234,161.47880000001192,5,162.47830000001193,0,9,9,3,1,1.4,0.3,Time
,,671778,001,,,2025-06-03_22h58.43.509,Serial_Dependence_U,2023.2.3,Win32,166.66666666666666,,,,,,162.47880000001192,252,0,162.47899999999998,252,,,,165.8177000000477,166.31430000001188,165.31490000003572,165.81760000002384,163.4787000000477,165.31490000003572,166.31430000001188,166.81120000004768,166.81120000004768,169.21699999999998,1606,169.21699999999998,5,170.21690000003576,0,10,10,25,1,0.8,0.7,Time
,,671778,001,,,2025-06-03_22h58.43.509,Serial_Dependence_U,2023.2.3,Win32,166.66666666666666,,,,,,170.21740000003575,2,0,170.21749999999997,2,,,,173.7563000000119,174.25280000001192,173.25320000004768,173.7563000000119,171.21699999999998,173.25320000004768,174.25280000001192,174.74970000004765,174.74970000004765,176.35560000002386,1600,176.35570000004765,5,177.35530000001188,0,11,11,26,1,1,0.7,Time
,,671778,001,,,2025-06-03_22h58.43.509,Serial_Dependence_U,2023.2.3,Win32,166.66666666666666,,,,,,177.35570000004765,209,0,177.35580000001193,209,,,,181.09470000004768,181.59130000001193,180.59199999999998,181.09460000002383,178.35560000002386,180.59190000003576,181.59130000001193,182.089,182.08910000002385,183.86399999999998,1108,183.86399999999998,2,184.86360000002384,0,12,12,27,1,1.2,0.7,Time
,,671778,001,,,2025-06-03_22h58.43.509,Serial_Dependence_U,2023.2.3,Win32,166.66666666666666,,,,,,184.86390000003576,284,0,184.86390000003576,284,,,,188.60340000003578,189.09949999999998,188.10020000004766,188.60330000001193,185.86410000002383,188.10010000002382,189.09949999999998,189.59640000003577,189.59640000003577,191.8568000000119,1679,191.85690000003575,5,192.85649999999998,0,13,13,17,1,1.2,0.7,Time
,,671778,001,,,2025-06-03_22h58.43.509,Serial_Dependence_U,2023.2.3,Win32,166.66666666666666,,,,,,192.8568000000119,218,0,192.85690000003575,218,,,,196.80470000004766,197.30449999999996,196.29310000002386,196.80470000004766,193.85710000002382,196.293,197.30449999999996,197.80149999999998,197.80149999999998,201.17100000000005,1997,201.1711000000239,5,202.1707000000477,0,14,14,18,1,1.4,0.7,Time
,,671778,001,,,2025-06-03_22h58.43.509,Serial_Dependence_U,2023.2.3,Win32,166.66666666666666,,,,,,202.17090000003577,238,0,202.1711000000239,238,,,,205.94010000002385,206.43680000001194,205.4375,205.94010000002385,203.1707000000477,205.4375,206.4369000000358,206.93370000004774,206.93380000001196,210.12740000003578,2624,210.12750000000005,5,211.12710000002386,0,15,15,2,1,1.2,0.3,Time
,,671778,001,,,2025-06-03_22h58.43.509,Serial_Dependence_U,2023.2.3,Win32,166.66666666666666,,,,,,211.12750000000005,18,0,211.12750000000005,18,,,,215.06650000000002,215.56300000000005,214.56360000002388,215.06650000000002,212.12750000000005,214.56350000000003,215.5631000000239,216.06,216.0602000000477,218.49030000001193,1964,218.49030000001193,5,219.48970000004772,0,16,16,28,1,1.4,0.7,Time
,,671778,001,,,2025-06-03_22h58.43.509,Serial_Dependence_U,2023.2.3,Win32,166.66666666666666,,,,,,219.49010000002386,355,0,219.4902000000477,355,,,,223.45950000000005,223.95600000000002,222.95630000001194,223.45940000003577,220.49010000002386,222.95630000001194,223.95600000000002,224.45280000001196,224.45280000001196,227.30730000001194,2194,227.30730000001194,5,228.3069000000358,0,17,17,13,1,1.4,0.3,Time
,,671778,001,,,2025-06-03_22h58.43.509,Serial_Dependence_U,2023.2.3,Win32,166.66666666666666,,,,,,228.30730000001194,219,0,228.3075,219,,,,231.6465,232.14280000001196,231.1434000000358,231.6465,229.30740000003578,231.1434000000358,232.14280000001196,232.63980000001197,232.63980000001197,235.3789000000358,2255,235.3789000000358,5,236.37870000004773,0,18,18,15,1,0.8,0.7,Time
,,671778,001,,,2025-06-03_22h58.43.509,Serial_Dependence_U,2023.2.3,Win32,166.66666666666666,,,,,,236.37910000002387,321,0,236.37920000004772,321,,,,240.32150000000001,240.82050000000004,239.81510000002385,240.3214000000358,237.37900000000002,239.81500000000005,240.8206000000239,241.31760000002384,241.31760000002384,244.00240000003578,2244,244.00250000000005,5,245.002,0,19,19,8,1,1.4,0.7,Time
,,671778,001,,,2025-06-03_22h58.43.509,Serial_Dependence_U,2023.2.3,Win32,166.66666666666666,,,,,,245.00240000003578,4,0,245.00250000000005,4,,,,248.77200000000005,249.26810000002388,248.26870000004772,248.77200000000005,246.0022000000477,248.26870000004772,249.26810000002388,249.76500000000004,249.7651000000239,253.7952000000477,2243,253.7952000000477,5,254.79460000002388,0,20,20,22,1,1.2,0.3,Time
,,671778,001,,,2025-06-03_22h58.43.509,Serial_Dependence_U,2023.2.3,Win32,166.66666666666666,,,,,,254.79500000000002,319,0,254.7952000000477,319,,,,258.964300000012,259.4609000000358,258.46110000002386,258.964300000012,255.79530000001193,258.46110000002386,259.4609000000358,259.95780000001196,259.9579000000358,262.80630000001196,2069,262.80630000001196,4,263.80580000001197,0,21,21,24,1,1.6,0.3,Time
,,671778,001,,,2025-06-03_22h58.43.509,Serial_Dependence_U,2023.2.3,Win32,166.66666666666666,,,,,,263.80620000004774,22,0,263.80630000001196,22,,,,267.37550000000005,267.872,266.8725,267.37550000000005,264.8061000000239,266.8725,267.872,268.36880000001196,268.3689000000358,270.9688000000119,2211,270.9689000000358,5,271.9684000000358,0,22,22,21,1,1,0.3,Time
,,671778,001,,,2025-06-03_22h58.43.509,Serial_Dependence_U,2023.2.3,Win32,166.66666666666666,,,,,,271.9689000000358,177,0,271.96900000000005,177,,,,275.53810000002386,276.0346000000239,275.035,275.538,272.9688000000119,275.0349000000358,276.0346000000239,276.53160000002384,276.53160000002384,279.04060000002386,2101,279.04060000002386,5,280.0402000000477,0,23,23,11,1,1,0.3,Time
,,671778,001,,,2025-06-03_22h58.43.509,Serial_Dependence_U,2023.2.3,Win32,166.66666666666666,,,,,,280.0404000000358,101,0,280.0405,101,,,,283.3795,283.8761000000239,282.87660000002387,283.3795,281.0405,282.87660000002387,283.87620000004773,284.3731000000239,284.3731000000239,287.0458000000119,2276,287.0458000000119,5,288.04530000001193,0,24,24,5,1,0.8,0.7,Time
,,671778,001,,,2025-06-03_22h58.43.509,Serial_Dependence_U,2023.2.3,Win32,166.66666666666666,,,,,,288.0457000000477,325,0,288.0458000000119,325,,,,291.81500000000005,292.3115,291.312,291.81500000000005,289.0455,291.3119000000358,292.3115,292.80850000000004,292.80850000000004,308.7163000000119,1770,308.7163000000119,5,309.71560000002387,0,25,25,12,1,1.2,0.3,Time
,,671778,001,,,2025-06-03_22h58.43.509,Serial_Dependence_U,2023.2.3,Win32,166.66666666666666,,,,,,309.716,326,0,309.71610000002386,326,,,,313.8851000000239,314.38160000002387,313.3822000000477,313.8851000000239,310.7159000000358,313.3822000000477,314.38160000002387,314.8786000000239,314.8786000000239,318.01780000001196,2630,318.0179000000358,5,319.01750000000004,0,26,26,4,1,1.6,0.3,Time
,,671778,001,,,2025-06-03_22h58.43.509,Serial_Dependence_U,2023.2.3,Win32,166.66666666666666,,,,,,319.01780000001196,189,0,319.0179000000358,189,,,,322.38740000003577,322.8837000000477,321.8842000000477,322.387300000012,320.0176000000239,321.88410000002386,322.8837000000477,323.38050000000004,323.38070000004774,327.43480000001193,3118,327.4349000000358,5,328.43460000002386,0,27,27,10,1,0.8,0.3,Time
,,671778,001,,,2025-06-03_22h58.43.509,Serial_Dependence_U,2023.2.3,Win32,166.66666666666666,,,,,,328.4349000000358,259,0,328.4349000000358,259,,,,332.57380000001194,333.0704000000358,332.0709000000358,332.57380000001194,329.4349000000358,332.0709000000358,333.07050000000004,333.5672000000477,333.5672000000477,336.49460000002387,2767,336.4947000000477,5,337.494,0,28,28,9,1,1.6,0.7,Time
,,671778,001,,,2025-06-03_22h58.43.509,Serial_Dependence_U,2023.2.3,Win32,166.66666666666666,,,,,,337.49430000001195,128,0,337.4944000000358,128,,,,340.86380000001196,341.36030000001193,340.3607000000477,340.8637000000477,338.49430000001195,340.3607000000477,341.36030000001193,341.8571000000239,341.8572000000477,345.341800000012,2944,345.341800000012,5,346.3414000000358,0,29,29,0,1,0.8,0.3,Time
,,671778,001,,,2025-06-03_22h58.43.509,Serial_Dependence_U,2023.2.3,Win32,166.66666666666666,,,,,,346.341800000012,355,1,349.86,355,s,3.5048999999761463,,353.80180000001195,354.2982000000477,353.2986000000239,353.80170000004773,350.8629000000358,353.2986000000239,354.2982000000477,354.795,354.795,400.31120000004773,1951,400.31130000001195,5,400.31630000001195,1,0,30,18,1,1.4,0.7,Time
,,671778,001,,,2025-06-03_22h58.43.509,Serial_Dependence_U,2023.2.3,Win32,166.66666666666666,,,,,,400.3164000000358,77,1,400.3172000000477,77,,,,403.85630000001197,404.35280000001194,403.3532000000477,403.8562000000477,401.31800000000004,403.35310000002386,404.35280000001194,404.8496000000239,404.8496000000239,407.2194000000358,2018,407.21950000000004,5,407.223800000012,1,1,31,26,1,1,0.7,Time
,,671778,001,,,2025-06-03_22h58.43.509,Serial_Dependence_U,2023.2.3,Win32,166.66666666666666,,,,,,407.22400000000005,279,1,407.22400000000005,279,,,,410.96530000001195,411.461,410.46160000002385,410.96530000001195,408.2252000000477,410.46160000002385,411.461,411.9579000000358,411.9579000000358,412.461,120,412.461,1,412.46480000001196,1,2,32,7,1,1.2,0.7,Time
,,671778,001,,,2025-06-03_22h58.43.509,Serial_Dependence_U,2023.2.3,Win32,166.66666666666666,,,,,,412.46500000000003,99,1,412.46500000000003,99,,,,415.8309000000358,416.32710000002385,415.32780000001196,415.8309000000358,413.46700000000004,415.3277000000477,416.3272000000477,416.82410000002386,416.82410000002386,419.01180000001193,1681,419.01180000001193,5,419.0167000000477,1,3,33,10,1,0.8,0.3,Time
,,671778,001,,,2025-06-03_22h58.43.509,Serial_Dependence_U,2023.2.3,Win32,166.66666666666666,,,,,,419.0169000000358,228,1,419.0169000000358,228,,,,422.9875,423.4837000000477,422.48430000001196,422.9874000000358,420.0182000000477,422.48430000001196,423.4837000000477,423.9807000000477,423.9808000000119,426.55060000002385,2164,426.550800000012,5,426.555,1,4,34,3,1,1.4,0.3,Time
,,671778,001,,,2025-06-03_22h58.43.509,Serial_Dependence_U,2023.2.3,Win32,166.66666666666666,,,,,,426.55510000002386,225,1,426.5552000000477,225,,,,430.5257000000477,431.0224000000358,430.023,430.5257000000477,427.5566000000239,430.0229000000358,431.0224000000358,431.5193000000119,431.5193000000119,435.7919000000358,2930,435.79200000000003,5,435.79630000001197,1,5,35,13,1,1.4,0.3,Time
,,671778,001,,,2025-06-03_22h58.43.509,Serial_Dependence_U,2023.2.3,Win32,166.66666666666666,,,,,,435.79650000000004,203,1,435.7966000000239,203,,,,439.53700000000003,440.0334000000358,439.03400000000005,439.53700000000003,436.79780000001193,439.03390000003577,440.03360000002385,440.53030000001195,440.53030000001195,443.13040000003576,2115,443.13040000003576,5,443.1351000000239,1,6,36,17,1,1.2,0.7,Time
,,671778,001,,,2025-06-03_22h58.43.509,Serial_Dependence_U,2023.2.3,Win32,166.66666666666666,,,,,,443.13530000001197,26,1,443.13530000001197,26,,,,446.90580000001194,447.4022000000477,446.4032000000477,446.90580000001194,444.1364000000358,446.40310000002387,447.4022000000477,447.89910000002385,447.8992000000477,451.2442000000477,2941,451.2442000000477,5,451.24850000000004,1,7,37,12,1,1.2,0.3,Time
,,671778,001,,,2025-06-03_22h58.43.509,Serial_Dependence_U,2023.2.3,Win32,166.66666666666666,,,,,,451.24870000004773,84,1,451.24880000001195,84,,,,454.5907000000477,455.0922000000477,454.08660000002385,454.59060000002387,452.2507000000477,454.08660000002385,455.0922000000477,455.58920000004775,455.58920000004775,458.94640000003574,2449,458.9465,5,458.9512000000477,1,8,38,15,1,0.8,0.7,Time
,,671778,001,,,2025-06-03_22h58.43.509,Serial_Dependence_U,2023.2.3,Win32,166.66666666666666,,,,,,458.95140000003585,184,1,458.95140000003585,184,,,,462.7219000000358,463.2184000000358,462.2189000000358,462.72180000001197,459.9525,462.2189000000358,463.2184000000358,463.71540000003574,463.71540000003574,466.4485000000001,2363,466.4486000000238,5,466.45280000001196,1,9,39,2,1,1.2,0.3,Time
,,671778,001,,,2025-06-03_22h58.43.509,Serial_Dependence_U,2023.2.3,Win32,166.66666666666666,,,,,,466.453,72,1,466.453,72,,,,469.7939000000358,470.29030000001194,469.29100000000005,469.7939000000358,467.4548000000119,469.2909000000358,470.29030000001194,470.7873000000119,470.7873000000119,472.745,1588,472.745,5,472.7492000000477,1,10,40,25,1,0.8,0.7,Time
,,671778,001,,,2025-06-03_22h58.43.509,Serial_Dependence_U,2023.2.3,Win32,166.66666666666666,,,,,,472.74940000003573,217,1,472.7495,217,,,,476.92020000004766,477.4168000000119,476.41740000003574,476.9201000000239,473.75080000001196,476.417300000012,477.4168000000119,477.9139000000358,477.9139000000358,480.56810000002383,2351,480.56810000002383,5,480.5725,1,11,41,24,1,1.6,0.3,Time
,,671778,001,,,2025-06-03_22h58.43.509,Serial_Dependence_U,2023.2.3,Win32,166.66666666666666,,,,,,480.5727000000477,262,1,480.5727000000477,262,,,,484.5377000000477,485.0342000000477,484.0345,484.5377000000477,481.57190000003584,484.0345,485.0342000000477,485.53100000000006,485.53100000000006,489.3856000000238,2600,489.3856000000238,5,489.389800000012,1,12,42,23,1,1.4,0.3,Time
,,671778,001,,,2025-06-03_22h58.43.509,Serial_Dependence_U,2023.2.3,Win32,166.66666666666666,,,,,,489.39,233,1,489.39,233,,,,493.13030000001197,493.62700000000007,492.6276000000239,493.13030000001197,490.39120000004766,492.6276000000239,493.62700000000007,494.12390000003575,494.12390000003575,498.37220000004766,2133,498.37220000004766,5,498.3766000000238,1,13,43,27,1,1.2,0.7,Time
,,671778,001,,,2025-06-03_22h58.43.509,Serial_Dependence_U,2023.2.3,Win32,166.66666666666666,,,,,,498.37680000001194,84,1,498.3769000000358,84,,,,502.5173000000119,503.013800000012,502.01460000002385,502.5173000000119,499.3783000000119,502.01460000002385,503.013800000012,503.5107000000477,503.51080000001195,506.08020000004774,2311,506.08020000004774,5,506.0843000000119,1,14,44,9,1,1.6,0.7,Time
,,671778,001,,,2025-06-03_22h58.43.509,Serial_Dependence_U,2023.2.3,Win32,166.66666666666666,,,,,,506.08440000003577,318,1,506.08450000000005,318,,,,510.2252000000477,510.7219000000358,509.72230000001196,510.2252000000477,507.08640000003584,509.72230000001196,510.7219000000358,511.2188000000119,511.2189000000358,513.6703000000119,2151,513.6703000000119,5,513.6745000000001,1,15,45,19,1,1.6,0.7,Time
,,671778,001,,,2025-06-03_22h58.43.509,Serial_Dependence_U,2023.2.3,Win32,166.66666666666666,,,,,,513.6746000000238,103,1,513.6746000000238,103,,,,517.2489000000357,517.745300000012,516.746,517.2489000000357,514.679300000012,516.746,517.745300000012,518.2423000000119,518.2423000000119,521.236300000012,2108,521.2364000000358,5,521.2405,1,16,46,21,1,1,0.3,Time
,,671778,001,,,2025-06-03_22h58.43.509,Serial_Dependence_U,2023.2.3,Win32,166.66666666666666,,,,,,521.2406000000238,85,1,521.240800000012,85,,,,525.181,525.6777000000477,524.6784000000358,525.181,522.2424000000358,524.678300000012,525.6777000000477,526.1748000000119,526.1748000000119,528.6656000000239,2185,528.6657000000478,5,528.6703000000119,1,17,47,8,1,1.4,0.7,Time
,,671778,001,,,2025-06-03_22h58.43.509,Serial_Dependence_U,2023.2.3,Win32,166.66666666666666,,,,,,528.6705000000001,235,1,528.6706000000239,235,,,,532.8107000000477,533.307,532.3074000000358,532.8106000000239,529.6717000000477,532.3074000000358,533.307,533.8041000000238,533.8042000000477,536.2589000000357,2162,536.2589000000357,5,536.2632000000477,1,18,48,29,1,1.6,0.7,Time
,,671778,001,,,2025-06-03_22h58.43.509,Serial_Dependence_U,2023.2.3,Win32,166.66666666666666,,,,,,536.2634000000357,90,1,536.2635,90,,,,539.7977000000477,540.2942000000477,539.2955000000001,539.7977000000477,537.2647000000477,539.2955000000001,540.2942000000477,540.7912000000478,540.7913000000119,545.1241000000239,2303,545.1241000000239,5,545.1288000000119,1,19,49,6,1,1,0.7,Time
,,671778,001,,,2025-06-03_22h58.43.509,Serial_Dependence_U,2023.2.3,Win32,166.66666666666666,,,,,,545.129,76,1,545.129,76,,,,549.2996000000238,549.7961000000239,548.7964000000358,549.2996000000238,546.1304000000358,548.7963000000119,549.7961000000239,550.2929000000358,550.2929000000358,553.2689000000358,2483,553.2689000000358,5,553.273300000012,1,20,50,14,1,1.6,0.3,Time
,,671778,001,,,2025-06-03_22h58.43.509,Serial_Dependence_U,2023.2.3,Win32,166.66666666666666,,,,,,553.2735,39,1,553.2736000000239,39,,,,556.8443000000119,557.3407000000477,556.341,556.8442000000477,554.2747000000477,556.341,557.3407000000477,557.8376000000238,557.8376000000238,559.456800000012,1292,559.456800000012,4,559.4609000000357,1,21,51,1,1,1,0.3,Time
,,671778,001,,,2025-06-03_22h58.43.509,Serial_Dependence_U,2023.2.3,Win32,166.66666666666666,,,,,,559.461,125,1,559.4611000000239,125,,,,563.0312000000478,563.5278000000119,562.528300000012,563.0312000000478,560.4617000000477,562.528300000012,563.5278000000119,564.0247000000477,564.0247000000477,566.0186000000239,1685,566.0186000000239,5,566.0224000000358,1,22,52,11,1,1,0.3,Time
,,671778,001,,,2025-06-03_22h58.43.509,Serial_Dependence_U,2023.2.3,Win32,166.66666666666666,,,,,,566.0226000000239,124,1,566.0227000000477,124,,,,569.394,569.8977000000477,568.8912000000477,569.3939000000358,567.0249000000358,568.8912000000477,569.8977000000477,570.3937000000477,570.393800000012,572.7634000000357,2103,572.7634000000357,5,572.7679000000358,1,23,53,0,1,0.8,0.3,Time
,,671778,001,,,2025-06-03_22h58.43.509,Serial_Dependence_U,2023.2.3,Win32,166.66666666666666,,,,,,572.7681000000239,32,1,572.7682000000477,32,,,,576.3082000000477,576.8050000000001,575.8058000000119,576.3082000000477,573.7695,575.8057000000478,576.8051000000239,577.3019000000357,577.302,579.4537000000477,1826,579.4537000000477,5,579.4577000000477,1,24,54,16,1,1,0.7,Time
,,671778,001,,,2025-06-03_22h58.43.509,Serial_Dependence_U,2023.2.3,Win32,166.66666666666666,,,,,,579.457800000012,296,1,579.4579000000358,296,,,,582.8290000000001,583.3255,582.3262000000477,582.8288000000119,580.4596000000239,582.3261000000239,583.3255,583.8225,583.8225,586.8284000000358,2454,586.8284000000358,5,586.8331000000238,1,25,55,20,1,0.8,0.3,Time
,,671778,001,,,2025-06-03_22h58.43.509,Serial_Dependence_U,2023.2.3,Win32,166.66666666666666,,,,,,586.833300000012,245,1,586.833300000012,245,,,,590.7741000000239,591.2699000000358,590.2705000000001,590.774,587.8347000000477,590.2705000000001,591.2699000000358,591.7671000000239,591.7672000000478,594.1366000000239,2084,594.1366000000239,5,594.1406000000238,1,26,56,28,1,1.4,0.7,Time
,,671778,001,,,2025-06-03_22h58.43.509,Serial_Dependence_U,2023.2.3,Win32,166.66666666666666,,,,,,594.1409000000358,162,1,594.1409000000358,162,,,,598.3121000000239,598.8085,597.8089000000358,598.312,595.1426000000239,597.808800000012,598.8085,599.3074000000358,599.3074000000358,601.4754000000358,1939,601.4754000000358,4,601.4797000000477,1,27,57,4,1,1.6,0.3,Time
,,671778,001,,,2025-06-03_22h58.43.509,Serial_Dependence_U,2023.2.3,Win32,166.66666666666666,,,,,,601.479800000012,28,1,601.48,28,,,,604.8204000000358,605.3167000000477,604.3174000000358,604.8204000000358,602.4812000000477,604.3174000000358,605.316800000012,605.8137000000477,605.813800000012,608.359,2164,608.359,5,608.3633000000119,1,28,58,5,1,0.8,0.7,Time
,,671778,001,,,2025-06-03_22h58.43.509,Serial_Dependence_U,2023.2.3,Win32,166.66666666666666,,,,,,608.3635,63,1,608.3635,63,,,,612.1347000000477,612.6311000000238,611.6319000000358,612.1347000000477,609.3651000000239,611.6318000000119,612.6311000000238,613.1279000000358,613.1279000000358,616.0492000000477,1877,616.049300000012,5,616.0542000000477,1,29,59,22,1,1.2,0.3,Time
,,671778,001,,,2025-06-03_22h58.43.509,Serial_Dependence_U,2023.2.3,Win32,166.66666666666666,,,,,,616.0544000000358,335,2,629.894,335,s,13.826999999999998,,633.4653000000119,633.9619000000358,632.9625,633.4653000000119,630.8961000000239,632.9625,633.9619000000358,634.4587000000477,634.4588000000119,636.7011000000239,1976,636.7012000000477,5,636.7053000000119,2,0,60,1,1,1,0.3,Time
,,671778,001,,,2025-06-03_22h58.43.509,Serial_Dependence_U,2023.2.3,Win32,166.66666666666666,,,,,,636.7056000000239,106,2,636.7062000000477,106,,,,640.0707000000477,640.5672000000477,639.5679000000358,640.0706000000239,637.7071000000238,639.5679000000358,640.5672000000477,641.0641000000238,641.0641000000238,643.0339000000358,1956,643.034,5,643.038,2,1,61,20,1,0.8,0.3,Time
,,671778,001,,,2025-06-03_22h58.43.509,Serial_Dependence_U,2023.2.3,Win32,166.66666666666666,,,,,,643.0382000000477,296,2,643.038300000012,296,,,,647.009300000012,647.5057000000477,646.5064000000358,647.009300000012,644.0400000000001,646.506300000012,647.505800000012,648.0027000000478,648.0027000000478,649.9601000000239,1724,649.9602000000477,4,649.9644000000358,2,2,62,13,1,1.4,0.3,Time
,,671778,001,,,2025-06-03_22h58.43.509,Serial_Dependence_U,2023.2.3,Win32,166.66666666666666,,,,,,649.9645,16,2,649.9646000000239,16,,,,654.1056000000239,654.6019000000358,653.6028000000119,654.1056000000239,650.9664000000358,653.6028000000119,654.6019000000358,655.0987000000478,655.0987000000478,656.917300000012,1470,656.9174000000357,2,656.9215,2,3,63,19,1,1.6,0.7,Time
,,671778,001,,,2025-06-03_22h58.43.509,Serial_Dependence_U,2023.2.3,Win32,166.66666666666666,,,,,,656.9217000000477,10,2,656.9217000000477,10,,,,660.4865,660.9830000000001,659.9841000000239,660.4864000000358,657.9231000000239,659.984,660.9830000000001,661.4799000000357,661.4799000000357,664.6194000000357,2180,664.6196000000239,5,664.6242000000477,2,4,64,21,1,1,0.3,Time
,,671778,001,,,2025-06-03_22h58.43.509,Serial_Dependence_U,2023.2.3,Win32,166.66666666666666,,,,,,664.624300000012,29,2,664.6245,29,,,,668.5643000000119,669.0608000000119,668.0615,668.5643000000119,665.6256000000238,668.0614000000357,669.0608000000119,669.5577000000477,669.5577000000477,671.7941000000238,1933,671.7941000000238,5,671.7985,2,5,65,8,1,1.4,0.7,Time
,,671778,001,,,2025-06-03_22h58.43.509,Serial_Dependence_U,2023.2.3,Win32,166.66666666666666,,,,,,671.7986000000238,274,2,671.7987000000477,274,,,,675.9696000000239,676.4659000000358,675.4666000000238,675.9695,672.8005,675.4665,676.466,676.962800000012,676.962800000012,679.0964000000358,1839,679.0964000000358,4,679.1009000000358,2,6,66,24,1,1.6,0.3,Time
,,671778,001,,,2025-06-03_22h58.43.509,Serial_Dependence_U,2023.2.3,Win32,166.66666666666666,,,,,,679.1011000000238,67,2,679.1011000000238,67,,,,683.0716000000239,683.5681000000238,682.5687000000477,683.0715,680.1025000000001,682.5686000000238,683.5681000000238,684.0651000000239,684.0651000000239,688.5744000000358,1612,688.5745000000001,4,688.5790000000001,2,7,67,23,1,1.4,0.3,Time
,,671778,001,,,2025-06-03_22h58.43.509,Serial_Dependence_U,2023.2.3,Win32,166.66666666666666,,,,,,688.5791000000239,155,2,688.5792000000478,155,,,,692.1494000000358,692.645800000012,691.6464000000358,692.1492000000477,689.58,691.6464000000358,692.645800000012,693.1428000000119,693.1428000000119,695.0279000000357,1521,695.0279000000357,5,695.0323000000119,2,8,68,11,1,1,0.3,Time
,,671778,001,,,2025-06-03_22h58.43.509,Serial_Dependence_U,2023.2.3,Win32,166.66666666666666,,,,,,695.0324000000358,301,2,695.0325,301,,,,698.5729000000358,699.0694000000358,698.0703000000119,698.5729000000358,696.0341000000238,698.0703000000119,699.0694000000358,699.5665,699.5665,701.2452000000477,1478,701.2452000000477,5,701.2495,2,9,69,16,1,1,0.7,Time
,,671778,001,,,2025-06-03_22h58.43.509,Serial_Dependence_U,2023.2.3,Win32,166.66666666666666,,,,,,701.2497000000477,77,2,701.249800000012,77,,,,705.4209000000358,705.9177000000477,704.917800000012,705.4207000000478,702.251300000012,704.9177000000477,705.917800000012,706.414,706.414,708.917,2030,708.9171000000239,4,708.9218000000119,2,10,70,14,1,1.6,0.3,Time
,,671778,001,,,2025-06-03_22h58.43.509,Serial_Dependence_U,2023.2.3,Win32,166.66666666666666,,,,,,708.9219000000357,350,2,708.922,350,,,,712.8923000000119,713.3891000000239,712.3895,712.8923000000119,709.923300000012,712.3895,713.3892000000477,713.8861000000238,713.8862000000477,717.552300000012,2331,717.552300000012,5,717.5571000000239,2,11,71,3,1,1.4,0.3,Time
,,671778,001,,,2025-06-03_22h58.43.509,Serial_Dependence_U,2023.2.3,Win32,166.66666666666666,,,,,,717.557300000012,58,2,717.5574000000358,58,,,,721.0975000000001,721.594,720.5945,721.0975000000001,718.5584000000358,720.5945,721.5941000000239,722.0909000000358,722.0909000000358,724.2849000000358,2185,724.2850000000001,5,724.2894000000358,2,12,72,26,1,1,0.7,Time
,,671778,001,,,2025-06-03_22h58.43.509,Serial_Dependence_U,2023.2.3,Win32,166.66666666666666,,,,,,724.2895,99,2,724.2896000000238,99,,,,728.0606000000239,728.556800000012,727.5575,728.0605,725.2908000000119,727.5574000000358,728.556800000012,729.0537000000477,729.053800000012,730.5993000000119,1258,730.5993000000119,3,730.6036000000239,2,13,73,2,1,1.2,0.3,Time
,,671778,001,,,2025-06-03_22h58.43.509,Serial_Dependence_U,2023.2.3,Win32,166.66666666666666,,,,,,730.6038000000119,332,2,730.6038000000119,332,,,,734.1446000000238,734.6409000000358,733.6416000000239,734.1446000000238,731.6052000000477,733.6416000000239,734.6409000000358,735.1378000000119,735.1378000000119,738.26,2041,738.26,5,738.2641000000239,2,14,74,6,1,1,0.7,Time
,,671778,001,,,2025-06-03_22h58.43.509,Serial_Dependence_U,2023.2.3,Win32,166.66666666666666,,,,,,738.264300000012,115,2,738.2644000000358,115,,,,742.4042000000477,742.9004000000358,741.9011000000239,742.4042000000477,739.2651000000238,741.9011000000239,742.9004000000358,743.3974000000358,743.3974000000358,747.4456000000239,2112,747.4457000000477,5,747.4501000000239,2,15,75,29,1,1.6,0.7,Time
,,671778,001,,,2025-06-03_22h58.43.509,Serial_Dependence_U,2023.2.3,Win32,166.66666666666666,,,,,,747.4502000000477,144,2,747.4503000000119,144,,,,751.6212000000477,752.1176000000239,751.1182000000478,751.6211000000238,748.4519000000358,751.1181000000239,752.1177000000478,752.6146000000239,752.6146000000239,755.3297000000478,2574,755.3298000000119,5,755.3344000000358,2,16,76,4,1,1.6,0.3,Time
,,671778,001,,,2025-06-03_22h58.43.509,Serial_Dependence_U,2023.2.3,Win32,166.66666666666666,,,,,,755.3346000000239,124,2,755.3346000000239,124,,,,759.0749000000358,759.5714000000357,758.5721000000239,759.0749000000358,756.3357000000477,758.5721000000239,759.5714000000357,760.0682000000477,760.0682000000477,761.9836000000239,1642,761.9837000000477,5,761.9883000000119,2,17,77,17,1,1.2,0.7,Time
,,671778,001,,,2025-06-03_22h58.43.509,Serial_Dependence_U,2023.2.3,Win32,166.66666666666666,,,,,,761.9885,259,2,761.9886000000239,259,,,,765.758800000012,766.2554000000358,765.2557000000477,765.758800000012,762.990300000012,765.2556000000238,766.2554000000358,766.7522000000478,766.7522000000478,770.230800000012,2630,770.2309000000358,5,770.2352000000477,2,18,78,22,1,1.2,0.3,Time
,,671778,001,,,2025-06-03_22h58.43.509,Serial_Dependence_U,2023.2.3,Win32,166.66666666666666,,,,,,770.2354000000358,41,2,770.2355,41,,,,773.5761000000239,774.0725,773.073300000012,773.5761000000239,771.2369000000358,773.0731000000238,774.0725,774.5695000000001,774.5695000000001,775.933300000012,1118,775.9334000000358,5,775.9374000000358,2,19,79,5,1,0.8,0.7,Time
,,671778,001,,,2025-06-03_22h58.43.509,Serial_Dependence_U,2023.2.3,Win32,166.66666666666666,,,,,,775.9376000000238,269,2,775.9376000000238,269,,,,779.2789000000358,779.775,778.7758000000119,779.278800000012,776.9393000000119,778.7758000000119,779.775,780.2718000000119,780.2719000000358,781.066,537,781.0661000000239,1,781.0704000000358,2,20,80,25,1,0.8,0.7,Time
,,671778,001,,,2025-06-03_22h58.43.509,Serial_Dependence_U,2023.2.3,Win32,166.66666666666666,,,,,,781.0705,207,2,781.0706000000239,207,,,,784.8112000000477,785.307800000012,784.3081000000238,784.8111000000239,782.0719000000358,784.308,785.307800000012,785.8045000000001,785.8046000000239,787.8045000000001,1787,787.8045000000001,5,787.8084000000358,2,21,81,7,1,1.2,0.7,Time
,,671778,001,,,2025-06-03_22h58.43.509,Serial_Dependence_U,2023.2.3,Win32,166.66666666666666,,,,,,787.8086000000238,321,2,787.8087000000477,321,,,,791.543800000012,792.0403000000119,791.0413000000119,791.543800000012,788.8092000000477,791.0412000000478,792.0403000000119,792.5369000000358,792.5369000000358,794.8892000000477,1944,794.8892000000477,5,794.8936000000239,2,22,82,27,1,1.2,0.7,Time
,,671778,001,,,2025-06-03_22h58.43.509,Serial_Dependence_U,2023.2.3,Win32,166.66666666666666,,,,,,794.8937000000477,109,2,794.893800000012,109,,,,798.6641000000238,799.1604000000358,798.1611000000239,798.664,795.8945,798.1610000000001,799.1605000000001,799.6574000000358,799.6574000000358,801.1848000000119,1234,801.1849000000358,3,801.188800000012,2,23,83,12,1,1.2,0.3,Time
,,671778,001,,,2025-06-03_22h58.43.509,Serial_Dependence_U,2023.2.3,Win32,166.66666666666666,,,,,,801.1889000000358,127,2,801.1891000000238,127,,,,804.5601000000239,805.056800000012,804.0579000000358,804.5601000000239,802.1908000000119,804.057800000012,805.056800000012,805.5536000000238,805.5536000000238,807.5175,1642,807.5176000000239,5,807.5217000000478,2,24,84,10,1,0.8,0.3,Time
,,671778,001,,,2025-06-03_22h58.43.509,Serial_Dependence_U,2023.2.3,Win32,166.66666666666666,,,,,,807.5218000000119,330,2,807.5219000000358,330,,,,811.4624000000358,811.9589000000358,810.9597000000477,811.4624000000358,808.5236000000239,810.9596000000239,811.9590000000001,812.456,812.4561000000239,814.996,2258,814.996,5,815.0001000000238,2,25,85,28,1,1.4,0.7,Time
,,671778,001,,,2025-06-03_22h58.43.509,Serial_Dependence_U,2023.2.3,Win32,166.66666666666666,,,,,,815.000300000012,128,2,815.000300000012,128,,,,818.9344000000358,819.4312000000477,818.4321000000239,818.9344000000358,816.001300000012,818.432,819.4312000000477,819.9277000000477,819.9277000000477,822.2372000000477,2106,822.2373000000119,5,822.241800000012,2,26,86,18,1,1.4,0.7,Time
,,671778,001,,,2025-06-03_22h58.43.509,Serial_Dependence_U,2023.2.3,Win32,166.66666666666666,,,,,,822.2419000000358,287,2,822.2421000000239,287,,,,826.3821000000239,826.8785,825.8791000000239,826.3821000000239,823.2436000000239,825.879,826.8785,827.3754000000358,827.3754000000358,829.908800000012,2400,829.908800000012,5,829.9127000000477,2,27,87,9,1,1.6,0.7,Time
,,671778,001,,,2025-06-03_22h58.43.509,Serial_Dependence_U,2023.2.3,Win32,166.66666666666666,,,,,,829.9129000000358,93,2,829.9129000000358,93,,,,833.2844000000358,833.7807000000477,832.7812000000478,833.284300000012,830.9147000000477,832.7811000000239,833.7807000000477,834.2776000000239,834.2777000000477,836.9807000000477,2297,836.980800000012,5,836.984800000012,2,28,88,0,1,0.8,0.3,Time
,,671778,001,,,2025-06-03_22h58.43.509,Serial_Dependence_U,2023.2.3,Win32,166.66666666666666,,,,,,836.985,142,2,836.9851000000239,142,,,,840.3262000000477,840.822300000012,839.8231000000238,840.3261000000239,837.9865,839.823,840.822300000012,841.3191000000239,841.3191000000239,843.1922000000477,1659,843.1922000000477,5,843.1961000000239,2,29,89,15,1,0.8,0.7,Time
,,671778,001,,,2025-06-03_22h58.43.509,Serial_Dependence_U,2023.2.3,Win32,166.66666666666666,,,,,,843.1962000000477,314,3,847.1102000000477,314,s,3.90119999998808,,851.2827000000477,851.7785,850.7789000000358,851.2826000000239,848.1127000000478,850.7789000000358,851.7785,852.2756000000238,852.2756000000238,854.0211000000239,1368,854.0211000000239,2,854.0252000000477,3,0,90,14,1,1.6,0.3,Time
,,671778,001,,,2025-06-03_22h58.43.509,Serial_Dependence_U,2023.2.3,Win32,166.66666666666666,,,,,,854.0254000000358,212,3,854.0259000000358,212,,,,858.1965,858.692800000012,857.693800000012,858.1965,855.0271000000239,857.6937000000477,858.692800000012,859.1897000000478,859.1897000000478,861.480800000012,1999,861.480800000012,4,861.4849000000357,3,1,91,24,1,1.6,0.3,Time
,,671778,001,,,2025-06-03_22h58.43.509,Serial_Dependence_U,2023.2.3,Win32,166.66666666666666,,,,,,861.485,100,3,861.4851000000239,100,,,,864.8562000000477,865.3527000000477,864.3533000000119,864.8561000000238,862.4870000000001,864.3533000000119,865.3527000000477,865.8496000000239,865.8496000000239,867.7283000000119,1632,867.7283000000119,5,867.7324000000358,3,2,92,10,1,0.8,0.3,Time
,,671778,001,,,2025-06-03_22h58.43.509,Serial_Dependence_U,2023.2.3,Win32,166.66666666666666,,,,,,867.7326000000239,107,3,867.7327000000477,107,,,,871.097800000012,871.5944000000358,870.5954000000357,871.0977000000477,868.7344000000357,870.5954000000357,871.5944000000358,872.091300000012,872.0914000000358,873.6674000000357,1334,873.6674000000357,5,873.6713000000119,3,3,93,20,1,0.8,0.3,Time
,,671778,001,,,2025-06-03_22h58.43.509,Serial_Dependence_U,2023.2.3,Win32,166.66666666666666,,,,,,873.6714000000358,161,3,873.6715,161,,,,877.442800000012,877.9390000000001,876.9396000000239,877.442800000012,874.6735,876.9396000000239,877.9390000000001,878.436,878.436,879.8664000000358,1367,879.8664000000358,4,879.8704000000358,3,4,94,2,1,1.2,0.3,Time
,,671778,001,,,2025-06-03_22h58.43.509,Serial_Dependence_U,2023.2.3,Win32,166.66666666666666,,,,,,879.8706000000238,138,3,879.8706000000238,138,,,,883.441800000012,883.9384000000358,882.9389000000358,883.441800000012,880.8724000000358,882.938800000012,883.9384000000358,884.4353000000119,884.4353000000119,886.5805,1655,886.5805,5,886.5846000000239,3,5,95,21,1,1,0.3,Time
,,671778,001,,,2025-06-03_22h58.43.509,Serial_Dependence_U,2023.2.3,Win32,166.66666666666666,,,,,,886.5847000000477,257,3,886.5847000000477,257,,,,889.926,890.4224000000357,889.4231000000239,889.9259000000358,887.5866000000239,889.4231000000239,890.4225,890.9194000000358,890.9194000000358,893.6585,1847,893.6585,5,893.6625,3,6,96,15,1,0.8,0.7,Time
,,671778,001,,,2025-06-03_22h58.43.509,Serial_Dependence_U,2023.2.3,Win32,166.66666666666666,,,,,,893.6627000000477,96,3,893.6627000000477,96,,,,897.604,898.1002000000477,897.100800000012,897.604,894.664800000012,897.100800000012,898.1002000000477,898.597300000012,898.597300000012,900.7064000000358,1868,900.7064000000358,5,900.7105,3,7,97,28,1,1.4,0.7,Time
,,671778,001,,,2025-06-03_22h58.43.509,Serial_Dependence_U,2023.2.3,Win32,166.66666666666666,,,,,,900.7107000000477,171,3,900.710800000012,171,,,,904.4519000000358,904.948,903.9485000000001,904.451800000012,901.712300000012,903.9484000000358,904.948,905.4451000000239,905.4452000000477,908.6387000000477,2206,908.6387000000477,5,908.6432000000477,3,8,98,17,1,1.2,0.7,Time
,,671778,001,,,2025-06-03_22h58.43.509,Serial_Dependence_U,2023.2.3,Win32,166.66666666666666,,,,,,908.643300000012,191,3,908.6435,191,,,,912.6141000000239,913.1105,912.111300000012,912.6141000000239,909.6447000000477,912.1112000000477,913.1105,913.6076000000239,913.6076000000239,915.9166000000239,2100,915.9167000000477,5,915.9207000000478,3,9,99,13,1,1.4,0.3,Time
,,671778,001,,,2025-06-03_22h58.43.509,Serial_Dependence_U,2023.2.3,Win32,166.66666666666666,,,,,,915.921,245,3,915.921,245,,,,919.461800000012,919.958300000012,918.9588000000119,919.4617000000477,916.9229000000358,918.9588000000119,919.9584000000358,920.4553000000119,920.4554000000358,922.922300000012,2186,922.922300000012,5,922.9266000000239,3,10,100,26,1,1,0.7,Time
,,671778,001,,,2025-06-03_22h58.43.509,Serial_Dependence_U,2023.2.3,Win32,166.66666666666666,,,,,,922.9269000000357,216,3,922.9269000000357,216,,,,926.4975000000001,926.9939000000358,925.9945,926.4974000000358,923.9282000000477,925.9944000000357,926.9939000000358,927.490800000012,927.490800000012,929.7211000000239,2030,929.7211000000239,5,929.7262000000477,3,11,101,11,1,1,0.3,Time
,,671778,001,,,2025-06-03_22h58.43.509,Serial_Dependence_U,2023.2.3,Win32,166.66666666666666,,,,,,929.7264000000358,268,3,929.7265,268,,,,933.8662000000477,934.3625000000001,933.3633000000119,933.8661000000238,930.7272000000477,933.3632000000478,934.3626000000239,934.8596000000239,934.8596000000239,937.0232000000477,1936,937.023300000012,4,937.0274000000358,3,12,102,9,1,1.6,0.7,Time
,,671778,001,,,2025-06-03_22h58.43.509,Serial_Dependence_U,2023.2.3,Win32,166.66666666666666,,,,,,937.0276000000239,136,3,937.0276000000239,136,,,,940.798800000012,941.2951000000239,940.2957000000478,940.798800000012,938.0294000000358,940.2957000000478,941.2951000000239,941.7921000000239,941.7922000000477,943.537800000012,1443,943.5379000000358,4,943.5419000000358,3,13,103,12,1,1.2,0.3,Time
,,671778,001,,,2025-06-03_22h58.43.509,Serial_Dependence_U,2023.2.3,Win32,166.66666666666666,,,,,,943.5421000000239,206,3,943.5422000000477,206,,,,946.9134000000358,947.4096000000238,946.410300000012,946.9134000000358,944.543800000012,946.410300000012,947.4096000000238,947.9066000000239,947.9066000000239,949.7429000000358,1637,949.743,5,949.7474000000358,3,14,104,0,1,0.8,0.3,Time
,,671778,001,,,2025-06-03_22h58.43.509,Serial_Dependence_U,2023.2.3,Win32,166.66666666666666,,,,,,949.7477000000478,270,3,949.7477000000478,270,,,,953.9184000000358,954.4149000000358,953.4156000000239,953.9184000000358,950.7491000000239,953.4155000000001,954.4149000000358,954.9119000000358,954.912,957.2330000000001,2315,957.2331000000239,5,957.2374000000358,3,15,105,4,1,1.6,0.3,Time
,,671778,001,,,2025-06-03_22h58.43.509,Serial_Dependence_U,2023.2.3,Win32,166.66666666666666,,,,,,957.2376000000239,354,3,957.2376000000239,354,,,,961.2087000000477,961.705,960.7055,961.2086000000239,958.2393000000119,960.7055,961.705,962.201800000012,962.2019000000358,965.4623000000119,1959,965.4623000000119,5,965.467300000012,3,16,106,3,1,1.4,0.3,Time
,,671778,001,,,2025-06-03_22h58.43.509,Serial_Dependence_U,2023.2.3,Win32,166.66666666666666,,,,,,965.4675000000001,258,3,965.4676000000239,258,,,,969.6074000000356,970.1044999999999,969.1044999999999,969.607300000012,966.4686000000239,969.1044000000356,970.1046000000238,970.6007000000477,970.6007000000477,972.4251000000238,1790,972.4251000000238,4,972.4298000000119,3,17,107,29,1,1.6,0.7,Time
,,671778,001,,,2025-06-03_22h58.43.509,Serial_Dependence_U,2023.2.3,Win32,166.66666666666666,,,,,,972.4299999999998,166,3,972.4301000000237,166,,,,976.5703000000119,977.0671000000239,976.0672000000477,976.5703000000119,973.4313000000118,976.0671000000239,977.0672000000477,977.5635,977.5635,979.8303000000119,1955,979.8304000000358,4,979.8344000000357,3,18,108,19,1,1.6,0.7,Time
,,671778,001,,,2025-06-03_22h58.43.509,Serial_Dependence_U,2023.2.3,Win32,166.66666666666666,,,,,,979.8346000000238,157,3,979.8346000000238,157,,,,983.3995,983.8962000000477,982.8968000000118,983.3994000000357,980.8362000000477,982.8968000000118,983.8962000000477,984.3931000000237,984.3932000000475,985.7629999999999,1055,985.7629999999999,4,985.7672000000475,3,19,109,1,1,1,0.3,Time
,,671778,001,,,2025-06-03_22h58.43.509,Serial_Dependence_U,2023.2.3,Win32,166.66666666666666,,,,,,985.7674000000357,110,3,985.7674000000357,110,,,,989.3081000000238,989.8045,988.8052000000475,989.308,986.7689000000357,988.8052000000475,989.8046000000238,990.3013000000119,990.3014000000358,992.2228000000118,1518,992.2228000000118,5,992.2271000000237,3,20,110,16,1,1,0.7,Time
,,671778,001,,,2025-06-03_22h58.43.509,Serial_Dependence_U,2023.2.3,Win32,166.66666666666666,,,,,,992.2272000000476,112,3,992.2273000000118,112,,,,995.5679000000357,996.0645,995.0649999999998,995.5679000000357,993.2288000000119,995.0649999999998,996.0645,996.5613000000119,996.5614000000357,998.3374000000356,1362,998.3374999999999,5,998.3419999999999,3,21,111,5,1,0.8,0.7,Time
,,671778,001,,,2025-06-03_22h58.43.509,Serial_Dependence_U,2023.2.3,Win32,166.66666666666666,,,,,,998.3422000000476,213,3,998.3423000000118,213,,,,1002.0846000000238,1002.5849000000358,1001.5794000000358,1002.0846000000238,999.3433000000118,1001.5794000000358,1002.5849000000358,1003.0818000000118,1003.0818000000118,1005.5607000000475,2012,1005.5607000000475,5,1005.5648000000119,3,22,112,7,1,1.2,0.7,Time
,,671778,001,,,2025-06-03_22h58.43.509,Serial_Dependence_U,2023.2.3,Win32,166.66666666666666,,,,,,1005.5649000000358,329,3,1005.5649999999998,329,,,,1008.9058000000118,1009.4022000000475,1008.4029000000357,1008.9057000000475,1006.5664999999999,1008.4028000000119,1009.4022000000475,1009.8989999999999,1009.8991000000237,1011.4871000000237,1337,1011.4872000000476,5,1011.4916000000237,3,23,113,25,1,0.8,0.7,Time
,,671778,001,,,2025-06-03_22h58.43.509,Serial_Dependence_U,2023.2.3,Win32,166.66666666666666,,,,,,1011.4918000000118,78,3,1011.4919000000357,78,,,,1015.4628000000118,1015.9591000000237,1014.9594000000357,1015.4627000000476,1012.4932000000476,1014.9594000000357,1015.9591000000237,1016.4559999999999,1016.4559999999999,1018.2014999999999,1519,1018.2016000000237,4,1018.2059999999999,3,24,114,23,1,1.4,0.3,Time
,,671778,001,,,2025-06-03_22h58.43.509,Serial_Dependence_U,2023.2.3,Win32,166.66666666666666,,,,,,1018.2062000000476,17,3,1018.2062000000476,17,,,,1021.9769000000356,1022.4734000000358,1021.4741000000238,1021.9769000000356,1019.2075,1021.4739999999999,1022.4734000000358,1022.9704000000356,1022.9704999999999,1025.1826000000237,1890,1025.1827000000476,5,1025.1868000000118,3,25,115,22,1,1.2,0.3,Time
,,671778,001,,,2025-06-03_22h58.43.509,Serial_Dependence_U,2023.2.3,Win32,166.66666666666666,,,,,,1025.187,180,3,1025.187,180,,,,1028.9274000000357,1029.4243000000117,1028.4248000000118,1028.9274000000357,1026.1888000000117,1028.4248000000118,1029.4243000000117,1029.9209999999998,1029.9209999999998,1032.4244000000356,2036,1032.4244000000356,5,1032.4286000000238,3,26,116,27,1,1.2,0.7,Time
,,671778,001,,,2025-06-03_22h58.43.509,Serial_Dependence_U,2023.2.3,Win32,166.66666666666666,,,,,,1032.4287000000477,185,3,1032.4289000000356,185,,,,1036.3633000000118,1036.8603000000119,1035.8609999999999,1036.3633000000118,1033.4299999999998,1035.8609999999999,1036.8604000000357,1037.3566000000237,1037.3567000000476,1039.5627000000477,1900,1039.5628000000117,5,1039.5668000000119,3,27,117,18,1,1.4,0.7,Time
,,671778,001,,,2025-06-03_22h58.43.509,Serial_Dependence_U,2023.2.3,Win32,166.66666666666666,,,,,,1039.567,114,3,1039.567,114,,,,1043.5079999999998,1044.0042000000476,1043.0048000000118,1043.5079999999998,1040.5687000000476,1043.0048000000118,1044.0042000000476,1044.5011000000238,1044.5011000000238,1047.6585,1889,1047.6586000000239,5,1047.6634000000356,3,28,118,8,1,1.4,0.7,Time
,,671778,001,,,2025-06-03_22h58.43.509,Serial_Dependence_U,2023.2.3,Win32,166.66666666666666,,,,,,1047.6636000000237,143,3,1047.6637000000476,143,,,,1051.2038000000118,1051.7002000000475,1050.700800000012,1051.2037000000475,1048.6649000000357,1050.700800000012,1051.7003000000118,1052.1973000000119,1052.1973000000119,1055.1668000000118,2121,1055.1669000000356,5,1055.1715,3,29,119,6,1,1,0.7,Time
,,671778,001,,,2025-06-03_22h58.43.509,Serial_Dependence_U,2023.2.3,Win32,166.66666666666666,,,,,,1055.1716000000238,121,4,1059.583800000012,121,s,4.39810000002376,,1063.521,1064.02,1063.0204999999999,1063.5209000000357,1060.5844000000357,1063.0204999999999,1064.02,1064.5169000000358,1064.5169999999998,1066.8199000000357,2021,1066.8199000000357,5,1066.8242000000475,4,0,120,18,1,1.4,0.7,Time
,,671778,001,,,2025-06-03_22h58.43.509,Serial_Dependence_U,2023.2.3,Win32,166.66666666666666,,,,,,1066.8245,7,4,1066.8251000000237,7,,,,1070.9893000000118,1071.4858000000117,1070.4864000000357,1070.9892000000475,1067.8257000000476,1070.4863000000119,1071.4858000000117,1071.9828000000118,1071.9828000000118,1074.128,1812,1074.1281000000238,4,1074.1325,4,1,121,24,1,1.6,0.3,Time
,,671778,001,,,2025-06-03_22h58.43.509,Serial_Dependence_U,2023.2.3,Win32,166.66666666666666,,,,,,1074.1326000000238,129,4,1074.1327000000476,129,,,,1077.4736000000237,1077.969800000012,1076.9704000000356,1077.4736000000237,1075.1341000000239,1076.9703000000118,1077.969800000012,1078.4668000000117,1078.4668000000117,1081.1515,2104,1081.1515,5,1081.1557000000475,4,2,122,15,1,0.8,0.7,Time
,,671778,001,,,2025-06-03_22h58.43.509,Serial_Dependence_U,2023.2.3,Win32,166.66666666666666,,,,,,1081.1559000000357,200,4,1081.156,200,,,,1084.7269000000356,1085.2236000000237,1084.224300000012,1084.7268000000117,1082.1576000000236,1084.2242000000476,1085.2236000000237,1085.7265,1085.7266000000238,1087.4903000000118,1416,1087.4904000000356,5,1087.4947000000475,4,3,123,11,1,1,0.3,Time
,,671778,001,,,2025-06-03_22h58.43.509,Serial_Dependence_U,2023.2.3,Win32,166.66666666666666,,,,,,1087.4949000000356,54,4,1087.495,54,,,,1091.6354000000356,1092.1317000000477,1091.1324000000357,1091.6354000000356,1088.496800000012,1091.1323000000118,1092.1317000000477,1092.6289000000356,1092.6289000000356,1094.974300000012,1600,1094.974300000012,3,1094.9785,4,4,124,9,1,1.6,0.7,Time
,,671778,001,,,2025-06-03_22h58.43.509,Serial_Dependence_U,2023.2.3,Win32,166.66666666666666,,,,,,1094.9786000000238,188,4,1094.9787000000476,188,,,,1098.3196000000237,1098.8159999999998,1097.8166000000238,1098.3194999999998,1095.9802000000475,1097.8166000000238,1098.8159999999998,1099.3129000000356,1099.3129000000356,1101.7129000000357,1496,1101.7129000000357,5,1101.7176000000238,4,5,125,25,1,0.8,0.7,Time
,,671778,001,,,2025-06-03_22h58.43.509,Serial_Dependence_U,2023.2.3,Win32,166.66666666666666,,,,,,1101.717800000012,62,4,1101.7179000000356,62,,,,1105.0882000000477,1105.584800000012,1104.5856000000238,1105.0882000000477,1102.7192000000475,1104.5855,1105.5849000000358,1106.0817000000477,1106.0818000000118,1108.118,1680,1108.1182000000476,5,1108.1224000000357,4,6,126,0,1,0.8,0.3,Time
,,671778,001,,,2025-06-03_22h58.43.509,Serial_Dependence_U,2023.2.3,Win32,166.66666666666666,,,,,,1108.1226000000238,94,4,1108.1227000000476,94,,,,1112.0632000000476,1112.5596000000237,1111.5604000000358,1112.0632000000476,1109.1241000000236,1111.560300000012,1112.5596000000237,1113.0567000000476,1113.0567000000476,1114.4932000000476,1430,1114.493300000012,3,1114.4975,4,7,127,28,1,1.4,0.7,Time
,,671778,001,,,2025-06-03_22h58.43.509,Serial_Dependence_U,2023.2.3,Win32,166.66666666666666,,,,,,1114.4977000000476,17,4,1114.497800000012,17,,,,1118.0686000000237,1118.5649000000358,1117.5657000000476,1118.0684999999999,1115.4992000000475,1117.5657000000476,1118.5649999999998,1119.062,1119.062,1121.2134000000358,1677,1121.2134999999998,5,1121.2175,4,8,128,1,1,1,0.3,Time
,,671778,001,,,2025-06-03_22h58.43.509,Serial_Dependence_U,2023.2.3,Win32,166.66666666666666,,,,,,1121.2176000000238,300,4,1121.2177000000477,300,,,,1124.758800000012,1125.2552000000476,1124.2559000000356,1124.7587000000476,1122.219800000012,1124.2558000000117,1125.2552000000476,1125.7521000000238,1125.7521000000238,1127.2916000000237,1301,1127.2917000000475,5,1127.2959999999998,4,9,129,16,1,1,0.7,Time
,,671778,001,,,2025-06-03_22h58.43.509,Serial_Dependence_U,2023.2.3,Win32,166.66666666666666,,,,,,1127.2962000000475,78,4,1127.2962000000475,78,,,,1130.6371000000238,1131.1333000000118,1130.1339000000357,1130.6371000000238,1128.2977000000476,1130.133800000012,1131.1334000000356,1131.6302000000476,1131.6302000000476,1134.5635,1344,1134.5635,5,1134.5676000000237,4,10,130,5,1,0.8,0.7,Time
,,671778,001,,,2025-06-03_22h58.43.509,Serial_Dependence_U,2023.2.3,Win32,166.66666666666666,,,,,,1134.5678000000119,258,4,1134.5679000000357,258,,,,1138.539,1139.0354000000357,1138.0359000000358,1138.5388000000119,1135.5702000000476,1138.0359000000358,1139.0354000000357,1139.532300000012,1139.532300000012,1141.5141000000237,1800,1141.5141000000237,4,1141.5179999999998,4,11,131,13,1,1.4,0.3,Time
,,671778,001,,,2025-06-03_22h58.43.509,Serial_Dependence_U,2023.2.3,Win32,166.66666666666666,,,,,,1141.5182000000475,262,4,1141.5182000000475,262,,,,1145.6896000000238,1146.186,1145.1872000000476,1145.6895,1142.5201000000238,1145.1872000000476,1146.1861000000238,1146.683,1146.683,1148.5193000000118,1794,1148.5193000000118,4,1148.523300000012,4,12,132,14,1,1.6,0.3,Time
,,671778,001,,,2025-06-03_22h58.43.509,Serial_Dependence_U,2023.2.3,Win32,166.66666666666666,,,,,,1148.5235,285,4,1148.5236000000239,285,,,,1152.465300000012,1152.9609000000357,1151.9617000000476,1152.465300000012,1149.525800000012,1151.9616000000237,1152.9609000000357,1153.4579000000356,1153.4579999999999,1155.7185,2230,1155.7187000000476,5,1155.7227000000476,4,13,133,8,1,1.4,0.7,Time
,,671778,001,,,2025-06-03_22h58.43.509,Serial_Dependence_U,2023.2.3,Win32,166.66666666666666,,,,,,1155.7229000000357,218,4,1155.723,218,,,,1159.088,1159.5844000000357,1158.5849999999998,1159.088,1156.724300000012,1158.5849999999998,1159.5844000000357,1160.0813000000119,1160.0814000000357,1170.4199000000356,2109,1170.4199999999998,5,1170.4243000000117,4,14,134,10,1,0.8,0.3,Time
,,671778,001,,,2025-06-03_22h58.43.509,Serial_Dependence_U,2023.2.3,Win32,166.66666666666666,,,,,,1170.4244999999999,347,4,1170.4246000000237,347,,,,1174.3953000000117,1174.891800000012,1173.8922000000475,1174.3952000000477,1171.4259000000357,1173.8922000000475,1174.891800000012,1175.3886000000236,1175.3887000000475,1176.7586000000238,1037,1176.7586000000238,2,1176.7628000000118,4,15,135,23,1,1.4,0.3,Time
,,671778,001,,,2025-06-03_22h58.43.509,Serial_Dependence_U,2023.2.3,Win32,166.66666666666666,,,,,,1176.763,74,4,1176.7631000000238,74,,,,1180.9034000000356,1181.3999999999999,1180.4006000000238,1180.9033000000118,1177.7648000000117,1180.4005,1181.3999999999999,1181.8971000000238,1181.8971000000238,1184.4486000000238,2314,1184.4486000000238,5,1184.4531000000238,4,16,136,19,1,1.6,0.7,Time
,,671778,001,,,2025-06-03_22h58.43.509,Serial_Dependence_U,2023.2.3,Win32,166.66666666666666,,,,,,1184.4533000000117,260,4,1184.4533000000117,260,,,,1187.8239000000356,1188.3206000000237,1187.3211000000238,1187.8239000000356,1185.4544999999998,1187.321,1188.3206000000237,1188.8174999999999,1188.8176000000237,1192.7385,1512,1192.7385,5,1192.7427000000475,4,17,137,20,1,0.8,0.3,Time
,,671778,001,,,2025-06-03_22h58.43.509,Serial_Dependence_U,2023.2.3,Win32,166.66666666666666,,,,,,1192.7429000000357,255,4,1192.7429000000357,255,,,,1196.9142000000477,1197.413,1196.4109000000358,1196.9141000000238,1193.7445,1196.410800000012,1197.4131000000239,1197.9132000000477,1197.9132000000477,1200.2224000000356,2011,1200.2224000000356,4,1200.2268000000117,4,18,138,4,1,1.6,0.3,Time
,,671778,001,,,2025-06-03_22h58.43.509,Serial_Dependence_U,2023.2.3,Win32,166.66666666666666,,,,,,1200.2269999999999,68,4,1200.2271000000237,68,,,,1203.9674000000357,1204.464,1203.4646000000237,1203.9674000000357,1201.2283000000118,1203.4646000000237,1204.464,1204.960800000012,1204.9609000000357,1205.6944999999998,707,1205.6944999999998,1,1205.6985,4,19,139,17,1,1.2,0.7,Time
,,671778,001,,,2025-06-03_22h58.43.509,Serial_Dependence_U,2023.2.3,Win32,166.66666666666666,,,,,,1205.6987000000477,133,4,1205.6987000000477,133,,,,1209.4699000000358,1209.9662000000476,1208.9671000000237,1209.469800000012,1206.7005,1208.9671000000237,1209.9663000000119,1210.463300000012,1210.4634000000358,1212.7058000000118,1508,1212.7059000000356,4,1212.7099999999998,4,20,140,2,1,1.2,0.3,Time
,,671778,001,,,2025-06-03_22h58.43.509,Serial_Dependence_U,2023.2.3,Win32,166.66666666666666,,,,,,1212.7103000000118,88,4,1212.7103000000118,88,,,,1216.2814000000358,1216.777800000012,1215.7786000000237,1216.2814000000358,1213.7118000000119,1215.7785,1216.777800000012,1217.2746000000238,1217.2747000000477,1219.1779000000356,1840,1219.1779000000356,5,1219.1822000000475,4,21,141,21,1,1,0.3,Time
,,671778,001,,,2025-06-03_22h58.43.509,Serial_Dependence_U,2023.2.3,Win32,166.66666666666666,,,,,,1219.1824000000356,23,4,1219.1824000000356,23,,,,1222.9232000000477,1223.4192000000476,1222.4199999999998,1222.9231000000239,1220.1839000000357,1222.4199000000356,1223.4193000000118,1223.9162000000476,1223.9162000000476,1228.0312000000476,2351,1228.031300000012,5,1228.0354000000357,4,22,142,7,1,1.2,0.7,Time
,,671778,001,,,2025-06-03_22h58.43.509,Serial_Dependence_U,2023.2.3,Win32,166.66666666666666,,,,,,1228.0356000000238,87,4,1228.0357000000477,87,,,,1232.176300000012,1232.6788000000117,1231.6733000000117,1232.1762000000476,1229.0377000000476,1231.6733000000117,1232.6788000000117,1233.1757000000475,1233.1758000000118,1236.8362000000477,1825,1236.8362000000477,4,1236.8409000000356,4,23,143,29,1,1.6,0.7,Time
,,671778,001,,,2025-06-03_22h58.43.509,Serial_Dependence_U,2023.2.3,Win32,166.66666666666666,,,,,,1236.8411000000237,128,4,1236.8413000000119,128,,,,1240.6116000000238,1241.1082000000476,1240.1088000000118,1240.6116000000238,1237.8421000000237,1240.1088000000118,1241.1082000000476,1241.6049000000357,1241.6049000000357,1242.9504000000356,1081,1242.9505,2,1242.9547000000475,4,24,144,22,1,1.2,0.3,Time
,,671778,001,,,2025-06-03_22h58.43.509,Serial_Dependence_U,2023.2.3,Win32,166.66666666666666,,,,,,1242.955,60,4,1242.955,60,,,,1246.7261000000237,1247.2224999999999,1246.223300000012,1246.7259999999999,1243.9566000000239,1246.2231000000238,1247.2224999999999,1247.7194000000356,1247.7194000000356,1250.2891000000238,1618,1250.2891000000238,5,1250.2933000000119,4,25,145,12,1,1.2,0.3,Time
,,671778,001,,,2025-06-03_22h58.43.509,Serial_Dependence_U,2023.2.3,Win32,166.66666666666666,,,,,,1250.2934000000357,239,4,1250.2934000000357,239,,,,1254.2647000000477,1254.761,1253.7619000000357,1254.2646000000238,1251.2953000000118,1253.7618000000118,1254.761,1255.2581000000237,1255.2582000000475,1256.7189000000358,1429,1256.7189000000358,3,1256.7234000000358,4,26,146,3,1,1.4,0.3,Time
,,671778,001,,,2025-06-03_22h58.43.509,Serial_Dependence_U,2023.2.3,Win32,166.66666666666666,,,,,,1256.7236000000237,240,4,1256.7236000000237,240,,,,1260.2639000000356,1260.7604000000356,1259.761,1260.2639000000356,1257.7249000000356,1259.761,1260.7604000000356,1261.2573000000118,1261.2573000000118,1263.845,1711,1263.845,5,1263.8489000000357,4,27,147,26,1,1,0.7,Time
,,671778,001,,,2025-06-03_22h58.43.509,Serial_Dependence_U,2023.2.3,Win32,166.66666666666666,,,,,,1263.8491000000238,62,4,1263.8492000000476,62,,,,1267.3906000000238,1267.8867000000475,1266.8872000000476,1267.3905,1264.8512000000476,1266.8872000000476,1267.8867000000475,1268.3846000000237,1268.3846000000237,1271.0508000000118,1884,1271.0508000000118,5,1271.0549000000358,4,28,148,6,1,1,0.7,Time
,,671778,001,,,2025-06-03_22h58.43.509,Serial_Dependence_U,2023.2.3,Win32,166.66666666666666,,,,,,1271.0551000000237,296,4,1271.0551000000237,296,,,,1274.7955,1275.2919000000356,1274.2926000000239,1274.7954000000357,1272.056800000012,1274.2925,1275.292,1275.7888000000119,1275.7889000000357,1279.528,2080,1279.5281000000239,5,1279.5324000000358,4,29,149,27,1,1.2,0.7,Time
,,671778,001,,,2025-06-03_22h58.43.509,Serial_Dependence_U,2023.2.3,Win32,166.66666666666666,,,,,,1279.5326000000236,159,5,1332.8408000000118,159,s,53.29380000001197,,1336.4125,1336.9088000000118,1335.9094000000357,1336.4124000000356,1333.8429999999998,1335.9094000000357,1336.9089000000356,1337.4058000000118,1337.4058000000118,1339.1329999999998,1460,1339.1331000000237,5,1339.137300000012,5,0,150,1,1,1,0.3,Time
,,671778,001,,,2025-06-03_22h58.43.509,Serial_Dependence_U,2023.2.3,Win32,166.66666666666666,,,,,,1339.1374999999998,39,5,1339.1394000000357,39,,,,1343.1086000000237,1343.605,1342.6054000000356,1343.1086000000237,1340.1393000000119,1342.6053000000118,1343.605,1344.1019999999999,1344.1019999999999,1348.3014999999998,1596,1348.3016000000237,4,1348.3059000000358,5,1,151,13,1,1.4,0.3,Time
,,671778,001,,,2025-06-03_22h58.43.509,Serial_Dependence_U,2023.2.3,Win32,166.66666666666666,,,,,,1348.3061000000237,292,5,1348.3062000000475,292,,,,1352.4469000000356,1352.9434000000356,1351.9439000000357,1352.4468000000118,1349.3079000000357,1351.9439000000357,1352.9434000000356,1353.4403000000118,1353.4403000000118,1355.598,1873,1355.598,4,1355.6022000000476,5,2,152,29,1,1.6,0.7,Time
,,671778,001,,,2025-06-03_22h58.43.509,Serial_Dependence_U,2023.2.3,Win32,166.66666666666666,,,,,,1355.6024000000357,140,5,1355.6024000000357,140,,,,1359.3429000000356,1359.8394999999998,1358.8398000000118,1359.342800000012,1356.6039000000358,1358.8398000000118,1359.8394999999998,1360.3363000000118,1360.3364000000356,1362.0214000000358,1424,1362.0214999999998,4,1362.0255,5,3,153,17,1,1.2,0.7,Time
,,671778,001,,,2025-06-03_22h58.43.509,Serial_Dependence_U,2023.2.3,Win32,166.66666666666666,,,,,,1362.0256000000238,29,5,1362.0256000000238,29,,,,1366.1664999999998,1366.6633000000118,1365.6634999999999,1366.1664000000358,1363.0273000000118,1365.6634999999999,1366.6633000000118,1367.1599999999999,1367.1601000000237,1369.2445,1763,1369.2445,4,1369.249,5,4,154,9,1,1.6,0.7,Time
,,671778,001,,,2025-06-03_22h58.43.509,Serial_Dependence_U,2023.2.3,Win32,166.66666666666666,,,,,,1369.2492000000475,160,5,1369.2492000000475,160,,,,1373.1899000000358,1373.6864000000357,1372.6867000000475,1373.1899000000358,1370.2509000000357,1372.6866000000236,1373.6864000000357,1374.1832000000477,1374.1833000000117,1377.8557000000476,1575,1377.8557000000476,4,1377.8601000000237,5,5,155,28,1,1.4,0.7,Time
,,671778,001,,,2025-06-03_22h58.43.509,Serial_Dependence_U,2023.2.3,Win32,166.66666666666666,,,,,,1377.8602000000476,139,5,1377.8603000000119,139,,,,1381.4009999999998,1381.8974999999998,1380.898,1381.4009999999998,1378.8621000000237,1380.898,1381.8974999999998,1382.3943000000118,1382.3944000000356,1384.2671000000237,1658,1384.2671000000237,5,1384.2711000000238,5,6,156,16,1,1,0.7,Time
,,671778,001,,,2025-06-03_22h58.43.509,Serial_Dependence_U,2023.2.3,Win32,166.66666666666666,,,,,,1384.2712000000477,91,5,1384.271300000012,91,,,,1387.6424000000357,1388.1391000000237,1387.1397000000477,1387.6424000000357,1385.273300000012,1387.1397000000477,1388.1391000000237,1388.6361000000238,1388.6361000000238,1390.6905,1927,1390.6905,5,1390.6944999999998,5,7,157,10,1,0.8,0.3,Time
,,671778,001,,,2025-06-03_22h58.43.509,Serial_Dependence_U,2023.2.3,Win32,166.66666666666666,,,,,,1390.6946000000237,289,5,1390.6947000000475,289,,,,1394.2664000000357,1394.7626000000237,1393.7631000000238,1394.2664000000357,1391.6967000000475,1393.763,1394.7626000000237,1395.2595,1395.2595,1397.5021000000238,1770,1397.5021000000238,5,1397.5064000000357,5,8,158,21,1,1,0.3,Time
,,671778,001,,,2025-06-03_22h58.43.509,Serial_Dependence_U,2023.2.3,Win32,166.66666666666666,,,,,,1397.5066000000238,66,5,1397.5066000000238,66,,,,1401.0471000000236,1401.5437000000477,1400.5443000000118,1401.0471000000236,1398.5081000000237,1400.5443000000118,1401.5437000000477,1402.0411000000238,1402.0412000000476,1402.204300000012,135,1402.204300000012,1,1402.2082000000476,5,9,159,26,1,1,0.7,Time
,,671778,001,,,2025-06-03_22h58.43.509,Serial_Dependence_U,2023.2.3,Win32,166.66666666666666,,,,,,1402.2084000000357,244,5,1402.2085,244,,,,1405.5494999999999,1406.0461000000237,1405.0467000000476,1405.5494999999999,1403.2104000000356,1405.0467000000476,1406.0462000000475,1406.543,1406.5431000000237,1413.9728000000118,1448,1413.9728000000118,5,1413.9772000000476,5,10,160,5,1,0.8,0.7,Time
,,671778,001,,,2025-06-03_22h58.43.509,Serial_Dependence_U,2023.2.3,Win32,166.66666666666666,,,,,,1413.9774000000357,78,5,1413.9775,78,,,,1418.1181000000238,1418.6205,1417.6149000000357,1418.1179000000357,1414.9789999999998,1417.6149000000357,1418.6205,1419.117300000012,1419.117300000012,1421.1597000000477,1951,1421.1598000000117,4,1421.164,5,11,161,19,1,1.6,0.7,Time
,,671778,001,,,2025-06-03_22h58.43.509,Serial_Dependence_U,2023.2.3,Win32,166.66666666666666,,,,,,1421.1642000000477,43,5,1421.1643000000117,43,,,,1424.935300000012,1425.432,1424.4324000000356,1424.9352000000476,1422.1658000000118,1424.4323000000118,1425.432,1425.9289000000356,1425.9289000000356,1427.868300000012,1593,1427.8684000000358,5,1427.872800000012,5,12,162,22,1,1.2,0.3,Time
,,671778,001,,,2025-06-03_22h58.43.509,Serial_Dependence_U,2023.2.3,Win32,166.66666666666666,,,,,,1427.8729999999998,142,5,1427.8731000000237,142,,,,1431.6132000000475,1432.1096000000236,1431.1102000000476,1431.6132000000475,1428.8741000000236,1431.1101000000237,1432.1096000000236,1432.6066000000237,1432.6066000000237,1434.3946000000237,1446,1434.3947000000476,4,1434.3988000000118,5,13,163,27,1,1.2,0.7,Time
,,671778,001,,,2025-06-03_22h58.43.509,Serial_Dependence_U,2023.2.3,Win32,166.66666666666666,,,,,,1434.3989000000356,211,5,1434.399,211,,,,1438.3396000000237,1438.8362000000477,1437.8373000000117,1438.3396000000237,1435.4006000000238,1437.8372000000477,1438.8362000000477,1439.3332000000476,1439.3332000000476,1440.9997000000476,1331,1440.9997000000476,3,1441.0041000000238,5,14,164,18,1,1.4,0.7,Time
,,671778,001,,,2025-06-03_22h58.43.509,Serial_Dependence_U,2023.2.3,Win32,166.66666666666666,,,,,,1441.0043000000119,225,5,1441.0044000000357,225,,,,1444.9753000000119,1445.4717000000476,1444.4724000000356,1444.9753000000119,1442.0058000000117,1444.4724000000356,1445.4717000000476,1445.9686000000238,1445.9687000000476,1447.9507000000476,1410,1447.9507000000476,3,1447.9549000000357,5,15,165,3,1,1.4,0.3,Time
,,671778,001,,,2025-06-03_22h58.43.509,Serial_Dependence_U,2023.2.3,Win32,166.66666666666666,,,,,,1447.9551000000238,305,5,1447.9551000000238,305,,,,1451.7262000000476,1452.2224000000356,1451.2232000000477,1451.7262000000476,1448.9566000000239,1451.2231000000238,1452.2224000000356,1452.7194000000356,1452.7194000000356,1454.9558000000118,1715,1454.9558000000118,5,1454.9601000000237,5,16,166,2,1,1.2,0.3,Time
,,671778,001,,,2025-06-03_22h58.43.509,Serial_Dependence_U,2023.2.3,Win32,166.66666666666666,,,,,,1454.9603000000118,83,5,1454.9604000000356,83,,,,1458.5318000000118,1459.0277000000476,1458.0283000000118,1458.5318000000118,1455.9617000000476,1458.0283000000118,1459.0277000000476,1459.5246000000238,1459.5248000000117,1461.9669999999999,1897,1461.9669999999999,5,1461.971,5,17,167,11,1,1,0.3,Time
,,671778,001,,,2025-06-03_22h58.43.509,Serial_Dependence_U,2023.2.3,Win32,166.66666666666666,,,,,,1461.9711000000239,318,5,1461.9712000000477,318,,,,1465.7424999999998,1466.2389999999998,1465.2397000000476,1465.7424999999998,1462.9732000000477,1465.2396000000238,1466.2389999999998,1466.7359000000356,1466.7359000000356,1468.9236000000237,1618,1468.9237000000476,5,1468.9278000000118,5,18,168,12,1,1.2,0.3,Time
,,671778,001,,,2025-06-03_22h58.43.509,Serial_Dependence_U,2023.2.3,Win32,166.66666666666666,,,,,,1468.9279999999999,301,5,1468.9281000000237,301,,,,1472.2691000000239,1472.7655,1471.7666000000238,1472.269,1469.9297000000477,1471.7665,1472.7655,1473.2624000000358,1473.2624000000358,1475.4686000000238,1896,1475.4686000000238,5,1475.4728000000118,5,19,169,25,1,0.8,0.7,Time
,,671778,001,,,2025-06-03_22h58.43.509,Serial_Dependence_U,2023.2.3,Win32,166.66666666666666,,,,,,1475.473,320,5,1475.473,320,,,,1479.4439000000357,1479.9404000000357,1478.9409999999998,1479.4437000000476,1476.4746000000237,1478.9409000000358,1479.9404000000357,1480.4372000000476,1480.4372000000476,1482.5039000000356,1843,1482.504,5,1482.5079999999998,5,20,170,23,1,1.4,0.3,Time
,,671778,001,,,2025-06-03_22h58.43.509,Serial_Dependence_U,2023.2.3,Win32,166.66666666666666,,,,,,1482.5081000000237,201,5,1482.5082000000475,201,,,,1485.8795,1486.376,1485.3766000000237,1485.8794000000357,1483.5101000000238,1485.3766000000237,1486.376,1486.8729000000358,1486.8729000000358,1494.0544000000357,4363,1494.0544000000357,5,1494.0586000000237,5,21,171,20,1,0.8,0.3,Time
,,671778,001,,,2025-06-03_22h58.43.509,Serial_Dependence_U,2023.2.3,Win32,166.66666666666666,,,,,,1494.0588000000118,328,5,1494.0588000000118,328,,,,1497.4297000000477,1497.9264000000358,1496.9268000000118,1497.4297000000477,1495.0602000000476,1496.9268000000118,1497.9264000000358,1498.423,1498.423,1502.6167000000476,1115,1502.6167000000476,5,1502.6213000000118,5,22,172,0,1,0.8,0.3,Time
,,671778,001,,,2025-06-03_22h58.43.509,Serial_Dependence_U,2023.2.3,Win32,166.66666666666666,,,,,,1502.6215,311,5,1502.6216000000238,311,,,,1506.7922000000476,1507.2886000000237,1506.2894000000356,1506.7922000000476,1503.6229999999998,1506.2893000000117,1507.2887000000476,1507.7855,1507.7855,1510.7428000000118,2346,1510.7429000000357,5,1510.7472000000475,5,23,173,4,1,1.6,0.3,Time
,,671778,001,,,2025-06-03_22h58.43.509,Serial_Dependence_U,2023.2.3,Win32,166.66666666666666,,,,,,1510.7474000000357,302,5,1510.7474000000357,302,,,,1514.9186000000238,1515.4149000000357,1514.4157000000475,1514.9185,1511.7493000000118,1514.4156000000237,1515.4149000000357,1515.9119000000358,1515.9119000000358,1518.4389999999999,1909,1518.4391000000237,4,1518.4433000000117,5,24,174,24,1,1.6,0.3,Time
,,671778,001,,,2025-06-03_22h58.43.509,Serial_Dependence_U,2023.2.3,Win32,166.66666666666666,,,,,,1518.4434000000356,169,5,1518.4434999999999,169,,,,1522.1841000000238,1522.6807000000476,1521.6814000000356,1522.1841000000238,1519.445,1521.6813000000118,1522.6807000000476,1523.1777000000477,1523.1777000000477,1525.4624000000356,1921,1525.4624999999999,5,1525.4671000000237,5,25,175,7,1,1.2,0.7,Time
,,671778,001,,,2025-06-03_22h58.43.509,Serial_Dependence_U,2023.2.3,Win32,166.66666666666666,,,,,,1525.4673000000118,123,5,1525.4673000000118,123,,,,1528.8079000000357,1529.3042000000476,1528.3047000000477,1528.8078000000119,1526.4686000000238,1528.3047000000477,1529.3043000000118,1529.801300000012,1529.801300000012,1531.6009999999999,1382,1531.6011000000237,5,1531.6057000000476,5,26,176,15,1,0.8,0.7,Time
,,671778,001,,,2025-06-03_22h58.43.509,Serial_Dependence_U,2023.2.3,Win32,166.66666666666666,,,,,,1531.6059000000357,350,5,1531.6059000000357,350,,,,1535.146300000012,1535.6429000000358,1534.6435,1535.146300000012,1532.607300000012,1534.6435,1535.6429000000358,1536.1398000000117,1536.1399000000356,1537.8126000000238,1266,1537.8128000000117,4,1537.8169000000357,5,27,177,6,1,1,0.7,Time
,,671778,001,,,2025-06-03_22h58.43.509,Serial_Dependence_U,2023.2.3,Win32,166.66666666666666,,,,,,1537.817,278,5,1537.8171000000239,278,,,,1541.9881000000237,1542.4844000000357,1541.4851000000237,1541.9881000000237,1538.8189000000357,1541.4851000000237,1542.4845,1542.9814999999999,1542.9814999999999,1544.866,1613,1544.8661000000238,3,1544.87,5,28,178,14,1,1.6,0.3,Time
,,671778,001,,,2025-06-03_22h58.43.509,Serial_Dependence_U,2023.2.3,Win32,166.66666666666666,,,,,,1544.8701000000237,252,5,1544.8702000000476,252,,,,1548.8118000000118,1549.308,1548.3086000000237,1548.8118000000118,1545.8724000000357,1548.3084999999999,1549.308,1549.8109000000356,1549.8109000000356,1551.9199000000356,1872,1551.9201000000237,5,1551.9243000000117,5,29,179,8,1,1.4,0.7,Time
,,671778,001,,,2025-06-03_22h58.43.509,Serial_Dependence_U,2023.2.3,Win32,166.66666666666666,,,,,,1551.9244999999999,313,6,1635.205,313,s,83.27019999998811,,1639.3462000000477,1639.8427000000477,1638.8431000000237,1639.3461000000239,1636.2072000000476,1638.8431000000237,1639.8427000000477,1640.3396000000237,1640.3396000000237,1642.6062000000477,1832,1642.6062000000477,4,1642.6102000000476,6,0,180,9,1,1.6,0.7,Time
,,671778,001,,,2025-06-03_22h58.43.509,Serial_Dependence_U,2023.2.3,Win32,166.66666666666666,,,,,,1642.6104000000357,205,6,1642.6111000000237,205,,,,1646.3819000000358,1646.8782000000476,1645.8784999999998,1646.381800000012,1643.6123000000118,1645.8784999999998,1646.8782000000476,1647.375,1647.375,1648.8298000000118,1242,1648.8299000000357,3,1648.8339999999998,6,1,181,12,1,1.2,0.3,Time
,,671778,001,,,2025-06-03_22h58.43.509,Serial_Dependence_U,2023.2.3,Win32,166.66666666666666,,,,,,1648.8342000000475,322,6,1648.8343000000118,322,,,,1652.175,1652.6714000000356,1651.6719000000357,1652.175,1649.8359000000357,1651.6719000000357,1652.6714000000356,1653.1684000000357,1653.1684000000357,1654.6289000000356,1243,1654.6289000000356,5,1654.632800000012,6,2,182,15,1,0.8,0.7,Time
,,671778,001,,,2025-06-03_22h58.43.509,Serial_Dependence_U,2023.2.3,Win32,166.66666666666666,,,,,,1654.6329999999998,246,6,1654.6331000000237,246,,,,1658.6044000000356,1659.1009000000356,1658.1014000000357,1658.6044000000356,1655.6353000000117,1658.1014000000357,1659.1009999999999,1659.5979000000357,1659.5979000000357,1661.4644999999998,1679,1661.4646000000237,4,1661.4689999999998,6,3,183,13,1,1.4,0.3,Time
,,671778,001,,,2025-06-03_22h58.43.509,Serial_Dependence_U,2023.2.3,Win32,166.66666666666666,,,,,,1661.4691000000237,250,6,1661.4692000000475,250,,,,1665.6401000000237,1666.1364000000356,1665.1371000000238,1665.6401000000237,1662.4707000000476,1665.1371000000238,1666.1364999999998,1666.6334000000356,1666.6334000000356,1668.5729999999999,1593,1668.5731000000237,3,1668.577,6,4,184,4,1,1.6,0.3,Time
,,671778,001,,,2025-06-03_22h58.43.509,Serial_Dependence_U,2023.2.3,Win32,166.66666666666666,,,,,,1668.5772000000477,211,6,1668.5773000000117,211,,,,1672.7181000000237,1673.2144999999998,1672.2151000000238,1672.7181000000237,1669.579,1672.2151000000238,1673.2144999999998,1673.7113000000118,1673.7113000000118,1675.9419000000357,2018,1675.9419000000357,4,1675.9461000000238,6,5,185,29,1,1.6,0.7,Time
,,671778,001,,,2025-06-03_22h58.43.509,Serial_Dependence_U,2023.2.3,Win32,166.66666666666666,,,,,,1675.946300000012,94,6,1675.946300000012,94,,,,1679.2869999999998,1679.7834000000357,1678.7841000000237,1679.2869999999998,1676.9478000000117,1678.7839000000356,1679.7834000000357,1680.280300000012,1680.2804000000356,1682.2744000000357,1727,1682.2744000000357,5,1682.2786000000237,6,6,186,5,1,0.8,0.7,Time
,,671778,001,,,2025-06-03_22h58.43.509,Serial_Dependence_U,2023.2.3,Win32,166.66666666666666,,,,,,1682.2787000000476,160,6,1682.2788000000119,160,,,,1686.4496000000238,1686.9461000000238,1685.9471000000237,1686.4496000000238,1683.2804999999998,1685.9471000000237,1686.9461000000238,1687.4431000000238,1687.4431000000238,1689.5221000000238,1840,1689.5221000000238,4,1689.5264000000357,6,7,187,14,1,1.6,0.3,Time
,,671778,001,,,2025-06-03_22h58.43.509,Serial_Dependence_U,2023.2.3,Win32,166.66666666666666,,,,,,1689.5265,172,6,1689.5267000000476,172,,,,1693.6973000000119,1694.1937000000476,1693.194300000012,1693.6973000000119,1690.5281000000239,1693.194300000012,1694.1938000000118,1694.6907000000476,1694.690800000012,1696.8725,1734,1696.8725,4,1696.8764999999999,6,8,188,24,1,1.6,0.3,Time
,,671778,001,,,2025-06-03_22h58.43.509,Serial_Dependence_U,2023.2.3,Win32,166.66666666666666,,,,,,1696.8767000000475,253,6,1696.8768000000118,253,,,,1700.4177000000475,1700.9142000000477,1699.9144999999999,1700.4176000000239,1697.8786000000237,1699.9144999999999,1700.9142000000477,1701.4111000000237,1701.4111000000237,1702.2899000000357,848,1702.29,2,1702.2939999999999,6,9,189,16,1,1,0.7,Time
,,671778,001,,,2025-06-03_22h58.43.509,Serial_Dependence_U,2023.2.3,Win32,166.66666666666666,,,,,,1702.2943000000118,311,6,1702.2943000000118,311,,,,1705.836,1706.3323000000119,1705.3322000000476,1705.836,1703.2963000000118,1705.3321000000237,1706.3323000000119,1706.8289000000357,1706.829,1708.5559000000358,1444,1708.5559000000358,5,1708.5599000000357,6,10,190,6,1,1,0.7,Time
,,671778,001,,,2025-06-03_22h58.43.509,Serial_Dependence_U,2023.2.3,Win32,166.66666666666666,,,,,,1708.5601000000238,186,6,1708.5601000000238,186,,,,1712.5314999999998,1713.0279000000357,1712.0285,1712.5314999999998,1709.562,1712.0285,1713.028,1713.5248000000117,1713.5248000000117,1717.9671000000237,1755,1717.9671000000237,4,1717.9716000000237,6,11,191,23,1,1.4,0.3,Time
,,671778,001,,,2025-06-03_22h58.43.509,Serial_Dependence_U,2023.2.3,Win32,166.66666666666666,,,,,,1717.9718000000119,68,6,1717.9718000000119,68,,,,1721.712,1722.2087000000477,1721.2093000000118,1721.7119000000357,1718.973,1721.2093000000118,1722.2087000000477,1722.7056000000237,1722.7056000000237,1724.8874999999998,2004,1724.8874999999998,5,1724.8916000000238,6,12,192,27,1,1.2,0.7,Time
,,671778,001,,,2025-06-03_22h58.43.509,Serial_Dependence_U,2023.2.3,Win32,166.66666666666666,,,,,,1724.8917000000476,41,6,1724.891800000012,41,,,,1728.2629000000356,1728.7594000000356,1727.7601000000238,1728.2629000000356,1725.8932000000475,1727.7599000000357,1728.7594000000356,1729.2563000000118,1729.2563000000118,1731.0199000000357,1505,1731.0199000000357,5,1731.0237000000477,6,13,193,20,1,0.8,0.3,Time
,,671778,001,,,2025-06-03_22h58.43.509,Serial_Dependence_U,2023.2.3,Win32,166.66666666666666,,,,,,1731.0239000000356,339,6,1731.024,339,,,,1734.5649999999998,1735.0616000000236,1734.0623000000119,1734.5649999999998,1732.0259999999998,1734.0622000000476,1735.0616000000236,1735.5586000000237,1735.5586000000237,1740.8312000000476,1471,1740.8312000000476,5,1740.8354000000356,6,14,194,26,1,1,0.7,Time
,,671778,001,,,2025-06-03_22h58.43.509,Serial_Dependence_U,2023.2.3,Win32,166.66666666666666,,,,,,1740.8356000000238,318,6,1740.8357000000476,318,,,,1744.4064999999998,1744.9029000000357,1743.9035,1744.4064000000358,1741.8369000000357,1743.9035,1744.9029000000357,1745.3998000000117,1745.3999000000356,1747.0422000000476,1546,1747.042300000012,5,1747.0474000000356,6,15,195,11,1,1,0.3,Time
,,671778,001,,,2025-06-03_22h58.43.509,Serial_Dependence_U,2023.2.3,Win32,166.66666666666666,,,,,,1747.0476000000237,213,6,1747.0477000000476,213,,,,1750.4176000000239,1750.9143000000117,1749.9149000000357,1750.4175,1748.0484000000356,1749.9148000000118,1750.9143000000117,1751.4112000000475,1751.4112000000475,1754.7324999999998,1685,1754.7324999999998,5,1754.7367000000477,6,16,196,0,1,0.8,0.3,Time
,,671778,001,,,2025-06-03_22h58.43.509,Serial_Dependence_U,2023.2.3,Win32,166.66666666666666,,,,,,1754.7369000000356,278,6,1754.7369000000356,278,,,,1758.3077000000476,1758.8043000000118,1757.8049000000358,1758.3076000000237,1755.7384000000357,1757.8049000000358,1758.8043000000118,1759.3012000000476,1759.3012000000476,1762.6284999999998,1776,1762.6286000000237,5,1762.6329000000358,6,17,197,21,1,1,0.3,Time
,,671778,001,,,2025-06-03_22h58.43.509,Serial_Dependence_U,2023.2.3,Win32,166.66666666666666,,,,,,1762.6329999999998,210,6,1762.6332000000475,210,,,,1766.5737000000477,1767.0699000000357,1766.0707000000475,1766.5737000000477,1763.6343000000118,1766.0706000000237,1767.07,1767.5669000000357,1767.5669000000357,1770.0397000000476,1975,1770.0397000000476,5,1770.0439999999999,6,18,198,18,1,1.4,0.7,Time
,,671778,001,,,2025-06-03_22h58.43.509,Serial_Dependence_U,2023.2.3,Win32,166.66666666666666,,,,,,1770.0441000000237,193,6,1770.0443000000118,193,,,,1774.1846000000237,1774.6813000000118,1773.6819000000357,1774.1844999999998,1771.0455,1773.681800000012,1774.6813000000118,1775.1782000000476,1775.1782000000476,1777.8748000000119,2030,1777.8748000000119,4,1777.879,6,19,199,19,1,1.6,0.7,Time
,,671778,001,,,2025-06-03_22h58.43.509,Serial_Dependence_U,2023.2.3,Win32,166.66666666666666,,,,,,1777.8791000000238,88,6,1777.8791000000238,88,,,,1781.6205,1782.1167000000476,1781.1174000000358,1781.6205,1778.8811000000237,1781.1174000000358,1782.1168000000118,1782.6136000000238,1782.6137000000476,1784.5106000000237,1612,1784.5106000000237,5,1784.5147000000477,6,20,200,17,1,1.2,0.7,Time
,,671778,001,,,2025-06-03_22h58.43.509,Serial_Dependence_U,2023.2.3,Win32,166.66666666666666,,,,,,1784.5148000000117,39,6,1784.5149000000356,39,,,,1788.2558000000117,1788.7522000000477,1787.7531000000238,1788.2558000000117,1785.5167000000476,1787.753,1788.752300000012,1789.2491000000236,1789.2491000000236,1790.9403000000118,1441,1790.9403000000118,4,1790.944300000012,6,21,201,7,1,1.2,0.7,Time
,,671778,001,,,2025-06-03_22h58.43.509,Serial_Dependence_U,2023.2.3,Win32,166.66666666666666,,,,,,1790.9444999999998,303,6,1790.9444999999998,303,,,,1794.5154000000357,1795.012300000012,1794.0135,1794.5154000000357,1791.9461000000238,1794.0134000000357,1795.012300000012,1795.5091000000239,1795.5091000000239,1797.0604000000358,1278,1797.0604000000358,4,1797.0644000000357,6,22,202,1,1,1,0.3,Time
,,671778,001,,,2025-06-03_22h58.43.509,Serial_Dependence_U,2023.2.3,Win32,166.66666666666666,,,,,,1797.0646000000238,26,6,1797.0646000000238,26,,,,1800.4365,1800.9326000000237,1799.9333000000117,1800.4364000000357,1798.0667000000476,1799.9332000000477,1800.9326000000237,1801.4295,1801.4295,1803.7142000000476,1376,1803.7142000000476,5,1803.7184000000357,6,23,203,10,1,0.8,0.3,Time
,,671778,001,,,2025-06-03_22h58.43.509,Serial_Dependence_U,2023.2.3,Win32,166.66666666666666,,,,,,1803.7187000000476,198,6,1803.7187000000476,198,,,,1807.6597000000477,1808.156,1807.1566000000237,1807.6597000000477,1804.7205,1807.1564999999998,1808.156,1808.653,1808.653,1811.1984000000357,1727,1811.1984000000357,4,1811.2027000000476,6,24,204,8,1,1.4,0.7,Time
,,671778,001,,,2025-06-03_22h58.43.509,Serial_Dependence_U,2023.2.3,Win32,166.66666666666666,,,,,,1811.2028000000118,49,6,1811.2029000000357,49,,,,1814.974,1815.4703000000118,1814.4709000000357,1814.974,1812.204300000012,1814.4709000000357,1815.4704000000356,1815.9671000000237,1815.9672000000476,1818.1368000000118,1945,1818.1368000000118,5,1818.1409999999998,6,25,205,2,1,1.2,0.3,Time
,,671778,001,,,2025-06-03_22h58.43.509,Serial_Dependence_U,2023.2.3,Win32,166.66666666666666,,,,,,1818.1412000000475,104,6,1818.1412000000475,104,,,,1821.482,1821.9786000000238,1820.9792000000475,1821.482,1819.1429999999998,1820.9791000000237,1821.9786000000238,1822.4755,1822.4755,1830.0509000000357,1642,1830.051,5,1830.0556000000238,6,26,206,25,1,0.8,0.7,Time
,,671778,001,,,2025-06-03_22h58.43.509,Serial_Dependence_U,2023.2.3,Win32,166.66666666666666,,,,,,1830.055800000012,300,6,1830.055800000012,300,,,,1833.9957000000477,1834.492300000012,1833.4931000000238,1833.9956000000238,1831.0567000000476,1833.493,1834.492300000012,1834.9892000000475,1834.9893000000118,1837.5466000000238,2249,1837.5466000000238,5,1837.5507000000475,6,27,207,28,1,1.4,0.7,Time
,,671778,001,,,2025-06-03_22h58.43.509,Serial_Dependence_U,2023.2.3,Win32,166.66666666666666,,,,,,1837.5509000000357,28,6,1837.5509000000357,28,,,,1841.3163000000118,1841.8127000000477,1840.8133000000118,1841.3162000000475,1838.5525,1840.8132000000476,1841.8127000000477,1842.3096000000237,1842.3096000000237,1844.1279000000357,1568,1844.128,5,1844.1319999999998,6,28,208,22,1,1.2,0.3,Time
,,671778,001,,,2025-06-03_22h58.43.509,Serial_Dependence_U,2023.2.3,Win32,166.66666666666666,,,,,,1844.1322000000475,138,6,1844.1323000000118,138,,,,1848.1033000000118,1848.5997000000475,1847.6007000000477,1848.1033000000118,1845.134,1847.6006000000239,1848.5997000000475,1849.0967000000476,1849.0967000000476,1851.1453000000117,1824,1851.1454000000356,5,1851.1495,6,29,209,3,1,1.4,0.3,Time
,,671778,001,,,2025-06-03_22h58.43.509,Serial_Dependence_U,2023.2.3,Win32,166.66666666666666,,,,,,1851.1497000000477,8,7,1857.1299000000356,8,s,5.967499999999973,,1861.1015,1861.5981000000238,1860.5988000000118,1861.1015,1858.1323000000118,1860.5987000000475,1861.5982000000477,1862.0951000000236,1862.0951000000236,1864.0102000000477,1667,1864.0103000000117,4,1864.0149000000356,7,0,210,13,1,1.4,0.3,Time
,,671778,001,,,2025-06-03_22h58.43.509,Serial_Dependence_U,2023.2.3,Win32,166.66666666666666,,,,,,1864.0149999999999,173,7,1864.0157000000477,173,,,,1867.3556000000237,1867.8519000000356,1866.8524000000357,1867.3556000000237,1865.0164000000357,1866.8524000000357,1867.8519000000356,1868.349,1868.349,1869.5614000000357,1164,1869.5614000000357,5,1869.5656000000238,7,1,211,5,1,0.8,0.7,Time
,,671778,001,,,2025-06-03_22h58.43.509,Serial_Dependence_U,2023.2.3,Win32,166.66666666666666,,,,,,1869.565800000012,307,7,1869.5659000000358,307,,,,1872.9062000000476,1873.402800000012,1872.4035,1872.9062000000476,1870.5673000000118,1872.4035,1873.402800000012,1873.8997000000477,1873.8997000000477,1875.8696000000239,1569,1875.8696000000239,5,1875.8736000000238,7,2,212,15,1,0.8,0.7,Time
,,671778,001,,,2025-06-03_22h58.43.509,Serial_Dependence_U,2023.2.3,Win32,166.66666666666666,,,,,,1875.873800000012,242,7,1875.873800000012,242,,,,1879.4149000000357,1879.9113000000118,1878.9116000000238,1879.4149000000357,1876.8758000000118,1878.9116000000238,1879.9113000000118,1880.4081000000238,1880.4082000000476,1881.1114000000357,151,1881.1115,1,1881.1154999999999,7,3,213,6,1,1,0.7,Time
,,671778,001,,,2025-06-03_22h58.43.509,Serial_Dependence_U,2023.2.3,Win32,166.66666666666666,,,,,,1881.1156000000237,217,7,1881.1157000000476,217,,,,1884.8866000000237,1885.3832000000475,1884.3836000000238,1884.8864999999998,1882.117300000012,1884.3836000000238,1885.3833000000118,1885.8801000000237,1885.8802000000476,1888.0134000000357,1387,1888.0135,4,1888.0179000000358,7,4,214,22,1,1.2,0.3,Time
,,671778,001,,,2025-06-03_22h58.43.509,Serial_Dependence_U,2023.2.3,Win32,166.66666666666666,,,,,,1888.0179999999998,240,7,1888.0181000000237,240,,,,1891.9889999999998,1892.4854000000357,1891.4859999999999,1891.9889000000358,1889.0197000000476,1891.4859000000356,1892.4854000000357,1892.982300000012,1892.9824000000356,1895.4802000000475,1502,1895.4803000000118,4,1895.4845,7,5,215,23,1,1.4,0.3,Time
,,671778,001,,,2025-06-03_22h58.43.509,Serial_Dependence_U,2023.2.3,Win32,166.66666666666666,,,,,,1895.4847000000475,228,7,1895.4847000000475,228,,,,1899.4243000000117,1899.9209000000358,1898.9215,1899.4243000000117,1896.4854000000357,1898.9215,1899.9209000000358,1900.418,1900.4181000000237,1901.872800000012,1449,1901.872800000012,3,1901.877,7,6,216,28,1,1.4,0.7,Time
,,671778,001,,,2025-06-03_22h58.43.509,Serial_Dependence_U,2023.2.3,Win32,166.66666666666666,,,,,,1901.8772000000477,120,7,1901.877300000012,120,,,,1905.8479000000357,1906.3445,1905.345,1905.8479000000357,1902.8784999999998,1905.3449000000358,1906.3445,1906.8413000000119,1906.8413000000119,1908.5566000000238,1448,1908.5566000000238,3,1908.5609000000356,7,7,217,3,1,1.4,0.3,Time
,,671778,001,,,2025-06-03_22h58.43.509,Serial_Dependence_U,2023.2.3,Win32,166.66666666666666,,,,,,1908.5612000000476,354,7,1908.561300000012,354,,,,1912.3017000000475,1912.7982000000477,1911.7987000000476,1912.3017000000475,1909.5628000000117,1911.7987000000476,1912.7982000000477,1913.2951000000237,1913.2951000000237,1914.2528000000118,938,1914.2529000000357,2,1914.256800000012,7,8,218,7,1,1.2,0.7,Time
,,671778,001,,,2025-06-03_22h58.43.509,Serial_Dependence_U,2023.2.3,Win32,166.66666666666666,,,,,,1914.2569999999998,5,7,1914.2571000000237,5,,,,1918.4281000000237,1918.9247000000476,1917.925300000012,1918.4279999999999,1915.2586000000238,1917.925300000012,1918.9247000000476,1919.4216000000238,1919.4216000000238,1921.4579000000356,1630,1921.4579000000356,3,1921.4624999999999,7,9,219,14,1,1.6,0.3,Time
,,671778,001,,,2025-06-03_22h58.43.509,Serial_Dependence_U,2023.2.3,Win32,166.66666666666666,,,,,,1921.4627000000476,172,7,1921.4628000000118,172,,,,1925.6334000000356,1926.1299000000356,1925.1306000000238,1925.6334000000356,1922.464,1925.1305,1926.1299000000356,1926.6268000000118,1926.6268000000118,1928.7236000000237,1509,1928.7238000000118,2,1928.7281000000237,7,10,220,24,1,1.6,0.3,Time
,,671778,001,,,2025-06-03_22h58.43.509,Serial_Dependence_U,2023.2.3,Win32,166.66666666666666,,,,,,1928.7282000000475,37,7,1928.7283000000118,37,,,,1932.0994000000358,1932.5958000000119,1931.5964999999999,1932.099300000012,1929.729800000012,1931.5964999999999,1932.5958000000119,1933.0927000000477,1933.0927000000477,1934.711,1238,1934.711,5,1934.7149000000356,7,11,221,0,1,0.8,0.3,Time
,,671778,001,,,2025-06-03_22h58.43.509,Serial_Dependence_U,2023.2.3,Win32,166.66666666666666,,,,,,1934.7151000000238,181,7,1934.7152000000476,181,,,,1938.856,1939.3525,1938.3533000000118,1938.856,1935.7172000000476,1938.3533000000118,1939.3525,1939.8497000000475,1939.8498000000118,1941.9585,1739,1941.9586000000238,4,1941.9626000000237,7,12,222,9,1,1.6,0.7,Time
,,671778,001,,,2025-06-03_22h58.43.509,Serial_Dependence_U,2023.2.3,Win32,166.66666666666666,,,,,,1941.9628000000118,211,7,1941.9628000000118,211,,,,1946.1343000000118,1946.6305,1945.6299999999999,1946.1342000000475,1942.9646000000237,1945.6299000000356,1946.6305,1947.1274000000358,1947.1274999999998,1949.8182000000477,2188,1949.8183000000117,5,1949.8229000000356,7,13,223,4,1,1.6,0.3,Time
,,671778,001,,,2025-06-03_22h58.43.509,Serial_Dependence_U,2023.2.3,Win32,166.66666666666666,,,,,,1949.8231000000237,316,7,1949.8233000000118,316,,,,1953.9634000000358,1954.4602000000475,1953.4609000000357,1953.963300000012,1950.8242000000475,1953.4609000000357,1954.4602000000475,1954.9568000000118,1954.9569000000356,1957.3206000000237,1714,1957.3208000000118,4,1957.3252000000475,7,14,224,19,1,1.6,0.7,Time
,,671778,001,,,2025-06-03_22h58.43.509,Serial_Dependence_U,2023.2.3,Win32,166.66666666666666,,,,,,1957.3253000000118,143,7,1957.3253000000118,143,,,,1961.0653000000118,1961.5621000000237,1960.5625,1961.0653000000118,1958.3267000000476,1960.5624000000357,1961.5621000000237,1962.0616000000236,1962.0616000000236,1964.3014000000358,1776,1964.3014000000358,5,1964.3055,7,15,225,27,1,1.2,0.7,Time
,,671778,001,,,2025-06-03_22h58.43.509,Serial_Dependence_U,2023.2.3,Win32,166.66666666666666,,,,,,1964.3057000000476,198,7,1964.3057000000476,198,,,,1968.2466000000238,1968.7431000000238,1967.7437000000475,1968.2466000000238,1965.3076000000237,1967.7437000000475,1968.7431000000238,1969.2398000000119,1969.2398000000119,1972.0158000000117,1932,1972.0158000000117,5,1972.0203000000117,7,16,226,8,1,1.4,0.7,Time
,,671778,001,,,2025-06-03_22h58.43.509,Serial_Dependence_U,2023.2.3,Win32,166.66666666666666,,,,,,1972.0204000000356,229,7,1972.0206000000237,229,,,,1975.5608000000118,1976.0574000000356,1975.0577000000476,1975.5607000000475,1973.0218000000118,1975.0577000000476,1976.0574000000356,1976.5545,1976.5546000000238,1979.0511000000238,2026,1979.0511000000238,5,1979.0552000000475,7,17,227,16,1,1,0.7,Time
,,671778,001,,,2025-06-03_22h58.43.509,Serial_Dependence_U,2023.2.3,Win32,166.66666666666666,,,,,,1979.0554000000357,273,7,1979.0555,273,,,,1982.6268000000118,1983.1232000000475,1982.123800000012,1982.6267000000475,1980.0572000000475,1982.1237000000476,1983.1232000000475,1983.6201000000237,1983.6201000000237,1987.1289000000356,2092,1987.1289000000356,5,1987.1333000000118,7,18,228,1,1,1,0.3,Time
,,671778,001,,,2025-06-03_22h58.43.509,Serial_Dependence_U,2023.2.3,Win32,166.66666666666666,,,,,,1987.1335,148,7,1987.1335,148,,,,1990.5044000000355,1991.0009000000357,1990.0014000000358,1990.5044000000355,1988.1353000000117,1990.0014000000358,1991.001,1991.4981000000237,1991.4981000000237,1993.7708000000118,2064,1993.7708000000118,5,1993.7752000000476,7,19,229,10,1,0.8,0.3,Time
,,671778,001,,,2025-06-03_22h58.43.509,Serial_Dependence_U,2023.2.3,Win32,166.66666666666666,,,,,,1993.7754000000357,53,7,1993.7754000000357,53,,,,1997.5158000000117,1998.012300000012,1997.012800000012,1997.5158000000117,1994.7769999999998,1997.0127000000477,1998.012300000012,1998.5093000000118,1998.5093000000118,2001.1029999999998,1408,2001.1029999999998,4,2001.1069000000355,7,20,230,17,1,1.2,0.7,Time
,,671778,001,,,2025-06-03_22h58.43.509,Serial_Dependence_U,2023.2.3,Win32,166.66666666666666,,,,,,2001.1071000000236,169,7,2001.1071000000236,169,,,,2004.8785,2005.3749999999998,2004.3757000000476,2004.8784000000358,2002.1089999999997,2004.3756000000237,2005.3749999999998,2005.872,2005.872,2007.9629000000357,1824,2007.963,5,2007.9673000000118,7,21,231,2,1,1.2,0.3,Time
,,671778,001,,,2025-06-03_22h58.43.509,Serial_Dependence_U,2023.2.3,Win32,166.66666666666666,,,,,,2007.9675,183,7,2007.9676000000238,183,,,,2011.3384000000358,2011.8349999999998,2010.8356000000238,2011.3384000000358,2008.9689999999998,2010.8355,2011.8349999999998,2012.3319000000358,2012.3319000000358,2013.0836000000238,738,2013.0836000000238,2,2013.0877000000476,7,22,232,20,1,0.8,0.3,Time
,,671778,001,,,2025-06-03_22h58.43.509,Serial_Dependence_U,2023.2.3,Win32,166.66666666666666,,,,,,2013.0879000000357,246,7,2013.0879000000357,246,,,,2016.4286000000236,2016.925300000012,2015.9259000000359,2016.4286000000236,2014.0899000000356,2015.9259000000359,2016.925300000012,2017.4222000000475,2017.4222000000475,2019.1432000000475,1405,2019.1432000000475,5,2019.1469999999997,7,23,233,25,1,0.8,0.7,Time
,,671778,001,,,2025-06-03_22h58.43.509,Serial_Dependence_U,2023.2.3,Win32,166.66666666666666,,,,,,2019.1472000000474,243,7,2019.1473000000117,243,,,,2022.6887000000477,2023.1849999999997,2022.1857000000475,2022.6886000000238,2020.1494000000355,2022.1857000000475,2023.1849999999997,2023.682,2023.6821000000239,2026.5549000000358,1654,2026.5549000000358,5,2026.559,7,24,234,26,1,1,0.7,Time
,,671778,001,,,2025-06-03_22h58.43.509,Serial_Dependence_U,2023.2.3,Win32,166.66666666666666,,,,,,2026.559300000012,9,7,2026.559300000012,9,,,,2030.1301000000237,2030.626600000024,2029.6274000000355,2030.1301000000237,2027.5608000000118,2029.6273000000117,2030.626600000024,2031.1235,2031.1235,2032.6752000000477,1272,2032.6752000000477,4,2032.6795,7,25,235,11,1,1,0.3,Time
,,671778,001,,,2025-06-03_22h58.43.509,Serial_Dependence_U,2023.2.3,Win32,166.66666666666666,,,,,,2032.6796000000238,102,7,2032.6797000000477,102,,,,2036.4449000000357,2036.941,2035.941600000024,2036.4448000000118,2033.6809000000355,2035.941600000024,2036.9411000000239,2037.4379999999999,2037.4379999999999,2039.086300000012,1430,2039.086300000012,4,2039.090300000012,7,26,236,12,1,1.2,0.3,Time
,,671778,001,,,2025-06-03_22h58.43.509,Serial_Dependence_U,2023.2.3,Win32,166.66666666666666,,,,,,2039.0905,234,7,2039.0905,234,,,,2042.662,2043.1584999999998,2042.1589999999999,2042.662,2040.0926000000238,2042.1589000000356,2043.1584999999998,2043.655900000036,2043.655900000036,2045.1159000000355,1243,2045.1159999999998,4,2045.1200000000001,7,27,237,21,1,1,0.3,Time
,,671778,001,,,2025-06-03_22h58.43.509,Serial_Dependence_U,2023.2.3,Win32,166.66666666666666,,,,,,2045.1202000000478,34,7,2045.1202000000478,34,,,,2049.2613000000115,2049.7576000000236,2048.7584000000356,2049.261200000047,2046.122300000012,2048.758300000012,2049.7577000000474,2050.2546000000234,2050.2546000000234,2052.3093000000117,1821,2052.3094000000356,4,2052.314,7,28,238,29,1,1.6,0.7,Time
,,671778,001,,,2025-06-03_22h58.43.509,Serial_Dependence_U,2023.2.3,Win32,166.66666666666666,,,,,,2052.314300000012,7,7,2052.314300000012,7,,,,2056.2543000000114,2056.7508000000116,2055.7513000000117,2056.254200000047,2053.3154000000354,2055.7513000000117,2056.7508000000116,2057.247700000047,2057.247700000047,2059.6418000000117,1896,2059.6418000000117,5,2059.6459999999997,7,29,239,18,1,1.4,0.7,Time
,,671778,001,,,2025-06-03_22h58.43.509,Serial_Dependence_U,2023.2.3,Win32,166.66666666666666,,,,,,2059.6462000000474,179,8,2081.4188000000117,179,s,21.76139999997622,,2085.1903000000116,2085.6868000000118,2084.6874000000353,2085.1903000000116,2082.4207000000474,2084.6873000000114,2085.6868000000118,2086.1841000000236,2086.1841000000236,2088.171700000047,1727,2088.171700000047,5,2088.175800000012,8,0,240,12,1,1.2,0.3,Time
,,671778,001,,,2025-06-03_22h58.43.509,Serial_Dependence_U,2023.2.3,Win32,166.66666666666666,,,,,,2088.1761000000233,278,8,2088.1768000000116,278,,,,2092.1469999999995,2092.6434999999997,2091.6443000000118,2092.1469000000357,2089.1776000000236,2091.6442000000475,2092.6434999999997,2093.1404999999995,2093.1404999999995,2095.4373000000114,1956,2095.4373000000114,5,2095.4415,8,1,241,3,1,1.4,0.3,Time
,,671778,001,,,2025-06-03_22h58.43.509,Serial_Dependence_U,2023.2.3,Win32,166.66666666666666,,,,,,2095.4416000000238,308,8,2095.441700000047,308,,,,2099.5826000000234,2100.0789999999997,2099.0796000000237,2099.5824999999995,2096.4435,2099.0794000000355,2100.0789999999997,2100.5759000000353,2100.5759000000353,2102.8429000000356,1994,2102.8429000000356,4,2102.8468000000116,8,2,242,19,1,1.6,0.7,Time
,,671778,001,,,2025-06-03_22h58.43.509,Serial_Dependence_U,2023.2.3,Win32,166.66666666666666,,,,,,2102.8469999999998,279,8,2102.8471000000236,279,,,,2106.9876000000236,2107.4841000000233,2106.4848000000115,2106.9876000000236,2103.8487000000473,2106.4848000000115,2107.4841000000233,2107.9811000000236,2107.9811000000236,2110.8173000000115,2570,2110.8173000000115,5,2110.8214000000353,8,3,243,29,1,1.6,0.7,Time
,,671778,001,,,2025-06-03_22h58.43.509,Serial_Dependence_U,2023.2.3,Win32,166.66666666666666,,,,,,2110.8216000000234,251,8,2110.8216000000234,251,,,,2114.1932000000475,2114.6894999999995,2113.6899999999996,2114.1931000000236,2111.8234000000352,2113.6899000000353,2114.6896000000233,2115.1863000000117,2115.1863000000117,2116.8287000000473,1260,2116.8288000000116,5,2116.8329000000354,8,4,244,20,1,0.8,0.3,Time
,,671778,001,,,2025-06-03_22h58.43.509,Serial_Dependence_U,2023.2.3,Win32,166.66666666666666,,,,,,2116.8329999999996,306,8,2116.8331000000235,306,,,,2120.3741000000236,2120.8704999999995,2119.8711000000235,2120.374,2117.8349999999996,2119.8711000000235,2120.8706000000234,2121.3675,2121.3675,2123.0461000000237,1350,2123.0461000000237,5,2123.0501000000236,8,5,245,26,1,1,0.7,Time
,,671778,001,,,2025-06-03_22h58.43.509,Serial_Dependence_U,2023.2.3,Win32,166.66666666666666,,,,,,2123.0502000000474,327,8,2123.0503000000117,327,,,,2126.3916000000236,2126.8879000000356,2125.8889000000354,2126.3914999999997,2124.0524000000355,2125.8888000000115,2126.8879000000356,2127.3849000000355,2127.3849000000355,2129.4516000000235,1593,2129.4517000000474,5,2129.4558000000115,8,6,246,5,1,0.8,0.7,Time
,,671778,001,,,2025-06-03_22h58.43.509,Serial_Dependence_U,2023.2.3,Win32,166.66666666666666,,,,,,2129.4559000000354,78,8,2129.4559999999997,78,,,,2133.4269999999997,2133.9234000000356,2132.924200000047,2133.4269000000354,2130.4576000000234,2132.924200000047,2133.9234000000356,2134.4204000000354,2134.4204000000354,2137.1233000000116,2364,2137.1234000000354,5,2137.1274000000353,8,7,247,13,1,1.4,0.3,Time
,,671778,001,,,2025-06-03_22h58.43.509,Serial_Dependence_U,2023.2.3,Win32,166.66666666666666,,,,,,2137.1274999999996,331,8,2137.1277000000473,331,,,,2140.6683000000116,2141.1651000000234,2140.1656000000235,2140.6683000000116,2138.1294000000353,2140.1654999999996,2141.1651000000234,2141.6621000000237,2141.6621000000237,2144.5284000000356,1756,2144.5284000000356,5,2144.5325,8,8,248,6,1,1,0.7,Time
,,671778,001,,,2025-06-03_22h58.43.509,Serial_Dependence_U,2023.2.3,Win32,166.66666666666666,,,,,,2144.532800000012,161,8,2144.532800000012,161,,,,2148.4761000000235,2148.9761000000235,2147.9709000000353,2148.4759999999997,2145.5346000000236,2147.9709000000353,2148.9761000000235,2149.4731000000234,2149.473200000047,2151.6304999999998,1899,2151.6304999999998,5,2151.6346000000235,8,9,249,18,1,1.4,0.7,Time
,,671778,001,,,2025-06-03_22h58.43.509,Serial_Dependence_U,2023.2.3,Win32,166.66666666666666,,,,,,2151.6348000000116,91,8,2151.6349000000355,91,,,,2154.9759000000354,2155.4724000000356,2154.472900000035,2154.9758000000115,2152.6368000000116,2154.472800000012,2155.4724000000356,2155.9702000000475,2155.970300000012,2157.7571000000235,1438,2157.7571000000235,5,2157.7611000000234,8,10,250,25,1,0.8,0.7,Time
,,671778,001,,,2025-06-03_22h58.43.509,Serial_Dependence_U,2023.2.3,Win32,166.66666666666666,,,,,,2157.7613000000115,162,8,2157.7614000000353,162,,,,2161.5026000000234,2161.9989000000355,2160.9994000000356,2161.5024999999996,2158.7633000000114,2160.9993000000118,2161.9989000000355,2162.4959999999996,2162.4959999999996,2163.8841000000234,1360,2163.8841000000234,4,2163.8881000000233,8,11,251,27,1,1.2,0.7,Time
,,671778,001,,,2025-06-03_22h58.43.509,Serial_Dependence_U,2023.2.3,Win32,166.66666666666666,,,,,,2163.888200000047,76,8,2163.888200000047,76,,,,2167.4289000000354,2167.9255,2166.9261000000233,2167.4288000000115,2164.8899000000356,2166.9259999999995,2167.9255,2168.4224000000354,2168.4224000000354,2170.5498000000116,1351,2170.5498000000116,5,2170.5539999999996,8,12,252,16,1,1,0.7,Time
,,671778,001,,,2025-06-03_22h58.43.509,Serial_Dependence_U,2023.2.3,Win32,166.66666666666666,,,,,,2170.5541000000235,218,8,2170.5542000000473,218,,,,2174.2949000000353,2174.7913000000117,2173.7919999999995,2174.2949000000353,2171.5554999999995,2173.7919000000356,2174.7913000000117,2175.2884000000354,2175.2884000000354,2177.4278000000118,1745,2177.4278000000118,5,2177.432,8,13,253,17,1,1.2,0.7,Time
