Scale_setup.started,Scale_setup.stopped,participant,session,sex,age,date,expName,psychopyVersion,OS,frameRate,Intro.started,Intro.stopped,key_resp_2.keys,key_resp_2.rt,key_resp_2.duration,block.started,direction,Block_id,block.stopped,trial_direction,Block_resp_2.keys,Block_resp_2.rt,Block_resp_2.duration,ITI.started,ITI.stopped,Mask_2.started,Mask_2.stopped,encoding.started,encoding.stopped,Cue.started,Cue.stopped,Response.started,Response.stopped,keyDuration,Feedback_Time.started,FeedbackID_T,Feedback_Time.stopped,trials.thisRepN,trials.thisTrialN,trials.thisN,trials.thisIndex,trials.ran,TimeDur,Coherence1,TrialType
0.000299999999811007,0.0007999999998133944,681174,001,女,20,2025-06-04_18h57.13.446,Serial_Dependence_U,2023.2.3,Win32,30.030030030027405,,,,,,,,,,,,,,,,,,,,,,,,,,,,,,,,,,,
,,681174,001,女,20,2025-06-04_18h57.13.446,Serial_Dependence_U,2023.2.3,Win32,30.030030030027405,138.78929999999983,159.51619999999994,space,20.630600000000072,,,,,,,,,,,,,,,,,,,,,,,,,,,,,,,
,,681174,001,女,20,2025-06-04_18h57.13.446,Serial_Dependence_U,2023.2.3,Win32,30.030030030027405,,,,,,159.54869999999994,67,0,161.494,67,s,1.8538999999998964,0.0588000000000477,165.7048999999999,166.1903999999999,165.20159999999987,165.70469999999995,162.5295,165.2015,166.19059999999985,166.69119999999995,166.6917999999998,207.45360000000008,216,207.45419999999973,1,208.4497999999998,0,0,0,24,1,1.6,0.3,Time
,,681174,001,女,20,2025-06-04_18h57.13.446,Serial_Dependence_U,2023.2.3,Win32,30.030030030027405,,,,,,208.4526000000001,40,0,208.4562999999998,40,,,,211.81010000000012,212.31569999999974,211.3072999999998,211.80989999999989,209.47169999999971,211.3071999999997,212.31579999999983,212.8167999999998,212.8167999999998,218.1381000000001,5101,218.1383999999999,5,219.13779999999983,0,1,1,25,1,0.8,0.7,Time
,,681174,001,女,20,2025-06-04_18h57.13.446,Serial_Dependence_U,2023.2.3,Win32,30.030030030027405,,,,,,219.1405,266,0,219.141,266,,,,222.73799999999997,223.2162999999998,222.23060000000007,222.7377999999998,220.15669999999974,222.2303999999999,223.21650000000002,223.69269999999975,223.69319999999973,226.5425,2769,226.54260000000008,5,227.5283999999999,0,2,2,1,1,1,0.3,Time
,,681174,001,女,20,2025-06-04_18h57.13.446,Serial_Dependence_U,2023.2.3,Win32,30.030030030027405,,,,,,227.5307999999998,200,0,227.532,200,,,,230.89979999999983,231.4091000000001,230.38829999999982,230.89860000000007,228.53429999999983,230.3881000000001,231.40939999999992,231.9096000000001,231.90969999999973,235.8601999999997,2725,235.86039999999988,5,236.86060000000012,0,3,3,5,1,0.8,0.7,Time
,,681174,001,女,20,2025-06-04_18h57.13.446,Serial_Dependence_U,2023.2.3,Win32,30.030030030027405,,,,,,236.8611000000001,163,0,236.86139999999992,163,,,,240.62249999999997,241.1136000000001,240.1025,240.62239999999989,237.8408999999999,240.1023999999999,241.1136000000001,241.62869999999972,241.6287999999998,244.5096999999997,2579,244.5101000000001,5,245.49819999999974,0,4,4,27,1,1.2,0.7,Time
,,681174,001,女,20,2025-06-04_18h57.13.446,Serial_Dependence_U,2023.2.3,Win32,30.030030030027405,,,,,,245.501,60,0,245.5026999999997,60,,,,249.1246999999997,249.6217999999998,248.62039999999993,249.12460000000007,246.5305,248.6196999999997,249.6218999999999,250.10469999999972,250.1047999999998,252.0858999999999,1731,252.08610000000007,5,253.07449999999997,0,5,5,11,1,1,0.3,Time
,,681174,001,女,20,2025-06-04_18h57.13.446,Serial_Dependence_U,2023.2.3,Win32,30.030030030027405,,,,,,253.0762999999998,160,0,253.07729999999984,160,,,,256.4766999999997,256.97069999999974,255.97179999999983,256.4766999999997,254.10139999999993,255.97169999999974,256.9707999999998,257.4723999999999,257.47249999999997,258.74429999999984,1193,258.74610000000007,5,259.74869999999976,0,6,6,10,1,0.8,0.3,Time
,,681174,001,女,20,2025-06-04_18h57.13.446,Serial_Dependence_U,2023.2.3,Win32,30.030030030027405,,,,,,259.751,148,0,259.75149999999996,148,,,,263.59039999999993,264.0822999999998,263.06129999999985,263.59039999999993,260.7791999999997,263.06119999999976,264.0822999999998,264.5776000000001,264.578,267.15610000000004,2121,267.15629999999976,5,268.14660000000015,0,7,7,12,1,1.2,0.3,Time
,,681174,001,女,20,2025-06-04_18h57.13.446,Serial_Dependence_U,2023.2.3,Win32,30.030030030027405,,,,,,268.14869999999974,231,0,268.15189999999996,231,,,,271.91650000000004,272.38649999999996,271.4003999999999,271.9161999999998,269.1556999999997,271.4002999999998,272.3866999999997,272.8935,272.8936000000001,275.6743999999999,2397,275.6746999999997,5,276.65629999999976,0,8,8,17,1,1.2,0.7,Time
,,681174,001,女,20,2025-06-04_18h57.13.446,Serial_Dependence_U,2023.2.3,Win32,30.030030030027405,,,,,,276.6588999999999,18,0,276.6591999999997,18,,,,280.80079999999987,281.28579999999977,280.288,280.80069999999967,277.6503999999999,280.2878999999999,281.28610000000015,281.77869999999973,281.7787999999998,284.75369999999975,2355,284.7541000000001,5,285.7655,0,9,9,29,1,1.6,0.7,Time
,,681174,001,女,20,2025-06-04_18h57.13.446,Serial_Dependence_U,2023.2.3,Win32,30.030030030027405,,,,,,285.76610000000005,240,0,285.76649999999995,240,,,,289.1837999999998,289.6733999999999,288.6641999999997,289.1836999999997,286.7747999999998,288.6641999999997,289.6736999999997,290.18600000000004,290.1861000000001,293.0138999999999,2335,293.01419999999973,5,294.00389999999993,0,10,10,20,1,0.8,0.3,Time
,,681174,001,女,20,2025-06-04_18h57.13.446,Serial_Dependence_U,2023.2.3,Win32,30.030030030027405,,,,,,294.0058999999999,342,0,294.00710000000004,342,,,,297.45889999999986,297.95410000000004,296.9366000000001,297.4586999999997,295.04560000000004,296.9365,297.9541999999997,298.4715,298.4716000000001,300.58050000000003,2034,300.582,5,301.5925,0,11,11,0,1,0.8,0.3,Time
,,681174,001,女,20,2025-06-04_18h57.13.446,Serial_Dependence_U,2023.2.3,Win32,30.030030030027405,,,,,,301.59400000000005,4,0,301.5953999999999,4,,,,305.61239999999987,306.09910000000013,305.09799999999996,305.6122999999998,302.6067999999998,305.09789999999987,306.09919999999977,306.6245,306.6245,309.39610000000005,2236,309.39629999999977,5,310.39189999999985,0,12,12,13,1,1.4,0.3,Time
,,681174,001,女,20,2025-06-04_18h57.13.446,Serial_Dependence_U,2023.2.3,Win32,30.030030030027405,,,,,,310.39239999999995,186,0,310.39260000000013,186,,,,314.4091000000001,314.9231000000001,313.8946999999997,314.4091000000001,311.4233999999999,313.8946999999997,314.9233999999999,315.4306999999998,315.4306999999998,318.125,2191,318.1251999999997,5,319.1216999999997,0,13,13,3,1,1.4,0.3,Time
,,681174,001,女,20,2025-06-04_18h57.13.446,Serial_Dependence_U,2023.2.3,Win32,30.030030030027405,,,,,,319.12419999999975,317,0,319.1245,317,,,,323.13369999999975,323.649,322.61429999999984,323.1336000000001,320.13599999999997,322.61429999999984,323.649,324.16589999999985,324.16600000000005,326.5476000000001,2310,326.548,5,327.5375,0,14,14,23,1,1.4,0.3,Time
,,681174,001,女,20,2025-06-04_18h57.13.446,Serial_Dependence_U,2023.2.3,Win32,30.030030030027405,,,,,,327.5398999999999,233,0,327.5402999999998,233,,,,331.10919999999976,331.60389999999995,330.58839999999987,331.1091000000001,328.5526000000001,330.5881999999997,331.60389999999995,332.0965,332.0965,334.42549999999994,1835,334.42579999999987,5,335.4132999999998,0,15,15,26,1,1,0.7,Time
,,681174,001,女,20,2025-06-04_18h57.13.446,Serial_Dependence_U,2023.2.3,Win32,30.030030030027405,,,,,,335.4148999999999,6,0,335.41610000000014,6,,,,339.2216000000001,339.71839999999986,338.69000000000005,339.2215,336.42100000000005,338.68989999999985,339.71849999999995,340.19810000000007,340.19849999999997,342.92129999999986,2274,342.92150000000004,5,343.9121000000001,0,16,16,22,1,1.2,0.3,Time
,,681174,001,女,20,2025-06-04_18h57.13.446,Serial_Dependence_U,2023.2.3,Win32,30.030030030027405,,,,,,343.91319999999973,267,0,343.9136999999997,267,,,,347.8761999999997,348.36789999999985,347.3516000000001,347.876,344.90049999999997,347.3516000000001,348.36800000000005,348.87660000000005,348.87660000000005,350.7167999999998,1254,350.7168999999999,2,351.71799999999996,0,17,17,18,1,1.4,0.7,Time
,,681174,001,女,20,2025-06-04_18h57.13.446,Serial_Dependence_U,2023.2.3,Win32,30.030030030027405,,,,,,351.71929999999986,155,0,351.7207999999998,155,,,,355.8843999999999,356.39689999999996,355.3762999999998,355.8842999999998,352.73,355.3762999999998,356.39689999999996,356.86929999999984,356.8695,360.2412999999998,2894,360.24160000000006,5,361.23389999999995,0,18,18,19,1,1.6,0.7,Time
,,681174,001,女,20,2025-06-04_18h57.13.446,Serial_Dependence_U,2023.2.3,Win32,30.030030030027405,,,,,,361.23439999999994,145,0,361.23479999999984,145,,,,364.89339999999993,365.39210000000014,364.36379999999986,364.89329999999984,362.2787999999998,364.36369999999977,365.3921999999998,365.87800000000004,365.87829999999985,368.26319999999976,1742,368.2635,5,369.2592999999998,0,19,19,21,1,1,0.3,Time
,,681174,001,女,20,2025-06-04_18h57.13.446,Serial_Dependence_U,2023.2.3,Win32,30.030030030027405,,,,,,369.2608999999999,350,0,369.26149999999996,350,,,,373.05639999999994,373.56989999999996,372.5532999999998,373.05629999999985,370.289,372.5531999999997,373.56989999999996,374.063,374.063,376.1575,1584,376.15779999999984,5,377.1502999999998,0,20,20,2,1,1.2,0.3,Time
,,681174,001,女,20,2025-06-04_18h57.13.446,Serial_Dependence_U,2023.2.3,Win32,30.030030030027405,,,,,,377.15169999999966,341,0,377.153,341,,,,381.13229999999976,381.6361999999997,380.62649999999996,381.13219999999967,378.17569999999967,380.6263999999999,381.6362999999998,382.1163999999999,382.1163999999999,384.33429999999976,1466,384.33450000000005,3,385.3426999999997,0,21,21,8,1,1.4,0.7,Time
,,681174,001,女,20,2025-06-04_18h57.13.446,Serial_Dependence_U,2023.2.3,Win32,30.030030030027405,,,,,,385.3431999999997,202,0,385.34360000000004,202,,,,389.56010000000015,390.07000000000005,389.0528999999999,389.55999999999995,386.3866999999997,389.0527999999998,390.07010000000014,390.5538999999999,390.5538999999999,393.1828999999999,2276,393.1831000000001,5,394.1793999999999,0,22,22,14,1,1.6,0.3,Time
,,681174,001,女,20,2025-06-04_18h57.13.446,Serial_Dependence_U,2023.2.3,Win32,30.030030030027405,,,,,,394.1797999999998,138,0,394.18010000000004,138,,,,398.14639999999986,398.6301000000001,397.6361999999997,398.14639999999986,395.2015,397.63599999999997,398.6301999999997,399.13179999999977,399.13179999999977,401.79999999999995,2287,401.8025,5,402.80069999999967,0,23,23,28,1,1.4,0.7,Time
,,681174,001,女,20,2025-06-04_18h57.13.446,Serial_Dependence_U,2023.2.3,Win32,30.030030030027405,,,,,,402.80119999999977,304,0,402.80150000000003,304,,,,406.97900000000004,407.4632999999998,406.45529999999985,406.97889999999995,403.8091999999997,406.45519999999976,407.4632999999998,407.9461000000001,407.94669999999974,410.43510000000015,1642,410.4361000000001,3,411.4322999999998,0,24,24,9,1,1.6,0.7,Time
,,681174,001,女,20,2025-06-04_18h57.13.446,Serial_Dependence_U,2023.2.3,Win32,30.030030030027405,,,,,,411.4326999999997,241,0,411.4328999999999,241,,,,415.64679999999976,416.15510000000006,415.1256999999997,415.64669999999967,412.4546999999998,415.1256000000001,416.1552999999998,416.66819999999973,416.6682999999998,418.38289999999995,1322,418.3831000000001,2,419.37969999999973,0,25,25,4,1,1.6,0.3,Time
,,681174,001,女,20,2025-06-04_18h57.13.446,Serial_Dependence_U,2023.2.3,Win32,30.030030030027405,,,,,,419.38160000000005,185,0,419.38189999999986,185,,,,423.16510000000005,423.65160000000014,422.6547999999998,423.16499999999996,420.41539999999986,422.6546999999997,423.65200000000004,424.13839999999993,424.13879999999983,426.14,1509,426.1401999999997,4,427.11850000000004,0,26,26,7,1,1.2,0.7,Time
,,681174,001,女,20,2025-06-04_18h57.13.446,Serial_Dependence_U,2023.2.3,Win32,30.030030030027405,,,,,,427.1203999999999,286,0,427.1217999999998,286,,,,430.711,431.20069999999976,430.1935,430.7108999999999,428.1312999999998,430.1935,431.20089999999993,431.6837999999998,431.68460000000005,433.7267999999998,1501,433.7268999999999,5,434.7066999999997,0,27,27,6,1,1,0.7,Time
,,681174,001,女,20,2025-06-04_18h57.13.446,Serial_Dependence_U,2023.2.3,Win32,30.030030030027405,,,,,,434.70849999999996,178,0,434.7105,178,,,,438.2898999999999,438.79229999999984,437.76560000000006,438.2897999999998,435.716,437.7655,438.7926000000001,439.2986999999997,439.2986999999997,441.2757999999998,1762,441.27599999999995,5,442.26649999999995,0,28,28,16,1,1,0.7,Time
,,681174,001,女,20,2025-06-04_18h57.13.446,Serial_Dependence_U,2023.2.3,Win32,30.030030030027405,,,,,,442.26710000000014,335,0,442.26739999999995,335,,,,445.62889999999993,446.1108999999999,445.11249999999995,445.62869999999975,443.27179999999976,445.11249999999995,446.1111000000001,446.5871000000001,446.5872999999998,448.9682999999998,1830,448.96839999999986,5,449.97019999999975,0,29,29,15,1,0.8,0.7,Time
,,681174,001,女,20,2025-06-04_18h57.13.446,Serial_Dependence_U,2023.2.3,Win32,30.030030030027405,,,,,,449.9707999999998,321,1,453.4903999999999,321,s,3.4664999999999964,,457.2936000000001,457.7928999999999,456.7845,457.2935,454.5235,456.7842999999998,457.7928999999999,458.28279999999984,458.2828999999999,460.4727999999998,1455,460.47299999999996,4,460.49260000000004,1,0,30,17,1,1.2,0.7,Time
,,681174,001,女,20,2025-06-04_18h57.13.446,Serial_Dependence_U,2023.2.3,Win32,30.030030030027405,,,,,,460.49300000000005,132,1,460.49419999999975,132,,,,464.63779999999986,465.144,464.13189999999986,464.63760000000013,461.49929999999983,464.13179999999977,465.144,465.62829999999985,465.62839999999994,467.66079999999977,1998,467.66110000000003,4,467.6826999999997,1,1,31,19,1,1.6,0.7,Time
,,681174,001,女,20,2025-06-04_18h57.13.446,Serial_Dependence_U,2023.2.3,Win32,30.030030030027405,,,,,,467.6831000000001,46,1,467.6831999999997,46,,,,471.7025,472.18960000000004,471.1976999999997,471.7022999999998,468.70949999999993,471.1976999999997,472.18960000000004,472.6886999999997,472.6887999999998,473.7964999999999,1065,473.7964999999999,2,473.81669999999974,1,2,32,3,1,1.4,0.3,Time
,,681174,001,女,20,2025-06-04_18h57.13.446,Serial_Dependence_U,2023.2.3,Win32,30.030030030027405,,,,,,473.8171000000001,158,1,473.81719999999973,158,,,,477.80139999999983,478.31069999999966,477.2992999999998,477.80079999999975,474.83399999999995,477.2991999999997,478.31079999999974,478.8168999999999,478.817,483.37199999999996,4067,483.37229999999977,5,483.3908999999999,1,3,33,23,1,1.4,0.3,Time
,,681174,001,女,20,2025-06-04_18h57.13.446,Serial_Dependence_U,2023.2.3,Win32,30.030030030027405,,,,,,483.39110000000005,355,1,483.39139999999986,355,,,,487.568,488.0623999999999,487.039,487.5678999999999,484.3916999999997,487.039,488.0623999999999,488.5537999999998,488.5537999999998,490.44079999999974,1703,490.4411000000001,4,490.4625,1,4,34,29,1,1.6,0.7,Time
,,681174,001,女,20,2025-06-04_18h57.13.446,Serial_Dependence_U,2023.2.3,Win32,30.030030030027405,,,,,,490.4627999999998,291,1,490.46299999999997,291,,,,493.82589999999993,494.31439999999986,493.3204999999999,493.82579999999973,491.4716999999997,493.32039999999984,494.3146999999997,494.8061,494.80619999999965,496.5345,1655,496.5347999999998,5,496.5533999999999,1,5,35,5,1,0.8,0.7,Time
,,681174,001,女,20,2025-06-04_18h57.13.446,Serial_Dependence_U,2023.2.3,Win32,30.030030030027405,,,,,,496.5537999999998,149,1,496.554,149,,,,500.11249999999995,500.5821000000001,499.6043999999998,500.11239999999987,497.5431000000001,499.60419999999965,500.5821999999997,501.0772999999998,501.0772999999998,502.87289999999985,1600,502.87299999999993,5,502.89219999999966,1,6,36,26,1,1,0.7,Time
,,681174,001,女,20,2025-06-04_18h57.13.446,Serial_Dependence_U,2023.2.3,Win32,30.030030030027405,,,,,,502.89239999999984,302,1,502.8926,302,,,,506.90560000000005,507.38679999999977,506.3836000000001,506.90560000000005,503.89639999999986,506.3835,507.38710000000003,507.8706000000001,507.8707999999998,509.9097999999998,2004,509.91010000000006,5,509.9306,1,7,37,13,1,1.4,0.3,Time
,,681174,001,女,20,2025-06-04_18h57.13.446,Serial_Dependence_U,2023.2.3,Win32,30.030030030027405,,,,,,509.9311,319,1,509.93129999999974,319,,,,514.0994999999999,514.6156000000001,513.5888999999999,514.0994999999999,510.95399999999995,513.5886999999997,514.6156000000001,515.0998999999999,515.0998999999999,518.1042999999997,2522,518.1043999999998,5,518.1251999999997,1,8,38,9,1,1.6,0.7,Time
,,681174,001,女,20,2025-06-04_18h57.13.446,Serial_Dependence_U,2023.2.3,Win32,30.030030030027405,,,,,,518.1256999999997,168,1,518.1257999999998,168,,,,522.2982999999998,522.7751999999997,521.7913999999998,522.2981999999997,519.1098999999999,521.7912999999998,522.7753999999999,523.2691999999997,523.2691999999997,525.7026000000001,1966,525.7028999999999,4,525.7251000000001,1,9,39,4,1,1.6,0.3,Time
,,681174,001,女,20,2025-06-04_18h57.13.446,Serial_Dependence_U,2023.2.3,Win32,30.030030030027405,,,,,,525.7252999999998,203,1,525.7253999999999,203,,,,529.0936,529.579,528.5746,529.0935,526.7376999999997,528.5745,529.5791999999997,530.0564999999999,530.0566999999996,532.5628999999999,2017,532.5636000000001,5,532.582,1,10,40,25,1,0.8,0.7,Time
,,681174,001,女,20,2025-06-04_18h57.13.446,Serial_Dependence_U,2023.2.3,Win32,30.030030030027405,,,,,,532.5822999999998,154,1,532.5825,154,,,,536.1652999999998,536.648,535.66,536.1648999999999,533.5832999999998,535.6588999999999,536.648,537.1519999999999,537.1521,539.1211000000001,1741,539.122,5,539.1396000000001,1,11,41,21,1,1,0.3,Time
,,681174,001,女,20,2025-06-04_18h57.13.446,Serial_Dependence_U,2023.2.3,Win32,30.030030030027405,,,,,,539.1401000000001,122,1,539.1403999999999,122,,,,542.9361,543.4296999999997,542.4312999999997,542.9361,540.1667999999997,542.4311,543.4296999999997,543.9382999999998,543.9386999999997,546.6712999999997,2359,546.6745,5,546.6918999999999,1,12,42,12,1,1.2,0.3,Time
,,681174,001,女,20,2025-06-04_18h57.13.446,Serial_Dependence_U,2023.2.3,Win32,30.030030030027405,,,,,,546.6921999999997,211,1,546.6923999999999,211,,,,550.6705,551.165,550.1485,550.6703999999999,547.6895,550.1483999999999,551.1651,551.6411999999997,551.6412999999998,553.7456000000001,1894,553.746,5,553.7651000000001,1,13,43,8,1,1.4,0.7,Time
,,681174,001,女,20,2025-06-04_18h57.13.446,Serial_Dependence_U,2023.2.3,Win32,30.030030030027405,,,,,,553.7653999999999,338,1,553.7655,338,,,,557.5577999999998,558.0342999999998,557.0553999999998,557.5576999999997,554.7908999999999,557.0551999999997,558.0343999999999,558.5097999999998,558.5098999999999,560.506,1781,560.5082999999997,5,560.5301000000001,1,14,44,2,1,1.2,0.3,Time
,,681174,001,女,20,2025-06-04_18h57.13.446,Serial_Dependence_U,2023.2.3,Win32,30.030030030027405,,,,,,560.5305,181,1,560.5308999999999,181,,,,563.9655,564.4433999999999,563.4416999999997,563.9649999999999,561.5547999999998,563.4416000000001,564.4433999999999,564.9543999999999,564.9544999999999,566.9287999999998,1828,566.9291999999997,5,566.951,1,15,45,0,1,0.8,0.3,Time
,,681174,001,女,20,2025-06-04_18h57.13.446,Serial_Dependence_U,2023.2.3,Win32,30.030030030027405,,,,,,566.9515,294,1,566.9516000000001,294,,,,570.5106000000001,571.0016999999997,569.9902999999998,570.5105,567.9487999999998,569.9901999999997,571.0016999999997,571.4966000000001,571.4967999999998,573.0525,1126,573.0527999999998,4,573.0731000000001,1,16,46,16,1,1,0.7,Time
,,681174,001,女,20,2025-06-04_18h57.13.446,Serial_Dependence_U,2023.2.3,Win32,30.030030030027405,,,,,,573.0733999999999,95,1,573.0736,95,,,,576.4957999999998,576.9933999999998,575.9731999999997,576.4957999999998,574.095,575.9731,576.9934999999999,577.4931999999997,577.4931999999997,579.1057999999998,1258,579.1083999999998,5,579.1256999999997,1,17,47,20,1,0.8,0.3,Time
,,681174,001,女,20,2025-06-04_18h57.13.446,Serial_Dependence_U,2023.2.3,Win32,30.030030030027405,,,,,,579.1261000000001,206,1,579.1262999999998,206,,,,583.3416999999997,583.8211999999996,582.8266000000001,583.3416000000001,580.1592999999998,582.8263999999999,583.8215,584.3151,584.3151999999997,586.3916999999997,1594,586.3921,3,586.4136000000001,1,18,48,24,1,1.6,0.3,Time
,,681174,001,女,20,2025-06-04_18h57.13.446,Serial_Dependence_U,2023.2.3,Win32,30.030030030027405,,,,,,586.4138999999999,153,1,586.4141999999997,153,,,,589.7906999999997,590.2773999999998,589.2786000000001,589.7906,587.4268999999999,589.2785,590.2774999999999,590.766,590.7661,592.9788999999998,1990,592.9807999999998,5,592.9963999999999,1,19,49,15,1,0.8,0.7,Time
,,681174,001,女,20,2025-06-04_18h57.13.446,Serial_Dependence_U,2023.2.3,Win32,30.030030030027405,,,,,,592.9966999999997,181,1,592.9968999999999,181,,,,596.7606999999997,597.2718999999998,596.2476,596.7606000000001,593.999,596.2475,597.2718999999998,597.7708999999999,597.771,600.1759999999999,2214,600.177,5,600.1991999999997,1,20,50,27,1,1.2,0.7,Time
,,681174,001,女,20,2025-06-04_18h57.13.446,Serial_Dependence_U,2023.2.3,Win32,30.030030030027405,,,,,,600.1996999999997,249,1,600.1999999999999,249,,,,604.1806,604.6771000000001,603.6496999999997,604.1806,601.2118999999999,603.6491999999997,604.6773999999999,605.1658999999999,605.1658999999999,607.3905,1787,607.3906999999997,4,607.4111999999997,1,21,51,28,1,1.4,0.7,Time
,,681174,001,女,20,2025-06-04_18h57.13.446,Serial_Dependence_U,2023.2.3,Win32,30.030030030027405,,,,,,607.4116999999997,198,1,607.4118999999998,198,,,,611.3996999999997,611.9078999999999,610.8758999999999,611.3996000000001,608.4297999999998,610.8757999999998,611.9078999999999,612.3923999999998,612.3923999999998,614.8536999999997,2174,614.8562999999998,5,614.8732999999997,1,22,52,18,1,1.4,0.7,Time
,,681174,001,女,20,2025-06-04_18h57.13.446,Serial_Dependence_U,2023.2.3,Win32,30.030030030027405,,,,,,614.8734999999999,57,1,614.8736999999996,57,,,,618.4642999999998,618.9592999999998,617.9596,618.4641999999997,615.8867999999998,617.9594999999999,618.9593999999998,619.4462999999998,619.4462999999998,621.1363999999999,1440,621.1377999999997,5,621.1551999999997,1,23,53,11,1,1,0.3,Time
,,681174,001,女,20,2025-06-04_18h57.13.446,Serial_Dependence_U,2023.2.3,Win32,30.030030030027405,,,,,,621.1553999999999,30,1,621.1556999999997,30,,,,624.6936000000001,625.1741000000001,624.1871000000001,624.6936000000001,622.1526999999996,624.1871000000001,625.1741000000001,625.653,625.6532999999998,628.4133999999999,2127,628.4136999999997,5,628.4354999999999,1,24,54,6,1,1,0.7,Time
,,681174,001,女,20,2025-06-04_18h57.13.446,Serial_Dependence_U,2023.2.3,Win32,30.030030030027405,,,,,,628.4361,262,1,628.4363999999998,262,,,,632.6422999999998,633.1435,632.1161999999997,632.6422999999998,629.443,632.1156999999997,633.1438999999999,633.6097999999998,633.6098999999999,635.5021,1446,635.5021999999997,2,635.5215,1,25,55,14,1,1.6,0.3,Time
,,681174,001,女,20,2025-06-04_18h57.13.446,Serial_Dependence_U,2023.2.3,Win32,30.030030030027405,,,,,,635.5217999999998,276,1,635.5221,276,,,,639.3679999999999,639.8561000000001,638.8435,639.3678999999998,636.5426999999997,638.8431999999997,639.8561000000001,640.3271999999997,640.3275,642.8254999999999,1569,642.8276000000001,5,642.8432999999998,1,26,56,22,1,1.2,0.3,Time
,,681174,001,女,20,2025-06-04_18h57.13.446,Serial_Dependence_U,2023.2.3,Win32,30.030030030027405,,,,,,642.8436,33,1,642.8438999999998,33,,,,646.6131,647.1023999999999,646.0846,646.6128999999999,643.8421000000001,646.0844999999999,647.1025,647.5808999999999,647.5811999999997,649.5586000000001,1602,649.5586000000001,5,649.5767999999998,1,27,57,7,1,1.2,0.7,Time
,,681174,001,女,20,2025-06-04_18h57.13.446,Serial_Dependence_U,2023.2.3,Win32,30.030030030027405,,,,,,649.577,275,1,649.5771999999997,275,,,,653.0126,653.5041999999997,652.4811000000001,653.0124999999999,650.5908999999999,652.481,653.5042999999998,653.9846999999997,653.9846999999997,656.3852999999998,1858,656.3855,5,656.4069999999999,1,28,58,10,1,0.8,0.3,Time
,,681174,001,女,20,2025-06-04_18h57.13.446,Serial_Dependence_U,2023.2.3,Win32,30.030030030027405,,,,,,656.4073999999998,179,1,656.4076000000001,179,,,,660.0221999999997,660.5151000000001,659.4946999999997,660.0221999999997,657.4008999999999,659.4946000000001,660.5152999999998,661.0047999999998,661.0047999999998,663.9027999999997,2266,663.9052999999998,5,663.922,1,29,59,1,1,1,0.3,Time
,,681174,001,女,20,2025-06-04_18h57.13.446,Serial_Dependence_U,2023.2.3,Win32,30.030030030027405,,,,,,663.9222999999998,224,2,714.2173999999999,224,s,50.2484000000004,,718.4202999999998,718.9136999999997,717.8903999999999,718.4201,715.2476,717.8902999999998,718.9137999999998,719.4161999999997,719.4162999999998,721.4546999999997,1777,721.4561999999997,4,721.4756000000001,2,0,60,19,1,1.6,0.7,Time
,,681174,001,女,20,2025-06-04_18h57.13.446,Serial_Dependence_U,2023.2.3,Win32,30.030030030027405,,,,,,721.4758999999999,271,2,721.4775,271,,,,725.5052999999998,725.9828999999999,724.9796999999996,725.5051999999997,722.4915,724.9796000000001,725.9828999999999,726.4751000000001,726.4751000000001,727.4448999999998,340,727.4449999999999,1,727.4631999999997,2,1,61,13,1,1.4,0.3,Time
,,681174,001,女,20,2025-06-04_18h57.13.446,Serial_Dependence_U,2023.2.3,Win32,30.030030030027405,,,,,,727.4635,314,2,727.4636999999997,314,,,,730.8976999999996,731.3919999999999,730.3641999999996,730.8976,728.4892999999997,730.3631999999997,731.3921,731.8908999999999,731.891,733.8131999999997,1791,733.8136000000001,5,733.834,2,2,62,10,1,0.8,0.3,Time
,,681174,001,女,20,2025-06-04_18h57.13.446,Serial_Dependence_U,2023.2.3,Win32,30.030030030027405,,,,,,733.8342999999998,78,2,733.8346,78,,,,737.38,737.8908999999999,736.8787999999997,737.3798999999999,734.829,736.8786999999996,737.8908999999999,738.3726999999997,738.3728999999998,740.8516999999997,1928,740.8518999999999,5,740.8707999999998,2,3,63,16,1,1,0.7,Time
,,681174,001,女,20,2025-06-04_18h57.13.446,Serial_Dependence_U,2023.2.3,Win32,30.030030030027405,,,,,,740.8711999999997,142,2,740.8713999999999,142,,,,745.0318999999998,745.5235,744.5261999999997,745.0318999999998,741.8907999999998,744.5261,745.5236000000001,746.0181999999996,746.0181999999996,748.1196999999997,2029,748.12,4,748.1391000000001,2,4,64,9,1,1.6,0.7,Time
,,681174,001,女,20,2025-06-04_18h57.13.446,Serial_Dependence_U,2023.2.3,Win32,30.030030030027405,,,,,,748.1395,99,2,748.1396999999997,99,,,,751.7513999999999,752.2426999999997,751.2221000000001,751.7511999999997,749.1486000000001,751.2221000000001,752.2428999999998,752.7361999999997,752.7361999999997,754.3456999999997,1257,754.3457999999998,4,754.3656999999997,2,5,65,11,1,1,0.3,Time
,,681174,001,女,20,2025-06-04_18h57.13.446,Serial_Dependence_U,2023.2.3,Win32,30.030030030027405,,,,,,754.3661000000001,356,2,754.3661999999997,356,,,,757.7396000000001,758.2506999999997,757.2126000000001,757.7395,755.3736999999996,757.2125,758.2506999999997,758.752,758.7521,760.9862999999998,1756,760.9865,5,761.0055,2,6,66,15,1,0.8,0.7,Time
,,681174,001,女,20,2025-06-04_18h57.13.446,Serial_Dependence_U,2023.2.3,Win32,30.030030030027405,,,,,,761.006,130,2,761.0061999999997,130,,,,764.992,765.4931,764.4616999999997,764.9918999999999,762.0158999999999,764.4615,765.4931,765.9822999999998,765.9828999999999,767.716,1201,767.7186,2,767.7346000000001,2,7,67,8,1,1.4,0.7,Time
,,681174,001,女,20,2025-06-04_18h57.13.446,Serial_Dependence_U,2023.2.3,Win32,30.030030030027405,,,,,,767.7348999999999,31,2,767.7351000000001,31,,,,771.1157999999998,771.591,770.6033999999999,771.1156999999997,768.7668999999999,770.6032999999998,771.591,772.0816000000001,772.0816000000001,774.0363999999998,1760,774.0368999999998,5,774.0595,2,8,68,5,1,0.8,0.7,Time
,,681174,001,女,20,2025-06-04_18h57.13.446,Serial_Dependence_U,2023.2.3,Win32,30.030030030027405,,,,,,774.0601999999997,165,2,774.0603999999998,165,,,,777.4496,777.9406999999997,776.9183999999999,777.4495,775.0486999999997,776.9181999999997,777.9407999999997,778.4449999999999,778.4449999999999,780.4209999999999,1336,780.4213999999998,5,780.4406,2,9,69,0,1,0.8,0.3,Time
,,681174,001,女,20,2025-06-04_18h57.13.446,Serial_Dependence_U,2023.2.3,Win32,30.030030030027405,,,,,,780.4408999999998,21,2,780.4411999999996,21,,,,784.078,784.5737999999998,783.5398999999999,784.0777999999998,781.4653999999999,783.5398999999999,784.5743999999999,785.0573999999999,785.0576999999997,787.346,1848,787.3461999999997,5,787.3676999999997,2,10,70,1,1,1,0.3,Time
,,681174,001,女,20,2025-06-04_18h57.13.446,Serial_Dependence_U,2023.2.3,Win32,30.030030030027405,,,,,,787.3679999999999,274,2,787.3681999999997,274,,,,791.1897999999998,791.678,790.658,791.1896999999997,788.4056999999997,790.658,791.6781999999997,792.1731000000001,792.1733999999999,794.0736,1864,794.0737999999998,5,794.0925,2,11,71,7,1,1.2,0.7,Time
,,681174,001,女,20,2025-06-04_18h57.13.446,Serial_Dependence_U,2023.2.3,Win32,30.030030030027405,,,,,,794.0927999999998,186,2,794.093,186,,,,798.0799999999999,798.5552999999998,797.5701,798.0799999999999,795.0968999999999,797.5698999999998,798.5553999999998,799.0675,799.0676000000001,801.4445,1930,801.4446,5,801.4621999999997,2,12,72,3,1,1.4,0.3,Time
,,681174,001,女,20,2025-06-04_18h57.13.446,Serial_Dependence_U,2023.2.3,Win32,30.030030030027405,,,,,,801.4626999999997,286,2,801.463,286,,,,805.6618999999998,806.1607999999998,805.1571999999996,805.6618999999998,802.4728999999999,805.1571999999996,806.161,806.6441999999997,806.6442999999998,809.178,1761,809.1791999999997,4,809.1961000000001,2,13,73,24,1,1.6,0.3,Time
,,681174,001,女,20,2025-06-04_18h57.13.446,Serial_Dependence_U,2023.2.3,Win32,30.030030030027405,,,,,,809.1963999999999,103,2,809.1966000000001,103,,,,812.9946000000001,813.5113999999999,812.4626999999997,812.9943999999999,810.1891,812.4626000000001,813.5113999999999,813.9953999999999,813.9953999999999,816.819,2358,816.8191999999997,5,816.8382999999998,2,14,74,22,1,1.2,0.3,Time
,,681174,001,女,20,2025-06-04_18h57.13.446,Serial_Dependence_U,2023.2.3,Win32,30.030030030027405,,,,,,816.8386999999997,230,2,816.8388999999999,230,,,,821.0638999999999,821.5672999999998,820.5409999999999,821.0637999999998,817.8582999999998,820.5408999999999,821.5672999999998,822.0586000000001,822.059,824.7391999999996,2337,824.7411999999997,5,824.756,2,15,75,4,1,1.6,0.3,Time
,,681174,001,女,20,2025-06-04_18h57.13.446,Serial_Dependence_U,2023.2.3,Win32,30.030030030027405,,,,,,824.7562999999998,94,2,824.7565,94,,,,828.7267999999998,829.2206000000001,828.2073999999999,828.7267999999998,825.7716999999997,828.2073999999999,829.2206000000001,829.6966000000001,829.6966999999997,832.4644999999999,2239,832.4646999999997,5,832.4817999999998,2,16,76,28,1,1.4,0.7,Time
,,681174,001,女,20,2025-06-04_18h57.13.446,Serial_Dependence_U,2023.2.3,Win32,30.030030030027405,,,,,,832.4831999999997,81,2,832.4834999999999,81,,,,835.8261000000001,836.3321000000001,835.3086000000001,835.8252999999997,833.4756000000001,835.3086000000001,836.3321000000001,836.8266999999997,836.8267999999998,839.4151,2127,839.4171000000001,5,839.437,2,17,77,25,1,0.8,0.7,Time
,,681174,001,女,20,2025-06-04_18h57.13.446,Serial_Dependence_U,2023.2.3,Win32,30.030030030027405,,,,,,839.4373999999999,284,2,839.4376000000001,284,,,,843.1998999999998,843.6941999999997,842.6868999999999,843.1997999999998,840.4493999999999,842.6866999999997,843.6942999999998,844.2041999999997,844.2043999999999,846.3693999999999,1788,846.3696999999997,5,846.3901000000001,2,18,78,27,1,1.2,0.7,Time
,,681174,001,女,20,2025-06-04_18h57.13.446,Serial_Dependence_U,2023.2.3,Win32,30.030030030027405,,,,,,846.3903999999999,177,2,846.3905,177,,,,850.1808999999998,850.675,849.6761999999997,850.1807999999997,847.4202999999998,849.6759999999999,850.6751,851.1627999999998,851.1628999999999,855.5866000000001,4340,855.5883999999999,5,855.6047999999998,2,19,79,17,1,1.2,0.7,Time
,,681174,001,女,20,2025-06-04_18h57.13.446,Serial_Dependence_U,2023.2.3,Win32,30.030030030027405,,,,,,855.6051999999997,26,2,855.6053999999999,26,,,,859.0326999999996,859.5168999999999,858.5095,859.0325,856.615,858.5093999999999,859.5168999999999,860.0142999999998,860.0142999999998,860.9588999999999,196,860.9591,1,860.9783999999999,2,20,80,20,1,0.8,0.3,Time
,,681174,001,女,20,2025-06-04_18h57.13.446,Serial_Dependence_U,2023.2.3,Win32,30.030030030027405,,,,,,860.9791999999997,144,2,860.9794999999999,144,,,,864.9996999999997,865.4865,864.4691,864.9996000000001,862.0133999999999,864.4689999999999,865.4866000000001,866.0053999999999,866.0055,868.1561999999997,1692,868.1581999999997,4,868.1763999999998,2,21,81,18,1,1.4,0.7,Time
,,681174,001,女,20,2025-06-04_18h57.13.446,Serial_Dependence_U,2023.2.3,Win32,30.030030030027405,,,,,,868.1766999999996,253,2,868.1768999999999,253,,,,871.707,872.2041999999997,871.1926999999997,871.707,869.1556,871.1926000000001,872.2041999999997,872.6903999999998,872.6904999999999,875.2468999999999,2049,875.2471,5,875.2641000000001,2,22,82,26,1,1,0.7,Time
,,681174,001,女,20,2025-06-04_18h57.13.446,Serial_Dependence_U,2023.2.3,Win32,30.030030030027405,,,,,,875.2643999999999,232,2,875.2646000000001,232,,,,879.2637999999998,879.7425,878.7556999999997,879.2637999999998,876.2896000000001,878.7556000000001,879.7425,880.2271000000001,880.2271000000001,882.7308999999999,2313,882.732,5,882.7521999999997,2,23,83,23,1,1.4,0.3,Time
,,681174,001,女,20,2025-06-04_18h57.13.446,Serial_Dependence_U,2023.2.3,Win32,30.030030030027405,,,,,,882.7524999999999,157,2,882.7526999999997,157,,,,886.5588999999999,887.0488999999999,886.0464999999999,886.5587999999998,883.7785,886.0463999999998,887.0496,887.5402999999998,887.5403999999999,890.2361000000001,2620,890.2362999999998,5,890.2542999999998,2,24,84,12,1,1.2,0.3,Time
,,681174,001,女,20,2025-06-04_18h57.13.446,Serial_Dependence_U,2023.2.3,Win32,30.030030030027405,,,,,,890.2546000000001,194,2,890.2547999999998,194,,,,894.4531000000001,894.9655,893.9316999999996,894.453,891.2669999999999,893.9316999999996,894.9655,895.4491,895.4491999999997,898.3572999999998,2284,898.3596999999997,5,898.3778999999998,2,25,85,14,1,1.6,0.3,Time
,,681174,001,女,20,2025-06-04_18h57.13.446,Serial_Dependence_U,2023.2.3,Win32,30.030030030027405,,,,,,898.3781999999997,350,2,898.3784999999999,350,,,,902.5313999999998,903.0195,902.02,902.5313999999998,899.3711000000001,902.0198999999999,903.0195,903.5111999999997,903.5112999999998,907.261,3099,907.2611,5,907.2786999999997,2,26,86,29,1,1.6,0.7,Time
,,681174,001,女,20,2025-06-04_18h57.13.446,Serial_Dependence_U,2023.2.3,Win32,30.030030030027405,,,,,,907.279,75,2,907.2791999999997,75,,,,910.8746000000001,911.3726999999997,910.3441999999997,910.8746000000001,908.2767999999998,910.3441999999997,911.3726999999997,911.8511000000001,911.8511000000001,914.4502999999997,2250,914.4504999999999,5,914.4708999999999,2,27,87,6,1,1,0.7,Time
,,681174,001,女,20,2025-06-04_18h57.13.446,Serial_Dependence_U,2023.2.3,Win32,30.030030030027405,,,,,,914.4715,197,2,914.4716999999997,197,,,,918.3123999999999,918.8108999999998,917.7932999999998,918.3122999999998,915.5071,917.7931999999997,918.8108999999998,919.3006999999997,919.3008999999998,922.0975,2763,922.0987999999998,5,922.1152999999998,2,28,88,2,1,1.2,0.3,Time
,,681174,001,女,20,2025-06-04_18h57.13.446,Serial_Dependence_U,2023.2.3,Win32,30.030030030027405,,,,,,922.1155,242,2,922.1156999999997,242,,,,925.7221999999997,926.236,925.2063999999999,925.7216999999997,923.1372999999998,925.2058999999999,926.236,926.7467999999998,926.7468999999999,929.6997999999998,2696,929.7001999999997,5,929.7202999999998,2,29,89,21,1,1,0.3,Time
,,681174,001,女,20,2025-06-04_18h57.13.446,Serial_Dependence_U,2023.2.3,Win32,30.030030030027405,,,,,,929.7206999999997,340,3,934.1851,340,s,4.42029999999977,,937.7666,938.2586999999996,937.2642999999998,937.7665,935.2085,937.2641999999997,938.2587999999998,938.7516999999997,938.7517999999998,942.5935,3539,942.5961999999997,5,942.6117999999998,3,0,90,26,1,1,0.7,Time
,,681174,001,女,20,2025-06-04_18h57.13.446,Serial_Dependence_U,2023.2.3,Win32,30.030030030027405,,,,,,942.6121,326,3,942.6153999999999,326,,,,946.7691000000001,947.2641999999997,946.2655,946.769,943.6206999999997,946.2653999999999,947.2645,947.7747999999998,947.7751999999997,951.4808999999999,3323,951.4811000000001,5,951.4991000000001,3,1,91,9,1,1.6,0.7,Time
,,681174,001,女,20,2025-06-04_18h57.13.446,Serial_Dependence_U,2023.2.3,Win32,30.030030030027405,,,,,,951.4993999999999,343,3,951.4996000000001,343,,,,955.5166999999997,956.0156999999997,955.0042999999998,955.5166,952.5258999999999,955.0041999999997,956.016,956.499,956.4996000000001,960.4302999999998,3750,960.4314999999999,5,960.4491999999997,3,2,92,3,1,1.4,0.3,Time
,,681174,001,女,20,2025-06-04_18h57.13.446,Serial_Dependence_U,2023.2.3,Win32,30.030030030027405,,,,,,960.4495,322,3,960.4496,322,,,,964.2461999999997,964.7458999999999,963.7163999999999,964.2461999999997,961.4741999999997,963.7162999999998,964.746,965.2536000000001,965.2536999999996,969.0799999999999,3505,969.0801999999996,5,969.1006999999997,3,3,93,27,1,1.2,0.7,Time
,,681174,001,女,20,2025-06-04_18h57.13.446,Serial_Dependence_U,2023.2.3,Win32,30.030030030027405,,,,,,969.1011999999997,250,3,969.1013999999999,250,,,,973.2875,973.7997999999998,972.7732999999998,973.2875,970.1181999999997,972.7731999999997,973.7997999999998,974.2896000000001,974.2896999999997,978.081,3426,978.0811999999997,5,978.1003999999999,3,4,94,19,1,1.6,0.7,Time
,,681174,001,女,20,2025-06-04_18h57.13.446,Serial_Dependence_U,2023.2.3,Win32,30.030030030027405,,,,,,978.1006999999997,120,3,978.1008999999999,120,,,,981.5219999999998,982.0294999999998,981.0057999999996,981.5218999999998,979.1188999999999,981.0056999999996,982.0296,982.5288999999997,982.5290999999999,986.5661999999996,3612,986.5663999999998,5,986.5857999999997,3,5,95,0,1,0.8,0.3,Time
,,681174,001,女,20,2025-06-04_18h57.13.446,Serial_Dependence_U,2023.2.3,Win32,30.030030030027405,,,,,,986.5862999999996,39,3,986.5866,39,,,,990.1749999999998,990.6734999999998,989.6606,990.1748999999999,987.5771999999996,989.6601999999997,990.6736,991.1743999999998,991.1745,994.7046999999997,3119,994.7048999999998,5,994.7227999999997,3,6,96,1,1,1,0.3,Time
,,681174,001,女,20,2025-06-04_18h57.13.446,Serial_Dependence_U,2023.2.3,Win32,30.030030030027405,,,,,,994.7231999999996,348,3,994.7233999999997,348,,,,998.5084999999998,998.9843999999997,997.9949999999998,998.5083999999998,995.7322999999998,997.9948999999998,998.9845999999999,999.4609999999999,999.4609999999999,1003.0546999999996,3447,1003.0556999999995,5,1003.0714999999999,3,7,97,12,1,1.2,0.3,Time
,,681174,001,女,20,2025-06-04_18h57.13.446,Serial_Dependence_U,2023.2.3,Win32,30.030030030027405,,,,,,1003.0717999999996,36,3,1003.0719999999998,36,,,,1007.0617999999996,1007.5380999999999,1006.5417999999996,1007.0617999999996,1004.0648999999997,1006.5415999999999,1007.5382999999996,1008.0234999999999,1008.0234999999999,1011.5708999999998,3435,1011.5709999999998,5,1011.5878999999999,3,8,98,23,1,1.4,0.3,Time
,,681174,001,女,20,2025-06-04_18h57.13.446,Serial_Dependence_U,2023.2.3,Win32,30.030030030027405,,,,,,1011.5881999999996,121,3,1011.5883999999998,121,,,,1015.1807999999997,1015.6602999999997,1014.6613999999998,1015.1806999999995,1012.6091,1014.6612999999996,1015.6606,1016.1404999999999,1016.1406999999996,1019.4345999999999,3018,1019.4346999999997,5,1019.4537999999997,3,9,99,16,1,1,0.7,Time
,,681174,001,女,20,2025-06-04_18h57.13.446,Serial_Dependence_U,2023.2.3,Win32,30.030030030027405,,,,,,1019.4541999999996,249,3,1019.4542999999998,249,,,,1023.0632999999997,1023.5611999999995,1022.5618999999998,1023.0632999999997,1020.4908999999997,1022.5617999999996,1023.5611999999995,1024.047,1024.0471,1027.2301,3118,1027.232,5,1027.2516999999998,3,10,100,21,1,1,0.3,Time
,,681174,001,女,20,2025-06-04_18h57.13.446,Serial_Dependence_U,2023.2.3,Win32,30.030030030027405,,,,,,1027.252,236,3,1027.2521999999997,236,,,,1031.0536,1031.5441999999996,1030.5322999999999,1031.0535,1028.2541,1030.5321999999996,1031.5441999999996,1032.0511999999997,1032.0511999999997,1035.1834,2636,1035.1838999999998,5,1035.2063999999998,3,11,101,22,1,1.2,0.3,Time
,,681174,001,女,20,2025-06-04_18h57.13.446,Serial_Dependence_U,2023.2.3,Win32,30.030030030027405,,,,,,1035.2067999999997,302,3,1035.2069,302,,,,1038.6136000000001,1039.1136000000001,1038.0831999999996,1038.6136000000001,1036.2259,1038.0831,1039.1136999999997,1039.612,1039.6121,1042.848,3077,1042.8482999999999,5,1042.8652999999997,3,12,102,5,1,0.8,0.7,Time
,,681174,001,女,20,2025-06-04_18h57.13.446,Serial_Dependence_U,2023.2.3,Win32,30.030030030027405,,,,,,1042.8656999999996,169,3,1042.8657999999998,169,,,,1047.0968999999998,1047.589,1046.572,1047.0967999999998,1043.8816000000002,1046.5719,1047.5895,1048.0997999999997,1048.0997999999997,1051.5137999999997,3336,1051.514,5,1051.5303,3,13,103,24,1,1.6,0.3,Time
,,681174,001,女,20,2025-06-04_18h57.13.446,Serial_Dependence_U,2023.2.3,Win32,30.030030030027405,,,,,,1051.5307999999998,234,3,1051.531,234,,,,1055.1407999999997,1055.6357999999998,1054.6092999999998,1055.1406999999997,1052.5285,1054.6089,1055.6358999999998,1056.1125,1056.1125,1059.6821,3302,1059.6825,5,1059.702,3,14,104,11,1,1,0.3,Time
,,681174,001,女,20,2025-06-04_18h57.13.446,Serial_Dependence_U,2023.2.3,Win32,30.030030030027405,,,,,,1059.7024,149,3,1059.7026,149,,,,1063.4761999999996,1063.9743999999998,1062.9472999999998,1063.4761,1060.6857999999997,1062.9471999999996,1063.9743999999998,1064.4796999999996,1064.4806999999996,1067.8876,3070,1067.8911999999998,5,1067.9082999999998,3,15,105,17,1,1.2,0.7,Time
,,681174,001,女,20,2025-06-04_18h57.13.446,Serial_Dependence_U,2023.2.3,Win32,30.030030030027405,,,,,,1067.9086,286,3,1067.9087999999997,286,,,,1072.0726,1072.5621999999996,1071.5571,1072.0725,1068.9098999999999,1071.557,1072.5623999999998,1073.0611000000001,1073.0611000000001,1076.4031999999997,3182,1076.4037999999998,5,1076.4202999999998,3,16,106,29,1,1.6,0.7,Time
,,681174,001,女,20,2025-06-04_18h57.13.446,Serial_Dependence_U,2023.2.3,Win32,30.030030030027405,,,,,,1076.4206000000001,261,3,1076.4208999999998,261,,,,1080.3771999999997,1080.8716999999997,1079.8671999999997,1080.377,1077.4281999999996,1079.8671000000002,1080.8722999999998,1081.3652999999997,1081.3654,1085,3281,1085.0001999999997,5,1085.0186,3,17,107,18,1,1.4,0.7,Time
,,681174,001,女,20,2025-06-04_18h57.13.446,Serial_Dependence_U,2023.2.3,Win32,30.030030030027405,,,,,,1085.019,235,3,1085.0191999999997,235,,,,1088.6265,1089.1173999999999,1088.0921999999996,1088.6254,1086.0387999999998,1088.0921,1089.1175,1089.6116,1089.6118999999999,1092.749,3012,1092.7492999999997,5,1092.7686,3,18,108,6,1,1,0.7,Time
,,681174,001,女,20,2025-06-04_18h57.13.446,Serial_Dependence_U,2023.2.3,Win32,30.030030030027405,,,,,,1092.7691,44,3,1092.7694,44,,,,1096.1811999999998,1096.6606000000002,1095.6611999999998,1096.1811,1093.777,1095.661,1096.6607999999999,1097.1466,1097.1467999999998,1100.1436999999996,2908,1100.1438999999998,5,1100.1617999999999,3,19,109,10,1,0.8,0.3,Time
,,681174,001,女,20,2025-06-04_18h57.13.446,Serial_Dependence_U,2023.2.3,Win32,30.030030030027405,,,,,,1100.1621,33,3,1100.1621999999998,33,,,,1103.5445,1104.0345,1103.0406999999998,1103.5443999999998,1101.1598999999999,1103.0406,1104.0345,1104.5181999999998,1104.5186,1107.9966999999997,3236,1107.9968999999999,5,1108.0151999999996,3,20,110,20,1,0.8,0.3,Time
,,681174,001,女,20,2025-06-04_18h57.13.446,Serial_Dependence_U,2023.2.3,Win32,30.030030030027405,,,,,,1108.0156000000002,90,3,1108.0157999999997,90,,,,1111.8021,1112.2788999999998,1111.2719,1111.802,1109.0171,1111.2719,1112.2788999999998,1112.7698999999998,1112.77,1115.9588999999999,3142,1115.9591,5,1115.9797999999998,3,21,111,7,1,1.2,0.7,Time
,,681174,001,女,20,2025-06-04_18h57.13.446,Serial_Dependence_U,2023.2.3,Win32,30.030030030027405,,,,,,1115.9802999999997,77,3,1115.9804,77,,,,1119.3737999999998,1119.8538999999998,1118.8519,1119.3736999999996,1116.9955,1118.8519,1119.8541,1120.336,1120.3361999999997,1123.5671999999997,2951,1123.5691000000002,5,1123.5838999999999,3,22,112,25,1,0.8,0.7,Time
,,681174,001,女,20,2025-06-04_18h57.13.446,Serial_Dependence_U,2023.2.3,Win32,30.030030030027405,,,,,,1123.5841999999998,270,3,1123.5844,270,,,,1127.8112999999998,1128.2912999999999,1127.2986999999996,1127.8111999999996,1124.6152999999997,1127.2986,1128.2917999999997,1128.7613,1128.7613,1132.0478999999998,3176,1132.0481,5,1132.0658999999998,3,23,113,4,1,1.6,0.3,Time
,,681174,001,女,20,2025-06-04_18h57.13.446,Serial_Dependence_U,2023.2.3,Win32,30.030030030027405,,,,,,1132.0662999999997,72,3,1132.0666999999996,72,,,,1136.2667999999999,1136.7617999999998,1135.7639,1136.2666999999997,1133.0881999999997,1135.7639,1136.7626999999998,1137.2411999999997,1137.2411999999997,1140.68,2957,1140.6801,5,1140.6981,3,24,114,14,1,1.6,0.3,Time
,,681174,001,女,20,2025-06-04_18h57.13.446,Serial_Dependence_U,2023.2.3,Win32,30.030030030027405,,,,,,1140.6983999999998,234,3,1140.6986999999997,234,,,,1144.488,1144.9843999999998,1143.9725,1144.4878999999999,1141.6765,1143.9721,1144.9845,1145.4678999999999,1145.468,1149.1511999999998,3558,1149.1524,5,1149.1682999999998,3,25,115,2,1,1.2,0.3,Time
,,681174,001,女,20,2025-06-04_18h57.13.446,Serial_Dependence_U,2023.2.3,Win32,30.030030030027405,,,,,,1149.1686,154,3,1149.1686999999997,154,,,,1152.5593999999999,1153.069,1152.0366999999997,1152.5593999999999,1150.1782999999998,1152.0366000000001,1153.0695,1153.5661999999998,1153.5661999999998,1157.071,3153,1157.0723999999998,5,1157.0892999999999,3,26,116,15,1,0.8,0.7,Time
,,681174,001,女,20,2025-06-04_18h57.13.446,Serial_Dependence_U,2023.2.3,Win32,30.030030030027405,,,,,,1157.0896999999998,235,3,1157.0899,235,,,,1161.0776999999996,1161.5745,1160.5561,1161.0774999999999,1158.0932999999998,1160.556,1161.5746000000001,1162.0736000000002,1162.0738,1165.6676,3231,1165.6676999999997,5,1165.6877999999997,3,27,117,28,1,1.4,0.7,Time
,,681174,001,女,20,2025-06-04_18h57.13.446,Serial_Dependence_U,2023.2.3,Win32,30.030030030027405,,,,,,1165.6881,239,3,1165.6883999999998,239,,,,1169.6526000000001,1170.1444,1169.1391999999996,1169.6524,1166.6886,1169.1385,1170.1451999999997,1170.632,1170.6321999999998,1174.3876999999998,3027,1174.3877999999997,5,1174.4086,3,28,118,8,1,1.4,0.7,Time
,,681174,001,女,20,2025-06-04_18h57.13.446,Serial_Dependence_U,2023.2.3,Win32,30.030030030027405,,,,,,1174.4089,61,3,1174.4091,61,,,,1178.4279,1178.9091,1177.9261999999997,1178.4277999999997,1175.4367999999997,1177.9261999999997,1178.9091,1179.4086999999997,1179.4089,1182.7995,3356,1182.7999,5,1182.8186,3,29,119,13,1,1.4,0.3,Time
,,681174,001,女,20,2025-06-04_18h57.13.446,Serial_Dependence_U,2023.2.3,Win32,30.030030030027405,,,,,,1182.8191999999997,351,4,1269.7651999999996,351,s,86.89620000000014,,1273.3564999999999,1273.8274,1272.8282999999997,1273.3557999999998,1270.7843999999998,1272.8281999999997,1273.8276999999996,1274.3245,1274.3246000000001,1277.5036999999998,3104,1277.504,5,1277.5233999999998,4,0,120,26,1,1,0.7,Time
,,681174,001,女,20,2025-06-04_18h57.13.446,Serial_Dependence_U,2023.2.3,Win32,30.030030030027405,,,,,,1277.5237999999997,36,4,1277.5256999999997,36,,,,1281.152,1281.6407999999997,1280.6382999999998,1281.152,1278.5557999999999,1280.6381999999996,1281.6414,1282.1271000000002,1282.1272999999999,1285.3961999999997,3234,1285.3989,5,1285.4175,4,1,121,21,1,1,0.3,Time
,,681174,001,女,20,2025-06-04_18h57.13.446,Serial_Dependence_U,2023.2.3,Win32,30.030030030027405,,,,,,1285.418,341,4,1285.4181999999996,341,,,,1288.7588999999998,1289.2723999999998,1288.2481,1288.7588999999998,1286.4026999999996,1288.2478999999998,1289.2723999999998,1289.7626999999998,1289.763,1293.1531999999997,3278,1293.155,5,1293.1753999999999,4,2,122,25,1,0.8,0.7,Time
,,681174,001,女,20,2025-06-04_18h57.13.446,Serial_Dependence_U,2023.2.3,Win32,30.030030030027405,,,,,,1293.1759,57,4,1293.1761000000001,57,,,,1296.9826999999998,1297.4795,1296.4552999999999,1296.9826999999998,1294.1933999999999,1296.4551999999996,1297.4796000000001,1297.9642999999999,1297.965,1301.1781,3102,1301.1782999999998,5,1301.1979999999999,4,3,123,17,1,1.2,0.7,Time
,,681174,001,女,20,2025-06-04_18h57.13.446,Serial_Dependence_U,2023.2.3,Win32,30.030030030027405,,,,,,1301.1983999999998,289,4,1301.1985,289,,,,1304.7746999999997,1305.2652999999998,1304.2611000000002,1304.7746,1302.1861000000001,1304.261,1305.2653999999998,1305.7798999999998,1305.7801000000002,1308.9542999999999,2679,1308.9547999999998,5,1308.9771999999996,4,4,124,1,1,1,0.3,Time
,,681174,001,女,20,2025-06-04_18h57.13.446,Serial_Dependence_U,2023.2.3,Win32,30.030030030027405,,,,,,1308.9775,9,4,1308.9776999999997,9,,,,1312.7752999999998,1313.2611000000002,1312.2543999999998,1312.7751999999996,1309.9992999999997,1312.2541999999996,1313.2613,1313.7376999999997,1313.7377999999999,1317.0474,3096,1317.0477999999998,5,1317.0667999999998,4,5,125,7,1,1.2,0.7,Time
,,681174,001,女,20,2025-06-04_18h57.13.446,Serial_Dependence_U,2023.2.3,Win32,30.030030030027405,,,,,,1317.0676999999996,87,4,1317.0782999999997,87,,,,1321.0866,1321.6022999999998,1320.5676,1321.0865,1318.0844,1320.5674999999999,1321.6022999999998,1322.0891000000001,1322.0891000000001,1325.2516,2884,1325.2532999999999,5,1325.2726999999998,4,6,126,13,1,1.4,0.3,Time
,,681174,001,女,20,2025-06-04_18h57.13.446,Serial_Dependence_U,2023.2.3,Win32,30.030030030027405,,,,,,1325.2731999999996,359,4,1325.2733999999998,359,,,,1329.4945,1329.9816999999996,1328.9655,1329.4943999999998,1326.273,1328.9653999999998,1329.9817999999998,1330.4727999999998,1330.4729,1334.4417999999998,3879,1334.4421,5,1334.4645,4,7,127,24,1,1.6,0.3,Time
,,681174,001,女,20,2025-06-04_18h57.13.446,Serial_Dependence_U,2023.2.3,Win32,30.030030030027405,,,,,,1334.465,324,4,1334.4651999999996,324,,,,1338.2194,1338.7121,1337.7146999999998,1338.2192999999997,1335.4767999999997,1337.7146,1338.7122999999997,1339.2159,1339.216,1342.5316999999998,2900,1342.5326999999997,5,1342.5516,4,8,128,27,1,1.2,0.7,Time
,,681174,001,女,20,2025-06-04_18h57.13.446,Serial_Dependence_U,2023.2.3,Win32,30.030030030027405,,,,,,1342.552,24,4,1342.5522999999998,24,,,,1346.7275,1347.2161,1346.2161999999996,1346.7274,1343.5636999999997,1346.2161,1347.2161999999996,1347.7222999999997,1347.7222999999997,1351.3121999999996,3317,1351.3125,5,1351.3319999999999,4,9,129,9,1,1.6,0.7,Time
,,681174,001,女,20,2025-06-04_18h57.13.446,Serial_Dependence_U,2023.2.3,Win32,30.030030030027405,,,,,,1351.3323999999998,331,4,1351.3326999999997,331,,,,1354.941,1355.4279999999999,1354.4289999999999,1354.941,1352.3466,1354.4288999999999,1355.4281,1355.9275,1355.9275,1359.4316999999996,3208,1359.4328999999998,5,1359.4501,4,10,130,11,1,1,0.3,Time
,,681174,001,女,20,2025-06-04_18h57.13.446,Serial_Dependence_U,2023.2.3,Win32,30.030030030027405,,,,,,1359.4504,140,4,1359.4506000000001,140,,,,1363.2674,1363.7619,1362.7401999999997,1363.2672999999998,1360.4722999999997,1362.7396999999996,1363.7626,1364.2545,1364.2546,1367.8669,3480,1367.868,5,1367.8869,4,11,131,22,1,1.2,0.3,Time
,,681174,001,女,20,2025-06-04_18h57.13.446,Serial_Dependence_U,2023.2.3,Win32,30.030030030027405,,,,,,1367.8872999999999,306,4,1367.8876,306,,,,1371.7175,1372.2139,1371.2051000000001,1371.7173999999998,1368.9276999999997,1371.2049,1372.214,1372.7036,1372.7039,1376.5712999999998,3594,1376.574,5,1376.5889,4,12,132,2,1,1.2,0.3,Time
,,681174,001,女,20,2025-06-04_18h57.13.446,Serial_Dependence_U,2023.2.3,Win32,30.030030030027405,,,,,,1376.5899,224,4,1376.5901000000001,224,,,,1379.9666,1380.4716,1379.4563999999998,1379.9665,1377.5717999999997,1379.4552999999999,1380.4716999999996,1380.9617999999998,1380.9621,1384.3241,2860,1384.325,5,1384.3422999999998,4,13,133,0,1,0.8,0.3,Time
,,681174,001,女,20,2025-06-04_18h57.13.446,Serial_Dependence_U,2023.2.3,Win32,30.030030030027405,,,,,,1384.3426999999997,77,4,1384.3428999999999,77,,,,1387.9136,1388.4042999999997,1387.4016000000001,1387.9134999999999,1385.3506999999997,1387.4015,1388.4044,1388.8973999999998,1388.8976999999998,1392.3915,3167,1392.3936,5,1392.4125,4,14,134,16,1,1,0.7,Time
,,681174,001,女,20,2025-06-04_18h57.13.446,Serial_Dependence_U,2023.2.3,Win32,30.030030030027405,,,,,,1392.4128999999998,320,4,1392.4131,320,,,,1396.2084,1396.7026999999996,1395.6907999999999,1396.2082999999998,1393.4041,1395.6906999999997,1396.7027999999998,1397.1783999999998,1397.1783999999998,1400.4563999999998,3202,1400.4595,5,1400.4771,4,15,135,12,1,1.2,0.3,Time
,,681174,001,女,20,2025-06-04_18h57.13.446,Serial_Dependence_U,2023.2.3,Win32,30.030030030027405,,,,,,1400.4775,10,4,1400.4776999999997,10,,,,1404.4986000000001,1404.9994,1403.9859999999999,1404.4984,1401.4976000000001,1403.9859,1404.9995,1405.4921000000002,1405.4925,1408.9486000000002,3035,1408.9491999999998,5,1408.9652999999998,4,16,136,23,1,1.4,0.3,Time
,,681174,001,女,20,2025-06-04_18h57.13.446,Serial_Dependence_U,2023.2.3,Win32,30.030030030027405,,,,,,1408.9656999999997,336,4,1408.966,336,,,,1413.1036000000001,1413.5819999999999,1412.6026999999997,1413.1035,1409.97,1412.6024,1413.5821999999996,1414.0601000000001,1414.0601000000001,1417.2591999999997,3139,1417.2613999999999,5,1417.2803,4,17,137,29,1,1.6,0.7,Time
,,681174,001,女,20,2025-06-04_18h57.13.446,Serial_Dependence_U,2023.2.3,Win32,30.030030030027405,,,,,,1417.2806,50,4,1417.2809,50,,,,1420.7231999999997,1421.23,1420.1991999999998,1420.7231000000002,1418.3183999999999,1420.1991999999998,1421.23,1421.7067999999997,1421.7067999999997,1425.4201,3269,1425.4214,5,1425.4394,4,18,138,10,1,0.8,0.3,Time
,,681174,001,女,20,2025-06-04_18h57.13.446,Serial_Dependence_U,2023.2.3,Win32,30.030030030027405,,,,,,1425.4397999999999,352,4,1425.44,352,,,,1428.8468999999998,1429.3347999999999,1428.3365,1428.8468999999998,1426.4451999999997,1428.3364,1429.3348999999998,1429.8296,1429.8296,1433.6531999999997,3335,1433.6534,5,1433.6721,4,19,139,20,1,0.8,0.3,Time
,,681174,001,女,20,2025-06-04_18h57.13.446,Serial_Dependence_U,2023.2.3,Win32,30.030030030027405,,,,,,1433.6726,191,4,1433.6727999999998,191,,,,1437.0722999999998,1437.5874,1436.5556999999997,1437.0721999999996,1434.6957999999997,1436.5555,1437.5874999999999,1438.1034,1438.1035,1441.8807999999997,3384,1441.8826000000001,5,1441.8962999999999,4,20,140,15,1,0.8,0.7,Time
,,681174,001,女,20,2025-06-04_18h57.13.446,Serial_Dependence_U,2023.2.3,Win32,30.030030030027405,,,,,,1441.8966,194,4,1441.8967999999998,194,,,,1445.8989,1446.3811999999996,1445.3646,1445.8986999999997,1442.9092999999998,1445.3645,1446.3812999999998,1446.8631999999998,1446.8632999999998,1450.3301999999996,3061,1450.3303999999998,5,1450.348,4,21,141,28,1,1.4,0.7,Time
,,681174,001,女,20,2025-06-04_18h57.13.446,Serial_Dependence_U,2023.2.3,Win32,30.030030030027405,,,,,,1450.3482999999999,180,4,1450.3485,180,,,,1454.5657999999999,1455.0677999999998,1454.0475,1454.5656999999997,1451.3641,1454.0474,1455.0681,1455.5337999999997,1455.5341,1459.535,3672,1459.5356000000002,5,1459.5591000000002,4,22,142,4,1,1.6,0.3,Time
,,681174,001,女,20,2025-06-04_18h57.13.446,Serial_Dependence_U,2023.2.3,Win32,30.030030030027405,,,,,,1459.5595,286,4,1459.5597999999998,286,,,,1463.7641,1464.2819,1463.2432999999999,1463.764,1460.5612999999998,1463.2431999999997,1464.2819,1464.7817999999997,1464.7819,1469.009,3908,1469.009,5,1469.0266000000001,4,23,143,14,1,1.6,0.3,Time
,,681174,001,女,20,2025-06-04_18h57.13.446,Serial_Dependence_U,2023.2.3,Win32,30.030030030027405,,,,,,1469.027,65,4,1469.0271999999998,65,,,,1473.1985,1473.6924,1472.6717999999998,1473.1983999999998,1470.0357999999999,1472.6717999999998,1473.6924999999999,1474.1771,1474.1775,1478.4426999999996,4065,1478.4436999999996,5,1478.4646,4,24,144,19,1,1.6,0.7,Time
,,681174,001,女,20,2025-06-04_18h57.13.446,Serial_Dependence_U,2023.2.3,Win32,30.030030030027405,,,,,,1478.4651999999996,240,4,1478.4662999999998,240,,,,1481.8556,1482.3416,1481.3272999999997,1481.8555,1479.4861999999996,1481.3271999999997,1482.3416,1482.8306,1482.8306,1486.281,3066,1486.2811999999997,5,1486.3041999999996,4,25,145,5,1,0.8,0.7,Time
,,681174,001,女,20,2025-06-04_18h57.13.446,Serial_Dependence_U,2023.2.3,Win32,30.030030030027405,,,,,,1486.3046000000002,352,4,1486.3046999999997,352,,,,1489.887,1490.3886,1489.3641,1489.8869,1487.3231,1489.3641,1490.3886999999997,1490.8787999999997,1490.8787999999997,1494.3889,3253,1494.3902999999998,5,1494.407,4,26,146,6,1,1,0.7,Time
,,681174,001,女,20,2025-06-04_18h57.13.446,Serial_Dependence_U,2023.2.3,Win32,30.030030030027405,,,,,,1494.4075,229,4,1494.4076999999997,229,,,,1498.3935,1498.8692999999998,1497.8846999999996,1498.3935,1495.4136,1497.8845,1498.8693999999998,1499.3475,1499.3475,1501.8435,2112,1501.8436999999997,5,1501.8617999999997,4,27,147,8,1,1.4,0.7,Time
,,681174,001,女,20,2025-06-04_18h57.13.446,Serial_Dependence_U,2023.2.3,Win32,30.030030030027405,,,,,,1501.8621999999998,251,4,1501.8624,251,,,,1505.8319999999999,1506.3093,1505.3123999999998,1505.8317999999997,1502.8638999999998,1505.3122999999998,1506.31,1506.8172999999997,1506.8172999999997,1510.8097999999998,3620,1510.8099,5,1510.8281000000002,4,28,148,18,1,1.4,0.7,Time
,,681174,001,女,20,2025-06-04_18h57.13.446,Serial_Dependence_U,2023.2.3,Win32,30.030030030027405,,,,,,1510.8283999999999,64,4,1510.8286,64,,,,1514.8271,1515.329,1514.3044,1514.827,1511.8232999999998,1514.3044,1515.3291000000002,1515.8154,1515.8155,1519.7988999999998,3589,1519.7993999999999,5,1519.8151999999998,4,29,149,3,1,1.4,0.3,Time
,,681174,001,女,20,2025-06-04_18h57.13.446,Serial_Dependence_U,2023.2.3,Win32,30.030030030027405,,,,,,1519.8155,284,5,1684.2255,284,s,164.3635999999999,,1688.3997999999997,1688.8996999999997,1687.8886,1688.3996999999997,1685.2321000000002,1687.8885,1688.8997999999997,1689.3976,1689.3976999999998,1693.5051,3789,1693.5051,5,1693.5231999999996,5,0,150,9,1,1.6,0.7,Time
,,681174,001,女,20,2025-06-04_18h57.13.446,Serial_Dependence_U,2023.2.3,Win32,30.030030030027405,,,,,,1693.5235,191,5,1693.5249,191,,,,1697.7645,1698.2692999999997,1697.2357999999997,1697.7642999999998,1694.5432999999998,1697.2357999999997,1698.2692999999997,1698.7846999999997,1698.7846999999997,1702.9563999999998,3896,1702.9571,5,1702.9756999999997,5,1,151,4,1,1.6,0.3,Time
,,681174,001,女,20,2025-06-04_18h57.13.446,Serial_Dependence_U,2023.2.3,Win32,30.030030030027405,,,,,,1702.9765,161,5,1702.9771999999996,161,,,,1706.9471,1707.4295,1706.4237999999998,1706.9471,1703.99,1706.4237999999998,1707.4298,1707.9246,1707.9246,1711.9021,3821,1711.9022999999997,5,1711.9225,5,2,152,8,1,1.4,0.7,Time
,,681174,001,女,20,2025-06-04_18h57.13.446,Serial_Dependence_U,2023.2.3,Win32,30.030030030027405,,,,,,1711.9228999999998,337,5,1711.9231999999997,337,,,,1716.12,1716.6182999999999,1715.5932999999998,1716.1199,1712.9385,1715.5931,1716.6183999999998,1717.1006,1717.1009,1721.2104,3749,1721.2116999999996,5,1721.2346999999997,5,3,153,29,1,1.6,0.7,Time
,,681174,001,女,20,2025-06-04_18h57.13.446,Serial_Dependence_U,2023.2.3,Win32,30.030030030027405,,,,,,1721.2351999999996,338,5,1721.2356,338,,,,1724.7964,1725.307,1724.279,1724.7964,1722.2468,1724.2788999999998,1725.3075,1725.7982999999997,1725.7984,1729.1267999999998,2925,1729.1271000000002,5,1729.1476,5,4,154,26,1,1,0.7,Time
,,681174,001,女,20,2025-06-04_18h57.13.446,Serial_Dependence_U,2023.2.3,Win32,30.030030030027405,,,,,,1729.148,258,5,1729.1481,258,,,,1733.321,1733.8211000000001,1732.7939,1733.321,1730.1363999999999,1732.7927999999997,1733.8211000000001,1734.3285,1734.3285,1738.0371999999998,3364,1738.0377999999998,5,1738.0526999999997,5,5,155,19,1,1.6,0.7,Time
,,681174,001,女,20,2025-06-04_18h57.13.446,Serial_Dependence_U,2023.2.3,Win32,30.030030030027405,,,,,,1738.0529999999999,221,5,1738.0532999999998,221,,,,1741.4263999999998,1741.9365,1740.9089,1741.4262999999999,1739.0692999999999,1740.9086999999997,1741.9365,1742.4479,1742.4482999999998,1745.9631000000002,3122,1745.9635,5,1745.9842999999998,5,6,156,25,1,0.8,0.7,Time
,,681174,001,女,20,2025-06-04_18h57.13.446,Serial_Dependence_U,2023.2.3,Win32,30.030030030027405,,,,,,1745.9847999999997,128,5,1745.985,128,,,,1749.5807999999997,1750.0581999999997,1749.0554,1749.5806999999998,1747.0113,1749.0552999999998,1750.0581999999997,1750.5686,1750.569,1754.1798999999999,3206,1754.1801,5,1754.1981999999996,5,7,157,6,1,1,0.7,Time
,,681174,001,女,20,2025-06-04_18h57.13.446,Serial_Dependence_U,2023.2.3,Win32,30.030030030027405,,,,,,1754.1985,219,5,1754.1988,219,,,,1757.9717999999998,1758.4832999999999,1757.443,1757.9716999999996,1755.1802999999998,1757.4428999999998,1758.4832999999999,1758.9723999999999,1758.9723999999999,1762.5339999999999,3250,1762.5362999999998,5,1762.5557999999999,5,8,158,17,1,1.2,0.7,Time
,,681174,001,女,20,2025-06-04_18h57.13.446,Serial_Dependence_U,2023.2.3,Win32,30.030030030027405,,,,,,1762.5562999999997,11,5,1762.5564,11,,,,1766.744,1767.2308999999998,1766.2298999999998,1766.7439,1763.5574,1766.2298999999998,1767.2308999999998,1767.7406,1767.7406999999996,1771.4941999999996,3330,1771.4963999999998,5,1771.5168999999999,5,9,159,24,1,1.6,0.3,Time
,,681174,001,女,20,2025-06-04_18h57.13.446,Serial_Dependence_U,2023.2.3,Win32,30.030030030027405,,,,,,1771.5174,29,5,1771.5176000000001,29,,,,1775.2785,1775.7746,1774.7716999999998,1775.2784,1772.5366999999997,1774.7716,1775.7746999999997,1776.2595,1776.2596,1779.9621999999997,3612,1779.9642999999999,5,1779.9831999999997,5,10,160,7,1,1.2,0.7,Time
,,681174,001,女,20,2025-06-04_18h57.13.446,Serial_Dependence_U,2023.2.3,Win32,30.030030030027405,,,,,,1779.9836,269,5,1779.9837999999997,269,,,,1783.3426000000002,1783.8297999999998,1782.8383999999999,1783.3426000000002,1780.9923999999999,1782.8383999999999,1783.83,1784.3125,1784.3127999999997,1787.8036,3104,1787.8051999999998,5,1787.8202999999999,5,11,161,15,1,0.8,0.7,Time
,,681174,001,女,20,2025-06-04_18h57.13.446,Serial_Dependence_U,2023.2.3,Win32,30.030030030027405,,,,,,1787.8206,14,5,1787.8209,14,,,,1791.4008999999999,1791.903,1790.8836999999996,1791.4006999999997,1788.8157999999999,1790.8836999999996,1791.9031,1792.3796,1792.3797999999997,1796.3154,3603,1796.3155,5,1796.3337999999999,5,12,162,21,1,1,0.3,Time
,,681174,001,女,20,2025-06-04_18h57.13.446,Serial_Dependence_U,2023.2.3,Win32,30.030030030027405,,,,,,1796.3341,346,5,1796.3341999999998,346,,,,1799.741,1800.2396999999996,1799.2141999999997,1799.7408999999998,1797.3481999999997,1799.2141000000001,1800.24,1800.7214,1800.7216999999996,1804.3213999999998,3206,1804.3222999999998,5,1804.3412999999998,5,13,163,0,1,0.8,0.3,Time
,,681174,001,女,20,2025-06-04_18h57.13.446,Serial_Dependence_U,2023.2.3,Win32,30.030030030027405,,,,,,1804.3416999999997,337,5,1804.3419999999999,337,,,,1808.2912999999999,1808.7749,1807.7896999999996,1808.2911999999997,1805.3458999999998,1807.7896,1808.7751,1809.2746,1809.2746999999997,1813.3875,3738,1813.3887999999997,5,1813.4077999999997,5,14,164,28,1,1.4,0.7,Time
,,681174,001,女,20,2025-06-04_18h57.13.446,Serial_Dependence_U,2023.2.3,Win32,30.030030030027405,,,,,,1813.4082999999998,63,5,1813.4086,63,,,,1817.3927999999999,1817.8867999999998,1816.8916999999997,1817.3926999999996,1814.4243999999999,1816.8916000000002,1817.8867999999998,1818.3786999999998,1818.3791,1822.5384,3816,1822.5386,5,1822.5571999999997,5,15,165,23,1,1.4,0.3,Time
,,681174,001,女,20,2025-06-04_18h57.13.446,Serial_Dependence_U,2023.2.3,Win32,30.030030030027405,,,,,,1822.5575,30,5,1822.5576999999996,30,,,,1826.6086999999998,1827.1007999999997,1826.0946999999996,1826.6086,1823.6031999999998,1826.0946000000001,1827.1007999999997,1827.5979,1827.5981999999997,1831.3051999999998,3346,1831.3055,5,1831.3233999999998,5,16,166,3,1,1.4,0.3,Time
,,681174,001,女,20,2025-06-04_18h57.13.446,Serial_Dependence_U,2023.2.3,Win32,30.030030030027405,,,,,,1831.324,273,5,1831.3241999999998,273,,,,1835.1306999999997,1835.6211999999996,1834.6122999999998,1835.1306,1832.3241999999998,1834.6121999999998,1835.6212999999998,1836.1136000000001,1836.1136000000001,1840.2388999999998,3704,1840.2414999999999,5,1840.2556999999997,5,17,167,12,1,1.2,0.3,Time
,,681174,001,女,20,2025-06-04_18h57.13.446,Serial_Dependence_U,2023.2.3,Win32,30.030030030027405,,,,,,1840.2561999999996,218,5,1840.2564,218,,,,1844.2069999999999,1844.7007999999998,1843.6846999999998,1844.2069,1841.2482999999997,1843.6846,1844.7008999999998,1845.2059,1845.206,1849.1741999999997,3675,1849.1743999999999,5,1849.1937999999998,5,18,168,18,1,1.4,0.7,Time
,,681174,001,女,20,2025-06-04_18h57.13.446,Serial_Dependence_U,2023.2.3,Win32,30.030030030027405,,,,,,1849.1941000000002,302,5,1849.1943999999999,302,,,,1852.6237999999998,1853.1209,1852.0986999999998,1852.6236999999996,1850.2072999999998,1852.0985,1853.1209,1853.6187999999997,1853.6187999999997,1857.1251999999997,3112,1857.1266999999998,5,1857.1438999999998,5,19,169,20,1,0.8,0.3,Time
,,681174,001,女,20,2025-06-04_18h57.13.446,Serial_Dependence_U,2023.2.3,Win32,30.030030030027405,,,,,,1857.1442999999997,260,5,1857.1444999999999,260,,,,1860.703,1861.1941000000002,1860.1743999999999,1860.703,1858.1361999999997,1860.1742999999997,1861.1941999999997,1861.697,1861.6972999999998,1865.3466,3318,1865.3468999999998,5,1865.3666,5,20,170,16,1,1,0.7,Time
,,681174,001,女,20,2025-06-04_18h57.13.446,Serial_Dependence_U,2023.2.3,Win32,30.030030030027405,,,,,,1865.367,348,5,1865.3671999999997,348,,,,1868.7632999999998,1869.2619,1868.2323,1868.7631999999996,1866.3863999999999,1868.2321999999997,1869.2619,1869.7595,1869.7596,1872.9241,2949,1872.9242999999997,5,1872.9375,5,21,171,5,1,0.8,0.7,Time
,,681174,001,女,20,2025-06-04_18h57.13.446,Serial_Dependence_U,2023.2.3,Win32,30.030030030027405,,,,,,1872.9379,350,5,1872.9381,350,,,,1876.7494,1877.2468999999999,1876.2305,1876.7491999999997,1873.9459,1876.2304,1877.2468999999999,1877.7341999999996,1877.7346,1881.267,3048,1881.2675,5,1881.2899,5,22,172,22,1,1.2,0.3,Time
,,681174,001,女,20,2025-06-04_18h57.13.446,Serial_Dependence_U,2023.2.3,Win32,30.030030030027405,,,,,,1881.2903999999999,333,5,1881.2905,333,,,,1884.6841000000002,1885.1798,1884.153,1884.6841000000002,1882.2831,1884.1528999999998,1885.1798999999999,1885.6569,1885.657,1889.0995,3075,1889.0996,5,1889.1171999999997,5,23,173,10,1,0.8,0.3,Time
,,681174,001,女,20,2025-06-04_18h57.13.446,Serial_Dependence_U,2023.2.3,Win32,30.030030030027405,,,,,,1889.1175,10,5,1889.1176999999998,10,,,,1892.7598999999998,1893.2551999999996,1892.24,1892.7597999999998,1890.1482999999998,1892.2398999999998,1893.2552999999998,1893.7557999999997,1893.7557999999997,1897.3745,3108,1897.376,5,1897.3941,5,24,174,1,1,1,0.3,Time
,,681174,001,女,20,2025-06-04_18h57.13.446,Serial_Dependence_U,2023.2.3,Win32,30.030030030027405,,,,,,1897.3942999999997,260,5,1897.3946,260,,,,1901.2101999999998,1901.7159,1900.6881999999996,1901.2101999999998,1898.4126,1900.6881,1901.7159,1902.2137999999998,1902.2143999999998,1906.0113,3338,1906.0125,5,1906.0341,5,25,175,2,1,1.2,0.3,Time
,,681174,001,女,20,2025-06-04_18h57.13.446,Serial_Dependence_U,2023.2.3,Win32,30.030030030027405,,,,,,1906.0343999999998,254,5,1906.0346999999997,254,,,,1909.6752999999999,1910.1846,1909.1426999999996,1909.6751999999997,1907.0506,1909.1426000000001,1910.1846999999998,1910.6871999999996,1910.6875,1914.373,3306,1914.3731999999998,5,1914.3936,5,26,176,11,1,1,0.3,Time
,,681174,001,女,20,2025-06-04_18h57.13.446,Serial_Dependence_U,2023.2.3,Win32,30.030030030027405,,,,,,1914.394,149,5,1914.3941999999997,149,,,,1918.1653999999999,1918.675,1917.6492999999998,1918.1651999999997,1915.3924,1917.6491999999996,1918.6751999999997,1919.167,1919.1671000000001,1922.8991,3372,1922.8996,5,1922.915,5,27,177,27,1,1.2,0.7,Time
,,681174,001,女,20,2025-06-04_18h57.13.446,Serial_Dependence_U,2023.2.3,Win32,30.030030030027405,,,,,,1922.9153999999999,154,5,1922.9156,154,,,,1926.9641999999997,1927.4645,1926.4377999999997,1926.9641000000001,1923.9475,1926.4376999999997,1927.4645,1927.9456999999998,1927.9457999999997,1931.5766999999996,3365,1931.579,5,1931.5961,5,28,178,13,1,1.4,0.3,Time
,,681174,001,女,20,2025-06-04_18h57.13.446,Serial_Dependence_U,2023.2.3,Win32,30.030030030027405,,,,,,1931.5964999999999,42,5,1931.5966999999996,42,,,,1935.7747999999997,1936.2891999999997,1935.272,1935.7746999999997,1932.6058999999998,1935.2719,1936.2891999999997,1936.7831,1936.7831999999996,1940.9712999999997,3557,1940.9714999999999,5,1940.9929,5,29,179,14,1,1.6,0.3,Time
,,681174,001,女,20,2025-06-04_18h57.13.446,Serial_Dependence_U,2023.2.3,Win32,30.030030030027405,,,,,,1940.9932999999999,113,6,2126.026,113,s,184.99019999999973,,2129.6324,2130.1241999999997,2129.1213,2129.6322999999998,2127.0491,2129.1211999999996,2130.1241999999997,2130.6146,2130.6148,2134.5879,3437,2134.5881999999997,5,2134.6023999999998,6,0,180,11,1,1,0.3,Time
,,681174,001,女,20,2025-06-04_18h57.13.446,Serial_Dependence_U,2023.2.3,Win32,30.030030030027405,,,,,,2134.6031999999996,195,6,2134.6055,195,,,,2138.0115,2138.518,2137.4805,2138.0112999999997,2135.6337,2137.4805,2138.5182999999997,2139.0195,2139.0197,2142.2036000000003,3104,2142.204,5,2142.2225,6,1,181,25,1,0.8,0.7,Time
,,681174,001,女,20,2025-06-04_18h57.13.446,Serial_Dependence_U,2023.2.3,Win32,30.030030030027405,,,,,,2142.223,275,6,2142.2232999999997,275,,,,2146.1668,2146.6721000000002,2145.6548,2146.1668,2143.2036999999996,2145.6545,2146.6721000000002,2147.1643999999997,2147.1645,2150.9372999999996,3433,2150.9376999999995,5,2150.9566,6,2,182,28,1,1.4,0.7,Time
,,681174,001,女,20,2025-06-04_18h57.13.446,Serial_Dependence_U,2023.2.3,Win32,30.030030030027405,,,,,,2150.9568999999997,120,6,2150.9571,120,,,,2154.7046,2155.1976999999997,2154.2031999999995,2154.7046,2151.9536000000003,2154.2031,2155.198,2155.6856999999995,2155.6856999999995,2159.0311,3142,2159.0312999999996,5,2159.0511,6,3,183,17,1,1.2,0.7,Time
,,681174,001,女,20,2025-06-04_18h57.13.446,Serial_Dependence_U,2023.2.3,Win32,30.030030030027405,,,,,,2159.0515,76,6,2159.0516999999995,76,,,,2162.8905,2163.3902999999996,2162.3684,2162.8902999999996,2160.0811,2162.3684,2163.3902999999996,2163.8837,2163.8837,2167.2616000000003,2921,2167.2616999999996,5,2167.2791,6,4,184,12,1,1.2,0.3,Time
,,681174,001,女,20,2025-06-04_18h57.13.446,Serial_Dependence_U,2023.2.3,Win32,30.030030030027405,,,,,,2167.2795,34,6,2167.2796999999996,34,,,,2171.3231,2171.8161999999998,2170.7934999999998,2171.323,2168.3131,2170.7934,2171.8163999999997,2172.2942999999996,2172.2943999999998,2176.1562,3409,2176.1564,5,2176.1745,6,5,185,13,1,1.4,0.3,Time
,,681174,001,女,20,2025-06-04_18h57.13.446,Serial_Dependence_U,2023.2.3,Win32,30.030030030027405,,,,,,2176.1748,198,6,2176.175,198,,,,2180.3711999999996,2180.8536999999997,2179.8459,2180.3711,2177.1974,2179.8457999999996,2180.8538,2181.3466999999996,2181.3466999999996,2185.6141999999995,3978,2185.6166999999996,5,2185.6376,6,6,186,19,1,1.6,0.7,Time
,,681174,001,女,20,2025-06-04_18h57.13.446,Serial_Dependence_U,2023.2.3,Win32,30.030030030027405,,,,,,2185.6382,169,6,2185.6386,169,,,,2189.2536,2189.7575,2188.7266,2189.2535,2186.6421,2188.7264,2189.7576,2190.2469,2190.2471,2193.9576,3337,2193.9585,5,2193.9744,6,7,187,21,1,1,0.3,Time
,,681174,001,女,20,2025-06-04_18h57.13.446,Serial_Dependence_U,2023.2.3,Win32,30.030030030027405,,,,,,2193.9748999999997,142,6,2193.9751,142,,,,2197.5326999999997,2198.0411999999997,2197.0321,2197.5326999999997,2194.9665,2197.032,2198.0418,2198.5211,2198.5211,2201.7798,2961,2201.7819,5,2201.7966,6,8,188,1,1,1,0.3,Time
,,681174,001,女,20,2025-06-04_18h57.13.446,Serial_Dependence_U,2023.2.3,Win32,30.030030030027405,,,,,,2201.7969,91,6,2201.7971000000002,91,,,,2205.2077999999997,2205.6908,2204.6758,2205.2076999999995,2202.7916,2204.6757,2205.6909,2206.2081999999996,2206.2081999999996,2209.767,3124,2209.7672,5,2209.7853,6,9,189,0,1,0.8,0.3,Time
,,681174,001,女,20,2025-06-04_18h57.13.446,Serial_Dependence_U,2023.2.3,Win32,30.030030030027405,,,,,,2209.7857999999997,103,6,2209.7869,103,,,,2213.7708,2214.2599999999998,2213.255,2213.7706999999996,2210.7941,2213.2544,2214.2601,2214.7482999999997,2214.7486,2218.2468,3071,2218.247,5,2218.2677999999996,6,10,190,18,1,1.4,0.7,Time
,,681174,001,女,20,2025-06-04_18h57.13.446,Serial_Dependence_U,2023.2.3,Win32,30.030030030027405,,,,,,2218.2682999999997,297,6,2218.2684,297,,,,2222.4772,2222.9741999999997,2221.9551,2222.4771,2219.2936999999997,2221.955,2222.9741999999997,2223.4646000000002,2223.4646999999995,2227.5166999999997,3650,2227.5169,5,2227.536,6,11,191,29,1,1.6,0.7,Time
,,681174,001,女,20,2025-06-04_18h57.13.446,Serial_Dependence_U,2023.2.3,Win32,30.030030030027405,,,,,,2227.5364,274,6,2227.5365,274,,,,2231.3541999999998,2231.8502,2230.826,2231.3541,2228.5688999999998,2230.826,2231.8502,2232.3531000000003,2232.3531000000003,2236.0478,3351,2236.0481,5,2236.07,6,12,192,7,1,1.2,0.7,Time
,,681174,001,女,20,2025-06-04_18h57.13.446,Serial_Dependence_U,2023.2.3,Win32,30.030030030027405,,,,,,2236.0704,36,6,2236.0706999999998,36,,,,2240.2736999999997,2240.7808999999997,2239.7589,2240.2736,2237.0687,2239.7589,2240.7811,2241.2651,2241.2653999999998,2245.3527,3879,2245.3543999999997,5,2245.3756,6,13,193,24,1,1.6,0.3,Time
,,681174,001,女,20,2025-06-04_18h57.13.446,Serial_Dependence_U,2023.2.3,Win32,30.030030030027405,,,,,,2245.3759999999997,112,6,2245.3763,112,,,,2248.803,2249.293,2248.2765,2248.8028999999997,2246.4074,2248.2765,2249.2931,2249.7866,2249.7866999999997,2253.6931999999997,3480,2253.6937,5,2253.7121999999995,6,14,194,10,1,0.8,0.3,Time
,,681174,001,女,20,2025-06-04_18h57.13.446,Serial_Dependence_U,2023.2.3,Win32,30.030030030027405,,,,,,2253.7126999999996,309,6,2253.7129,309,,,,2257.9211,2258.4216,2257.3991,2257.921,2254.7509,2257.399,2258.4219,2258.9143,2258.9143999999997,2263.2497,4042,2263.2499,5,2263.2721,6,15,195,9,1,1.6,0.7,Time
,,681174,001,女,20,2025-06-04_18h57.13.446,Serial_Dependence_U,2023.2.3,Win32,30.030030030027405,,,,,,2263.2725,10,6,2263.2726999999995,10,,,,2266.6688,2267.187,2266.1645,2266.6688,2264.3098,2266.1645,2267.1871,2267.6753,2267.6756,2271.2738999999997,3095,2271.2749,5,2271.2906999999996,6,16,196,5,1,0.8,0.7,Time
,,681174,001,女,20,2025-06-04_18h57.13.446,Serial_Dependence_U,2023.2.3,Win32,30.030030030027405,,,,,,2271.2911,21,6,2271.2913000000003,21,,,,2274.8596000000002,2275.3349,2274.3399,2274.8594999999996,2272.2833,2274.3398,2275.3349,2275.8274999999994,2275.8278,2279.4956,3269,2279.4958,5,2279.5128999999997,6,17,197,26,1,1,0.7,Time
,,681174,001,女,20,2025-06-04_18h57.13.446,Serial_Dependence_U,2023.2.3,Win32,30.030030030027405,,,,,,2279.5134,279,6,2279.5138,279,,,,2283.5434,2284.0488,2283.0294999999996,2283.5434,2280.5418999999997,2283.0294,2284.0489,2284.5422,2284.5423,2288.5029999999997,3556,2288.5051,5,2288.5201,6,18,198,3,1,1.4,0.3,Time
,,681174,001,女,20,2025-06-04_18h57.13.446,Serial_Dependence_U,2023.2.3,Win32,30.030030030027405,,,,,,2288.5214999999994,43,6,2288.5218000000004,43,,,,2292.7299,2293.2299,2292.2001,2292.7297,2289.5194999999994,2292.1999999999994,2293.2299999999996,2293.7294999999995,2293.7294999999995,2297.6421,3536,2297.6423999999997,5,2297.6656999999996,6,19,199,4,1,1.6,0.3,Time
,,681174,001,女,20,2025-06-04_18h57.13.446,Serial_Dependence_U,2023.2.3,Win32,30.030030030027405,,,,,,2297.6661999999997,123,6,2297.6664,123,,,,2301.2273000000005,2301.7214,2300.7141,2301.2272,2298.6709999999994,2300.7138999999997,2301.7216,2302.2199999999993,2302.2201,2305.9429999999993,3306,2305.9431999999997,5,2305.9641,6,20,200,6,1,1,0.7,Time
,,681174,001,女,20,2025-06-04_18h57.13.446,Serial_Dependence_U,2023.2.3,Win32,30.030030030027405,,,,,,2305.9646000000002,313,6,2305.9648,313,,,,2309.9564,2310.4588000000003,2309.4471999999996,2309.9563000000003,2306.9983,2309.4471,2310.4589999999994,2310.9592,2310.9593999999997,2314.7924,3497,2314.7934999999993,5,2314.8097,6,21,201,8,1,1.4,0.7,Time
,,681174,001,女,20,2025-06-04_18h57.13.446,Serial_Dependence_U,2023.2.3,Win32,30.030030030027405,,,,,,2314.8098999999997,11,6,2314.8101,11,,,,2319.0076999999997,2319.4953,2318.5064999999995,2319.0076,2315.8288000000002,2318.5063999999998,2319.4954999999995,2320.0068,2320.0069,2323.7349999999997,3539,2323.7353000000003,5,2323.7562,6,22,202,14,1,1.6,0.3,Time
,,681174,001,女,20,2025-06-04_18h57.13.446,Serial_Dependence_U,2023.2.3,Win32,30.030030030027405,,,,,,2323.7567,164,6,2323.7569,164,,,,2327.7469,2328.2607,2327.2273000000005,2327.7469,2324.7616000000003,2327.2272,2328.2608000000005,2328.7689999999993,2328.7691999999997,2332.7382,3587,2332.7383999999997,5,2332.7583999999997,6,23,203,23,1,1.4,0.3,Time
,,681174,001,女,20,2025-06-04_18h57.13.446,Serial_Dependence_U,2023.2.3,Win32,30.030030030027405,,,,,,2332.7588,247,6,2332.7589999999996,247,,,,2336.5866,2337.0771999999997,2336.0538,2336.5863000000004,2333.7638,2336.0536999999995,2337.0773000000004,2337.5544,2337.5544999999993,2341.5559,3634,2341.5561999999995,5,2341.5723000000003,6,24,204,2,1,1.2,0.3,Time
,,681174,001,女,20,2025-06-04_18h57.13.446,Serial_Dependence_U,2023.2.3,Win32,30.030030030027405,,,,,,2341.5726999999997,190,6,2341.5728999999997,190,,,,2345.3629999999994,2345.8586,2344.8374,2345.3629,2342.5578,2344.8371999999995,2345.8586999999998,2346.3628000000003,2346.3629999999994,2350.4361999999996,3683,2350.4384999999993,5,2350.4576999999995,6,25,205,22,1,1.2,0.3,Time
,,681174,001,女,20,2025-06-04_18h57.13.446,Serial_Dependence_U,2023.2.3,Win32,30.030030030027405,,,,,,2350.4579999999996,331,6,2350.4583000000002,331,,,,2354.2294999999995,2354.7326000000003,2353.7052,2354.2293000000004,2351.4568999999997,2353.7051,2354.7328,2355.2439999999997,2355.2441,2359.1639,3646,2359.1663000000003,5,2359.1851,6,26,206,27,1,1.2,0.7,Time
,,681174,001,女,20,2025-06-04_18h57.13.446,Serial_Dependence_U,2023.2.3,Win32,30.030030030027405,,,,,,2359.1858,36,6,2359.1861,36,,,,2362.5822,2363.0669999999996,2362.0624,2362.5821,2360.2093000000004,2362.0622,2363.0669999999996,2363.5703000000003,2363.5708000000004,2367.0284999999994,3036,2367.0288,5,2367.0466,6,27,207,15,1,0.8,0.7,Time
,,681174,001,女,20,2025-06-04_18h57.13.446,Serial_Dependence_U,2023.2.3,Win32,30.030030030027405,,,,,,2367.0469,205,6,2367.0471000000002,205,,,,2370.4584,2370.9394999999995,2369.9321,2370.4583000000002,2368.0541999999996,2369.9321,2370.9396,2371.4302,2371.4302,2374.9977,3113,2374.9989999999993,5,2375.0184999999997,6,28,208,20,1,0.8,0.3,Time
,,681174,001,女,20,2025-06-04_18h57.13.446,Serial_Dependence_U,2023.2.3,Win32,30.030030030027405,,,,,,2375.0189,78,6,2375.0191999999997,78,,,,2378.6009999999997,2379.1118,2378.0726999999997,2378.6008,2376.0348999999997,2378.0726,2379.1118,2379.6068999999998,2379.6069999999995,2382.8129,2956,2382.8131,5,2382.8339999999994,6,29,209,16,1,1,0.7,Time
,,681174,001,女,20,2025-06-04_18h57.13.446,Serial_Dependence_U,2023.2.3,Win32,30.030030030027405,,,,,,2382.8343000000004,258,7,2479.4334999999996,258,s,96.55470000000014,,2483.2591,2483.7554999999993,2482.7249999999995,2483.2589999999996,2480.4501999999998,2482.7248000000004,2483.7556,2484.2538999999997,2484.2541,2488.2534999999993,3626,2488.2541,5,2488.2708000000002,7,0,210,22,1,1.2,0.3,Time
,,681174,001,女,20,2025-06-04_18h57.13.446,Serial_Dependence_U,2023.2.3,Win32,30.030030030027405,,,,,,2488.2714,268,7,2488.2726000000002,268,,,,2492.0736,2492.5552,2491.5474,2492.0734999999995,2489.2734,2491.5474,2492.5553000000004,2493.0443999999998,2493.0444999999995,2496.7498,3365,2496.7514,5,2496.7704,7,1,211,2,1,1.2,0.3,Time
,,681174,001,女,20,2025-06-04_18h57.13.446,Serial_Dependence_U,2023.2.3,Win32,30.030030030027405,,,,,,2496.7708000000002,160,7,2496.7709999999997,160,,,,2501.0206999999996,2501.5109999999995,2500.4831999999997,2501.0206000000003,2497.7839999999997,2500.4826000000003,2501.5111,2501.9866,2501.9866999999995,2506.1137,3796,2506.1139,5,2506.1316,7,2,212,4,1,1.6,0.3,Time
,,681174,001,女,20,2025-06-04_18h57.13.446,Serial_Dependence_U,2023.2.3,Win32,30.030030030027405,,,,,,2506.1319,293,7,2506.1321000000003,293,,,,2510.1341,2510.6436,2509.6284999999993,2510.1339999999996,2507.1434,2509.6284,2510.6436999999996,2511.1358999999998,2511.1359999999995,2515.0969999999993,3551,2515.0971,5,2515.1153000000004,7,3,213,23,1,1.4,0.3,Time
,,681174,001,女,20,2025-06-04_18h57.13.446,Serial_Dependence_U,2023.2.3,Win32,30.030030030027405,,,,,,2515.1156,235,7,2515.1158,235,,,,2518.7033,2519.2134,2518.1757,2518.7031999999995,2516.1143,2518.1756,2519.2136,2519.7133000000003,2519.7134,2523.4229,3267,2523.4251,5,2523.4414999999995,7,4,214,26,1,1,0.7,Time
,,681174,001,女,20,2025-06-04_18h57.13.446,Serial_Dependence_U,2023.2.3,Win32,30.030030030027405,,,,,,2523.4419,284,7,2523.4421,284,,,,2527.0491,2527.5244999999995,2526.5222,2527.0489,2524.4644,2526.5221,2527.5246,2528.0066,2528.0067,2531.4764,3294,2531.4778,5,2531.4986999999996,7,5,215,16,1,1,0.7,Time
,,681174,001,女,20,2025-06-04_18h57.13.446,Serial_Dependence_U,2023.2.3,Win32,30.030030030027405,,,,,,2531.4991,262,7,2531.4993000000004,262,,,,2535.1364,2535.6359999999995,2534.6198999999997,2535.1363,2532.5267,2534.6198000000004,2535.6359999999995,2536.1429,2536.1431999999995,2539.7073,3267,2539.7074999999995,5,2539.7253,7,6,216,1,1,1,0.3,Time
,,681174,001,女,20,2025-06-04_18h57.13.446,Serial_Dependence_U,2023.2.3,Win32,30.030030030027405,,,,,,2539.7256999999995,313,7,2539.7258,313,,,,2543.4821,2543.9634999999994,2542.9734,2543.4819999999995,2540.7223000000004,2542.9733,2543.9636,2544.4554,2544.4556000000002,2548.2499999999995,3438,2548.2509999999993,5,2548.2676,7,7,217,7,1,1.2,0.7,Time
,,681174,001,女,20,2025-06-04_18h57.13.446,Serial_Dependence_U,2023.2.3,Win32,30.030030030027405,,,,,,2548.2691,150,7,2548.2693000000004,150,,,,2552.3931000000002,2552.8961999999997,2551.8881,2552.3929999999996,2549.2549,2551.8878999999997,2552.8961999999997,2553.4004999999993,2553.4006,2557.2859999999996,3626,2557.2861999999996,5,2557.3036,7,8,218,29,1,1.6,0.7,Time
,,681174,001,女,20,2025-06-04_18h57.13.446,Serial_Dependence_U,2023.2.3,Win32,30.030030030027405,,,,,,2557.3039,344,7,2557.3039999999996,344,,,,2561.2859,2561.7698,2560.7669,2561.2857,2558.3269,2560.7668000000003,2561.7701,2562.2474999999995,2562.2474999999995,2565.9624999999996,3639,2565.9628000000002,5,2565.9831,7,9,219,28,1,1.4,0.7,Time
,,681174,001,女,20,2025-06-04_18h57.13.446,Serial_Dependence_U,2023.2.3,Win32,30.030030030027405,,,,,,2565.9834999999994,188,7,2565.9836,188,,,,2569.4364,2569.9172,2568.9074999999993,2569.4364,2567.0184999999997,2568.9074,2569.9172,2570.4274999999993,2570.4276999999997,2573.8857,3034,2573.8858999999998,5,2573.9051999999997,7,10,220,20,1,0.8,0.3,Time
,,681174,001,女,20,2025-06-04_18h57.13.446,Serial_Dependence_U,2023.2.3,Win32,30.030030030027405,,,,,,2573.9054999999994,159,7,2573.9056,159,,,,2577.9076,2578.3991,2577.3844999999997,2577.9074999999993,2574.9216,2577.3844,2578.3992,2578.9068,2578.9069,2582.7093999999997,3563,2582.7113000000004,5,2582.7291,7,11,221,18,1,1.4,0.7,Time
,,681174,001,女,20,2025-06-04_18h57.13.446,Serial_Dependence_U,2023.2.3,Win32,30.030030030027405,,,,,,2582.7293999999997,125,7,2582.7296,125,,,,2586.6661999999997,2587.1596999999997,2586.1591,2586.6661,2583.7201,2586.1589999999997,2587.1598000000004,2587.6496999999995,2587.6499999999996,2591.3468000000003,3448,2591.3469999999993,5,2591.3681,7,12,222,8,1,1.4,0.7,Time
,,681174,001,女,20,2025-06-04_18h57.13.446,Serial_Dependence_U,2023.2.3,Win32,30.030030030027405,,,,,,2591.3684999999996,342,7,2591.3686999999995,342,,,,2594.7798000000003,2595.2731999999996,2594.2718999999997,2594.7796999999996,2592.3988999999997,2594.2718999999997,2595.2731999999996,2595.7596,2595.7596999999996,2599.1024999999995,3038,2599.1036,5,2599.1211,7,13,223,0,1,0.8,0.3,Time
,,681174,001,女,20,2025-06-04_18h57.13.446,Serial_Dependence_U,2023.2.3,Win32,30.030030030027405,,,,,,2599.1214999999993,80,7,2599.1216,80,,,,2602.4924,2602.9766,2601.9734999999996,2602.4924,2600.1319,2601.9734,2602.9766999999997,2603.4748000000004,2603.4751,2606.8504,2979,2606.8526,5,2606.8703,7,14,224,15,1,0.8,0.7,Time
,,681174,001,女,20,2025-06-04_18h57.13.446,Serial_Dependence_U,2023.2.3,Win32,30.030030030027405,,,,,,2606.8708,14,7,2606.8711,14,,,,2610.4753,2610.9676999999997,2609.9584,2610.4752,2607.8841999999995,2609.9583000000002,2610.9676999999997,2611.4618,2611.4619,2614.8412,3139,2614.8414,5,2614.8596000000002,7,15,225,11,1,1,0.3,Time
,,681174,001,女,20,2025-06-04_18h57.13.446,Serial_Dependence_U,2023.2.3,Win32,30.030030030027405,,,,,,2614.8601,88,7,2614.8603000000003,88,,,,2618.6513999999997,2619.1443000000004,2618.1423999999997,2618.6513000000004,2615.8868,2618.1423000000004,2619.1443000000004,2619.6474999999996,2619.6478,2623.3849999999993,3255,2623.3851,5,2623.4033000000004,7,16,226,27,1,1.2,0.7,Time
,,681174,001,女,20,2025-06-04_18h57.13.446,Serial_Dependence_U,2023.2.3,Win32,30.030030030027405,,,,,,2623.4038,19,7,2623.4039999999995,19,,,,2626.8046999999997,2627.2918999999997,2626.2813,2626.8046,2624.4094999999993,2626.2812,2627.2919999999995,2627.7691999999997,2627.7694999999994,2631.2104999999997,3080,2631.2134,5,2631.2296,7,17,227,10,1,0.8,0.3,Time
,,681174,001,女,20,2025-06-04_18h57.13.446,Serial_Dependence_U,2023.2.3,Win32,30.030030030027405,,,,,,2631.2299,359,7,2631.2301,359,,,,2635.2321,2635.7196999999996,2634.7028,2635.2321,2632.2241999999997,2634.7027,2635.7199999999993,2636.2021999999997,2636.2024999999994,2639.9868,3619,2639.9883000000004,5,2640.0081999999998,7,18,228,3,1,1.4,0.3,Time
,,681174,001,女,20,2025-06-04_18h57.13.446,Serial_Dependence_U,2023.2.3,Win32,30.030030030027405,,,,,,2640.0096,112,7,2640.0098000000003,112,,,,2644.2043000000003,2644.7162,2643.6743,2644.2041,2641.0016,2643.6741999999995,2644.7162,2645.2061,2645.2063000000003,2649.3529,3896,2649.3531999999996,5,2649.3696999999997,7,19,229,14,1,1.6,0.3,Time
,,681174,001,女,20,2025-06-04_18h57.13.446,Serial_Dependence_U,2023.2.3,Win32,30.030030030027405,,,,,,2649.3701,199,7,2649.3703,199,,,,2652.7831,2653.2799,2652.2587,2652.7829999999994,2650.3993,2652.2586,2653.2801,2653.7691,2653.7694999999994,2657.1749999999997,3040,2657.1751999999997,5,2657.1951999999997,7,20,230,25,1,0.8,0.7,Time
,,681174,001,女,20,2025-06-04_18h57.13.446,Serial_Dependence_U,2023.2.3,Win32,30.030030030027405,,,,,,2657.1956999999998,97,7,2657.1958000000004,97,,,,2661.3956999999996,2661.8923000000004,2660.8699999999994,2661.3956000000003,2658.1973000000003,2660.8698999999997,2661.8923000000004,2662.3819,2662.3819,2666.7041,4050,2666.7064,5,2666.7216,7,21,231,24,1,1.6,0.3,Time
,,681174,001,女,20,2025-06-04_18h57.13.446,Serial_Dependence_U,2023.2.3,Win32,30.030030030027405,,,,,,2666.7219,37,7,2666.7221999999997,37,,,,2670.3309,2670.8193,2669.8266999999996,2670.3306999999995,2667.7387,2669.8266,2670.8194,2671.3119999999994,2671.3119999999994,2675.2726000000002,3550,2675.2748,5,2675.2901,7,22,232,21,1,1,0.3,Time
,,681174,001,女,20,2025-06-04_18h57.13.446,Serial_Dependence_U,2023.2.3,Win32,30.030030030027405,,,,,,2675.2913000000003,332,7,2675.2914999999994,332,,,,2679.4473000000003,2679.9547,2678.9384999999993,2679.4473000000003,2676.3046,2678.9384,2679.9548000000004,2680.4496999999997,2680.4496999999997,2684.3586,3511,2684.3603000000003,5,2684.3783000000003,7,23,233,19,1,1.6,0.7,Time
,,681174,001,女,20,2025-06-04_18h57.13.446,Serial_Dependence_U,2023.2.3,Win32,30.030030030027405,,,,,,2684.3789999999995,131,7,2684.3792,131,,,,2687.7459999999996,2688.2326000000003,2687.2394999999997,2687.7459,2685.3779,2687.2393,2688.2326000000003,2688.6956,2688.6956999999998,2692.4068,3293,2692.4071,5,2692.4224999999997,7,24,234,5,1,0.8,0.7,Time
,,681174,001,女,20,2025-06-04_18h57.13.446,Serial_Dependence_U,2023.2.3,Win32,30.030030030027405,,,,,,2692.4229,69,7,2692.4229999999993,69,,,,2696.4016,2696.9246000000003,2695.8864999999996,2696.4016,2693.4172,2695.8864,2696.9246999999996,2697.4057,2697.4057,2701.3291,3519,2701.3293000000003,5,2701.3473000000004,7,25,235,13,1,1.4,0.3,Time
,,681174,001,女,20,2025-06-04_18h57.13.446,Serial_Dependence_U,2023.2.3,Win32,30.030030030027405,,,,,,2701.3477,156,7,2701.3478000000005,156,,,,2705.5381,2706.0428,2705.0236,2705.5379999999996,2702.3719999999994,2705.0234999999993,2706.0429,2706.5334999999995,2706.5334999999995,2710.3866999999996,3654,2710.3876999999998,5,2710.4033000000004,7,26,236,9,1,1.6,0.7,Time
,,681174,001,女,20,2025-06-04_18h57.13.446,Serial_Dependence_U,2023.2.3,Win32,30.030030030027405,,,,,,2710.4037,183,7,2710.4039,183,,,,2714.2047,2714.7184999999995,2713.6814999999997,2714.2044999999994,2711.4034999999994,2713.6814999999997,2714.7188,2715.2068999999997,2715.2069999999994,2719.3116,3687,2719.3118999999997,5,2719.3347,7,27,237,12,1,1.2,0.3,Time
,,681174,001,女,20,2025-06-04_18h57.13.446,Serial_Dependence_U,2023.2.3,Win32,30.030030030027405,,,,,,2719.3349999999996,228,7,2719.3351999999995,228,,,,2722.9194999999995,2723.4206999999997,2722.4119,2722.9193999999998,2720.3518000000004,2722.4118000000003,2723.4209999999994,2723.9102,2723.9103000000005,2727.5911,3363,2727.5919999999996,5,2727.6096999999995,7,28,238,6,1,1,0.7,Time
,,681174,001,女,20,2025-06-04_18h57.13.446,Serial_Dependence_U,2023.2.3,Win32,30.030030030027405,,,,,,2727.6099999999997,48,7,2727.6101999999996,48,,,,2731.3966,2731.8959,2730.8749999999995,2731.3966,2728.6238000000003,2730.8749,2731.8959999999997,2732.3999999999996,2732.4001,2735.9687,3408,2735.9689999999996,5,2735.9888,7,29,239,17,1,1.2,0.7,Time
,,681174,001,女,20,2025-06-04_18h57.13.446,Serial_Dependence_U,2023.2.3,Win32,30.030030030027405,,,,,,2735.9891999999995,82,8,2814.7624,82,s,78.73019999999997,,2818.1713999999997,2818.6758999999997,2817.6416,2818.1711999999998,2815.7587,2817.6414999999997,2818.6758999999997,2819.1858,2819.1859999999997,2822.7706999999996,3214,2822.7709,5,2822.7859,8,0,240,20,1,0.8,0.3,Time
,,681174,001,女,20,2025-06-04_18h57.13.446,Serial_Dependence_U,2023.2.3,Win32,30.030030030027405,,,,,,2822.7863,144,8,2822.7873999999997,144,,,,2826.5939,2827.0861,2826.0679,2826.5938,2823.8018,2826.0676999999996,2827.0863000000004,2827.5819999999994,2827.5821,2831.3781999999997,3416,2831.3784999999993,5,2831.3929999999996,8,1,241,22,1,1.2,0.3,Time
,,681174,001,女,20,2025-06-04_18h57.13.446,Serial_Dependence_U,2023.2.3,Win32,30.030030030027405,,,,,,2831.3933,75,8,2831.3934999999997,75,,,,2835.3736,2835.8846,2834.8629,2835.3734,2832.4071,2834.8628000000003,2835.8846,2836.4013000000004,2836.4013999999997,2840.5611,3829,2840.5613000000003,5,2840.5796,8,2,242,28,1,1.4,0.7,Time
,,681174,001,女,20,2025-06-04_18h57.13.446,Serial_Dependence_U,2023.2.3,Win32,30.030030030027405,,,,,,2840.5799999999995,289,8,2840.5802,289,,,,2844.7539999999995,2845.2373000000002,2844.2289999999994,2844.7538999999997,2841.5746,2844.2289,2845.2374999999997,2845.7354,2845.7354,2849.8099999999995,3720,2849.8103,5,2849.8241999999996,8,3,243,9,1,1.6,0.7,Time
,,681174,001,女,20,2025-06-04_18h57.13.446,Serial_Dependence_U,2023.2.3,Win32,30.030030030027405,,,,,,2849.8244999999997,62,8,2849.8249,62,,,,2853.8192,2854.3249,2853.2998000000002,2853.8191,2850.8276,2853.2996999999996,2854.3249999999994,2854.8057,2854.8057,2858.7074,3733,2858.7086,5,2858.7286999999997,8,4,244,13,1,1.4,0.3,Time
,,681174,001,女,20,2025-06-04_18h57.13.446,Serial_Dependence_U,2023.2.3,Win32,30.030030030027405,,,,,,2858.7289999999994,106,8,2858.7291999999998,106,,,,2862.0919999999996,2862.5941000000003,2861.5887,2862.0919,2859.7424,2861.5886,2862.5941000000003,2863.1024999999995,2863.1026,2866.5176,3328,2866.5177,5,2866.5319,8,5,245,5,1,0.8,0.7,Time
,,681174,001,女,20,2025-06-04_18h57.13.446,Serial_Dependence_U,2023.2.3,Win32,30.030030030027405,,,,,,2866.5323000000003,3,8,2866.5324999999993,3,,,,2869.9438000000005,2870.4344999999994,2869.4176,2869.9437,2867.5474999999997,2869.4174999999996,2870.4352,2870.9282,2870.9282,2874.2728,3289,2874.2729999999997,5,2874.2913000000003,8,6,246,10,1,0.8,0.3,Time
,,681174,001,女,20,2025-06-04_18h57.13.446,Serial_Dependence_U,2023.2.3,Win32,30.030030030027405,,,,,,2874.2918000000004,114,8,2874.2921,114,,,,2878.3139999999994,2878.7949999999996,2877.7934,2878.3138000000004,2875.3158000000003,2877.7933000000003,2878.7949999999996,2879.3028000000004,2879.3028999999997,2883.1048,3415,2883.1049,5,2883.1246,8,7,247,3,1,1.4,0.3,Time
,,681174,001,女,20,2025-06-04_18h57.13.446,Serial_Dependence_U,2023.2.3,Win32,30.030030030027405,,,,,,2883.1249,133,8,2883.1249999999995,133,,,,2887.1234999999997,2887.5973000000004,2886.5954999999994,2887.1234,2884.1357,2886.5953999999997,2887.5973999999997,2888.0898,2888.0899,2891.7749999999996,3227,2891.7753000000002,5,2891.7971999999995,8,8,248,18,1,1.4,0.7,Time
,,681174,001,女,20,2025-06-04_18h57.13.446,Serial_Dependence_U,2023.2.3,Win32,30.030030030027405,,,,,,2891.7976999999996,104,8,2891.7979,104,,,,2896.0236,2896.5011,2895.5004999999996,2896.0234999999993,2892.8174999999997,2895.5004,2896.5013000000004,2896.9941,2896.9941999999996,2900.2819999999997,2796,2900.2839,5,2900.3004,8,9,249,4,1,1.6,0.3,Time
,,681174,001,女,20,2025-06-04_18h57.13.446,Serial_Dependence_U,2023.2.3,Win32,30.030030030027405,,,,,,2900.3007,16,8,2900.3009999999995,16,,,,2903.6968,2904.1731999999997,2903.1953000000003,2903.6968,2901.3266,2903.1953000000003,2904.1733000000004,2904.6501999999996,2904.6504999999993,2908.3508,3254,2908.3536,5,2908.3706999999995,8,10,250,0,1,0.8,0.3,Time
,,681174,001,女,20,2025-06-04_18h57.13.446,Serial_Dependence_U,2023.2.3,Win32,30.030030030027405,,,,,,2908.3711,142,8,2908.3711999999996,142,,,,2911.9161,2912.3934,2911.4021999999995,2911.9161,2909.3639999999996,2911.4021000000002,2912.3934999999997,2912.8838,2912.8838,2916.9849999999997,3439,2916.9851999999996,5,2917.0036,8,11,251,16,1,1,0.7,Time
,,681174,001,女,20,2025-06-04_18h57.13.446,Serial_Dependence_U,2023.2.3,Win32,30.030030030027405,,,,,,2917.0038999999997,203,8,2917.0041,203,,,,2920.7904,2921.2771000000002,2920.2612,2920.7904,2918.0003,2920.2611,2921.2771999999995,2921.7828999999997,2921.7828999999997,2925.6283000000003,3369,2925.6298,5,2925.6473,8,12,252,27,1,1.2,0.7,Time
,,681174,001,女,20,2025-06-04_18h57.13.446,Serial_Dependence_U,2023.2.3,Win32,30.030030030027405,,,,,,2925.6476000000002,243,8,2925.6479,243,,,,2929.2383000000004,2929.7324,2928.7144,2929.2382,2926.6443000000004,2928.7142,2929.7326000000003,2930.2246999999998,2930.2248000000004,2933.9521,3337,2933.9548999999997,5,2933.9728999999998,8,13,253,21,1,1,0.3,Time
,,681174,001,女,20,2025-06-04_18h57.13.446,Serial_Dependence_U,2023.2.3,Win32,30.030030030027405,,,,,,2933.9733,150,8,2933.9734999999996,150,,,,2937.5168000000003,2938.0139999999997,2937.0119999999997,2937.5168000000003,2934.9797,2937.0118,2938.0139999999997,2938.5217,2938.5218000000004,2942.2121999999995,3278,2942.2123,5,2942.2294999999995,8,14,254,6,1,1,0.7,Time
,,681174,001,女,20,2025-06-04_18h57.13.446,Serial_Dependence_U,2023.2.3,Win32,30.030030030027405,,,,,,2942.2299,203,8,2942.2301,203,,,,2945.6182,2946.1061999999997,2945.0801,2945.6181,2943.2466,2945.0801,2946.1063000000004,2946.6019999999994,2946.6019999999994,2949.7324,2941,2949.7324999999996,5,2949.7471,8,15,255,25,1,0.8,0.7,Time
,,681174,001,女,20,2025-06-04_18h57.13.446,Serial_Dependence_U,2023.2.3,Win32,30.030030030027405,,,,,,2949.7477,169,8,2949.7479,169,,,,2953.9099999999994,2954.4093000000003,2953.3903,2953.9098999999997,2950.7448999999997,2953.3902,2954.4093000000003,2954.9071,2954.9073000000003,2958.6203,3350,2958.6218000000003,5,2958.6431999999995,8,16,256,19,1,1.6,0.7,Time
,,681174,001,女,20,2025-06-04_18h57.13.446,Serial_Dependence_U,2023.2.3,Win32,30.030030030027405,,,,,,2958.6436999999996,208,8,2958.6439,208,,,,2962.4121999999998,2962.9269,2961.8946,2962.4121999999998,2959.6494999999995,2961.8944999999994,2962.9269,2963.4394999999995,2963.4396,2967.4484999999995,3428,2967.4511,5,2967.4642,8,17,257,7,1,1.2,0.7,Time
,,681174,001,女,20,2025-06-04_18h57.13.446,Serial_Dependence_U,2023.2.3,Win32,30.030030030027405,,,,,,2967.4646999999995,207,8,2967.4649,207,,,,2971.2343,2971.7269999999994,2970.7318000000005,2971.2343,2968.4861,2970.7317,2971.7269999999994,2972.2106,2972.2106999999996,2975.9454999999994,3272,2975.9463,5,2975.9666999999995,8,18,258,17,1,1.2,0.7,Time
,,681174,001,女,20,2025-06-04_18h57.13.446,Serial_Dependence_U,2023.2.3,Win32,30.030030030027405,,,,,,2975.9671999999996,97,8,2975.9674,97,,,,2979.5731,2980.0548000000003,2979.0564999999997,2979.5728999999997,2976.9661,2979.0564,2980.0549,2980.5474,2980.5474,2984.2656999999995,3295,2984.2659999999996,5,2984.2821,8,19,259,1,1,1,0.3,Time
,,681174,001,女,20,2025-06-04_18h57.13.446,Serial_Dependence_U,2023.2.3,Win32,30.030030030027405,,,,,,2984.2826,42,8,2984.2828000000004,42,,,,2987.8853000000004,2988.3839999999996,2987.3593,2987.8851999999997,2985.2942,2987.3593,2988.3839999999996,2988.8671,2988.8671,2992.5094,3205,2992.5098000000003,5,2992.5259999999994,8,20,260,11,1,1,0.3,Time
,,681174,001,女,20,2025-06-04_18h57.13.446,Serial_Dependence_U,2023.2.3,Win32,30.030030030027405,,,,,,2992.5263999999997,339,8,2992.5266,339,,,,2996.3549,2996.8546,2995.8392,2996.3548,2993.5499999999997,2995.8391,2996.8547,2997.3374999999996,2997.3376,3000.9438999999998,3248,3000.9439999999995,5,3000.9623,8,21,261,2,1,1.2,0.3,Time
,,681174,001,女,20,2025-06-04_18h57.13.446,Serial_Dependence_U,2023.2.3,Win32,30.030030030027405,,,,,,3000.9626,140,8,3000.9629,140,,,,3004.5369,3005.0243,3004.0099999999993,3004.5368000000003,3001.9524999999994,3004.0099,3005.0243,3005.5179,3005.5179,3009.3859999999995,3441,3009.3862,5,3009.4054999999994,8,22,262,26,1,1,0.7,Time
,,681174,001,女,20,2025-06-04_18h57.13.446,Serial_Dependence_U,2023.2.3,Win32,30.030030030027405,,,,,,3009.4058000000005,215,8,3009.4059999999995,215,,,,3012.7938000000004,3013.2779999999993,3012.2769999999996,3012.7936999999997,3010.4363000000003,3012.2769999999996,3013.2779999999993,3013.7944999999995,3013.7944999999995,3017.4666999999995,2923,3017.4669,5,3017.4861,8,23,263,15,1,0.8,0.7,Time
,,681174,001,女,20,2025-06-04_18h57.13.446,Serial_Dependence_U,2023.2.3,Win32,30.030030030027405,,,,,,3017.4864999999995,53,8,3017.4866999999995,53,,,,3021.4346,3021.9241999999995,3020.9161999999997,3021.4344,3018.4776,3020.9161,3021.9243,3022.4219,3022.4219999999996,3026.2424999999994,3401,3026.2448999999997,5,3026.2584999999995,8,24,264,8,1,1.4,0.7,Time
,,681174,001,女,20,2025-06-04_18h57.13.446,Serial_Dependence_U,2023.2.3,Win32,30.030030030027405,,,,,,3026.2588,185,8,3026.2589999999996,185,,,,3030.4353,3030.9519999999993,3029.9138000000003,3030.4352,3027.2651,3029.9136999999996,3030.9521,3031.4386999999997,3031.4388000000004,3035.7738999999997,3858,3035.7749999999996,5,3035.7934999999993,8,25,265,29,1,1.6,0.7,Time
,,681174,001,女,20,2025-06-04_18h57.13.446,Serial_Dependence_U,2023.2.3,Win32,30.030030030027405,,,,,,3035.7938999999997,208,8,3035.7941,208,,,,3039.9894999999997,3040.5076999999997,3039.4731,3039.9893,3036.7931999999996,3039.4731,3040.5076999999997,3040.9926,3040.9928000000004,3045.2697,3800,3045.2699,5,3045.2891999999997,8,26,266,24,1,1.6,0.3,Time
,,681174,001,女,20,2025-06-04_18h57.13.446,Serial_Dependence_U,2023.2.3,Win32,30.030030030027405,,,,,,3045.2894999999994,229,8,3045.2897,229,,,,3049.2961999999998,3049.7889,3048.7691,3049.2961,3046.2779,3048.7689999999993,3049.7889,3050.2941,3050.2941,3054.3729,3705,3054.3756,5,3054.3916999999997,8,27,267,23,1,1.4,0.3,Time
,,681174,001,女,20,2025-06-04_18h57.13.446,Serial_Dependence_U,2023.2.3,Win32,30.030030030027405,,,,,,3054.3919999999994,295,8,3054.3921,295,,,,3058.1996999999997,3058.6899,3057.6903,3058.1996999999997,3055.4249999999997,3057.6903,3058.6901000000003,3059.1699,3059.1701000000003,3063.2261999999996,3690,3063.2279999999996,5,3063.2473999999997,8,28,268,12,1,1.2,0.3,Time
,,681174,001,女,20,2025-06-04_18h57.13.446,Serial_Dependence_U,2023.2.3,Win32,30.030030030027405,,,,,,3063.2479,344,8,3063.2481000000002,344,,,,3067.4343000000003,3067.9096,3066.9269,3067.4341999999997,3064.2336999999998,3066.9269,3067.9098000000004,3068.3851,3068.3851999999997,3072.6159999999995,3894,3072.6183,5,3072.6382,8,29,269,14,1,1.6,0.3,Time