Scale_setup.started,Scale_setup.stopped,participant,session,sex,age,date,expName,psychopyVersion,OS,frameRate,Intro.started,Intro.stopped,key_resp_2.keys,key_resp_2.rt,key_resp_2.duration,block.started,direction,Block_id,block.stopped,trial_direction,Block_resp_2.keys,Block_resp_2.rt,Block_resp_2.duration,ITI.started,ITI.stopped,Mask_2.started,Mask_2.stopped,encoding.started,encoding.stopped,Cue.started,Cue.stopped,Response.started,Response.stopped,keyDuration,Feedback_Time.started,FeedbackID_T,Feedback_Time.stopped,trials.thisRepN,trials.thisTrialN,trials.thisN,trials.thisIndex,trials.ran,TimeDur,Coherence1,TrialType
0.00020000001788389454,0.0005000000000023874,722448,001,女,23,2025-06-04_17h57.04.036,Serial_Dependence_U,2023.2.3,Win32,59.523809523799216,,,,,,,,,,,,,,,,,,,,,,,,,,,,,,,,,,,
,,722448,001,女,23,2025-06-04_17h57.04.036,Serial_Dependence_U,2023.2.3,Win32,59.523809523799216,127.22670000001789,491.1818000000119,space,363.91620000001785,,,,,,,,,,,,,,,,,,,,,,,,,,,,,,,
,,722448,001,女,23,2025-06-04_17h57.04.036,Serial_Dependence_U,2023.2.3,Win32,59.523809523799216,,,,,,491.2025,327,0,497.296400000006,327,s,6.066700000017931,,500.8683000000119,501.3616000000238,500.3521000000238,500.8681000000238,498.319400000006,500.35180000001185,501.36180000001195,501.86180000001195,501.8621000000238,521.0761000000239,695,521.0766000000239,1,522.0751000000238,0,0,0,16,1,1,0.7,Time
,,722448,001,女,23,2025-06-04_17h57.04.036,Serial_Dependence_U,2023.2.3,Win32,59.523809523799216,,,,,,522.076400000006,78,0,522.080400000006,78,,,,525.4248000000119,525.9239000000059,524.9078000000119,525.4246000000238,523.0758000000119,524.9077000000178,525.9241000000238,526.4235,526.4236000000238,528.9577000000179,1435,528.957800000012,5,529.9562000000178,0,1,1,5,1,0.8,0.7,Time
,,722448,001,女,23,2025-06-04_17h57.04.036,Serial_Dependence_U,2023.2.3,Win32,59.523809523799216,,,,,,529.9568000000119,339,0,529.957,339,,,,533.5401000000238,534.0382000000178,533.0236000000239,533.54,530.957,533.0233000000119,534.0383000000119,534.5391000000238,534.5392000000179,542.7711000000238,799,542.7712000000179,2,543.770800000012,0,2,2,21,1,1,0.3,Time
,,722448,001,女,23,2025-06-04_17h57.04.036,Serial_Dependence_U,2023.2.3,Win32,59.523809523799216,,,,,,543.7721000000238,156,0,543.772400000006,156,,,,547.5708000000119,548.0702000000178,547.0541000000238,547.5706000000238,544.787900000006,547.0539000000059,548.0702000000178,548.5698000000119,548.5699999999999,553.1862000000178,967,553.1863000000119,2,554.1851000000238,0,3,3,22,1,1.2,0.3,Time
,,722448,001,女,23,2025-06-04_17h57.04.036,Serial_Dependence_U,2023.2.3,Win32,59.523809523799216,,,,,,554.1858000000119,333,0,554.1861000000238,333,,,,557.7857000000179,558.2844000000059,557.2692000000179,557.7856000000238,555.2029000000059,557.269,558.2845,558.7843000000119,558.7844000000059,567.3003000000119,825,567.3004999999999,2,568.2996000000238,0,4,4,11,1,1,0.3,Time
,,722448,001,女,23,2025-06-04_17h57.04.036,Serial_Dependence_U,2023.2.3,Win32,59.523809523799216,,,,,,568.300400000006,238,0,568.3008000000119,238,,,,572.4998000000119,572.9988000000119,571.9832000000179,572.4996000000239,569.316400000006,571.9831000000238,572.9988000000119,573.4988000000119,573.4988000000119,576.732,1001,576.7321000000238,1,577.7309000000059,0,5,5,24,1,1.6,0.3,Time
,,722448,001,女,23,2025-06-04_17h57.04.036,Serial_Dependence_U,2023.2.3,Win32,59.523809523799216,,,,,,577.7316000000238,203,0,577.7322000000179,203,,,,581.8815,582.3805,581.3695,581.881300000012,578.7372000000179,581.369400000006,582.3806000000238,582.8804000000059,582.8804000000059,586.653,1517,586.6531000000239,2,587.645800000012,0,6,6,9,1,1.6,0.7,Time
,,722448,001,女,23,2025-06-04_17h57.04.036,Serial_Dependence_U,2023.2.3,Win32,59.523809523799216,,,,,,587.6467000000179,173,0,587.6472000000178,173,,,,591.635,592.1288000000119,591.1134999999999,591.6349000000059,588.6499000000059,591.113400000006,592.128900000006,592.6286000000239,592.6287000000178,595.2016000000239,2483,595.2018000000119,5,596.194900000006,0,7,7,3,1,1.4,0.3,Time
,,722448,001,女,23,2025-06-04_17h57.04.036,Serial_Dependence_U,2023.2.3,Win32,59.523809523799216,,,,,,596.1955,327,0,596.1958000000119,327,,,,599.5675,600.0604999999999,599.0506000000238,599.5674000000059,597.2117000000179,599.0504999999999,600.0604999999999,600.5607000000178,600.5607000000178,603.1505,1679,603.1506000000238,5,604.1433000000119,0,8,8,15,1,0.8,0.7,Time
,,722448,001,女,23,2025-06-04_17h57.04.036,Serial_Dependence_U,2023.2.3,Win32,59.523809523799216,,,,,,604.144,158,0,604.1443000000119,158,,,,608.3153000000119,608.8092000000179,607.7931000000239,608.3151000000238,605.1608000000119,607.793,608.8092000000179,609.3092000000179,609.309300000012,612.4154000000059,2300,612.4155,5,613.4085,0,9,9,19,1,1.6,0.7,Time
,,722448,001,女,23,2025-06-04_17h57.04.036,Serial_Dependence_U,2023.2.3,Win32,59.523809523799216,,,,,,613.4091000000238,87,0,613.4094000000059,87,,,,617.3919999999999,617.8957000000179,616.880800000012,617.3918000000119,614.4089000000059,616.8807000000179,617.8957000000179,618.3907000000179,618.390800000012,625.1801000000238,2910,625.1801000000238,5,626.1777000000178,0,10,10,13,1,1.4,0.3,Time
,,722448,001,女,23,2025-06-04_17h57.04.036,Serial_Dependence_U,2023.2.3,Win32,59.523809523799216,,,,,,626.1781000000238,110,0,626.1782000000179,110,,,,629.9565,630.4553000000119,629.4429000000059,629.9563000000119,627.1788000000118,629.4428000000119,630.455400000006,630.9551000000238,630.9551000000238,632.761900000006,1416,632.761900000006,4,633.7548000000119,0,11,11,2,1,1.2,0.3,Time
,,722448,001,女,23,2025-06-04_17h57.04.036,Serial_Dependence_U,2023.2.3,Win32,59.523809523799216,,,,,,633.7556000000238,81,0,633.755800000012,81,,,,637.959900000006,638.4538000000119,637.4432000000179,637.9598000000119,634.760800000012,637.4431000000238,638.4539000000059,638.958900000006,638.959,641.7768000000119,1700,641.7768000000119,4,642.7698000000119,0,12,12,14,1,1.6,0.3,Time
,,722448,001,女,23,2025-06-04_17h57.04.036,Serial_Dependence_U,2023.2.3,Win32,59.523809523799216,,,,,,642.7705,346,0,642.7707000000179,346,,,,646.7255,647.2191000000238,646.2088000000119,646.725400000006,643.7704000000059,646.2087000000179,647.2192000000178,647.718900000006,647.7189999999999,650.1918000000119,2026,650.1918000000119,5,651.184900000006,0,13,13,28,1,1.4,0.7,Time
,,722448,001,女,23,2025-06-04_17h57.04.036,Serial_Dependence_U,2023.2.3,Win32,59.523809523799216,,,,,,651.1854999999999,281,0,651.1858000000119,281,,,,654.5719000000059,655.0672000000179,654.0574000000059,654.5715,652.1913000000119,654.0573000000119,655.0673000000119,655.5672000000179,655.5672000000179,657.7577000000178,1466,657.7578000000119,5,658.7504000000059,0,14,14,10,1,0.8,0.3,Time
,,722448,001,女,23,2025-06-04_17h57.04.036,Serial_Dependence_U,2023.2.3,Win32,59.523809523799216,,,,,,658.7511000000238,127,0,658.7514000000059,127,,,,662.1335,662.632900000006,661.6223000000119,662.1333000000119,659.7564000000059,661.6221000000238,662.633,663.1326000000238,663.1326000000238,665.0896000000238,1601,665.0896000000238,5,666.0818000000119,0,15,15,0,1,0.8,0.3,Time
,,722448,001,女,23,2025-06-04_17h57.04.036,Serial_Dependence_U,2023.2.3,Win32,59.523809523799216,,,,,,666.0826000000238,328,0,666.0829000000059,328,,,,670.066,670.5644000000059,669.5545,670.0658000000119,667.0886000000238,669.5544000000059,670.5644000000059,671.0644000000059,671.0644000000059,672.9883000000119,1493,672.988400000006,4,673.9809000000059,0,16,16,23,1,1.4,0.3,Time
,,722448,001,女,23,2025-06-04_17h57.04.036,Serial_Dependence_U,2023.2.3,Win32,59.523809523799216,,,,,,673.9815,316,0,673.9819000000059,316,,,,677.7341000000238,678.2301000000239,677.22,677.734,674.982,677.22,678.2302000000178,678.7296000000239,678.7296000000239,681.0865,1867,681.0865,5,682.0796000000238,0,17,17,27,1,1.2,0.7,Time
,,722448,001,女,23,2025-06-04_17h57.04.036,Serial_Dependence_U,2023.2.3,Win32,59.523809523799216,,,,,,682.080400000006,216,0,682.0807000000178,216,,,,685.6296000000239,686.1285,685.1184999999999,685.6295,683.0851000000238,685.118400000006,686.1285,686.6166000000238,686.6167000000179,688.768400000006,1549,688.7685,5,689.7607000000179,0,18,18,6,1,1,0.7,Time
,,722448,001,女,23,2025-06-04_17h57.04.036,Serial_Dependence_U,2023.2.3,Win32,59.523809523799216,,,,,,689.761,327,0,689.7613000000119,327,,,,693.1543000000119,693.644,692.6345,693.1542000000179,690.7673000000119,692.6341000000239,693.6441000000239,694.1439000000059,694.1439000000059,696.7337000000178,1523,696.7338000000119,5,697.7265,0,19,19,20,1,0.8,0.3,Time
,,722448,001,女,23,2025-06-04_17h57.04.036,Serial_Dependence_U,2023.2.3,Win32,59.523809523799216,,,,,,697.7276000000238,188,0,697.7279000000059,188,,,,701.3102000000179,701.8092000000179,700.7987000000179,701.3101000000238,698.7496000000239,700.7986000000238,701.809300000012,702.3092000000179,702.309300000012,706.7812000000179,2135,706.7813000000119,5,707.775,0,20,20,26,1,1,0.7,Time
,,722448,001,女,23,2025-06-04_17h57.04.036,Serial_Dependence_U,2023.2.3,Win32,59.523809523799216,,,,,,707.7757000000179,306,0,707.7759000000059,306,,,,711.5252000000179,712.024,711.0135,711.525,708.781400000006,711.013400000006,712.0241000000239,712.524,712.524,714.2475,1400,714.2476000000238,4,715.2402000000178,0,21,21,7,1,1.2,0.7,Time
,,722448,001,女,23,2025-06-04_17h57.04.036,Serial_Dependence_U,2023.2.3,Win32,59.523809523799216,,,,,,715.2408000000119,346,0,715.2411000000238,346,,,,719.2067000000179,719.7057000000178,718.6902000000179,719.2066000000239,716.2572000000179,718.6899999999999,719.7058000000119,720.2057000000178,720.2057000000178,722.5123000000119,2050,722.5123000000119,5,723.5051000000238,0,22,22,18,1,1.4,0.7,Time
,,722448,001,女,23,2025-06-04_17h57.04.036,Serial_Dependence_U,2023.2.3,Win32,59.523809523799216,,,,,,723.5057000000179,66,0,723.506,66,,,,727.461,727.9543000000119,726.9561000000239,727.460900000006,724.5221000000238,726.956,727.954400000006,728.4546000000238,728.4547000000179,730.627900000006,1534,730.627900000006,4,731.6201000000239,0,23,23,8,1,1.4,0.7,Time
,,722448,001,女,23,2025-06-04_17h57.04.036,Serial_Dependence_U,2023.2.3,Win32,59.523809523799216,,,,,,731.6206000000238,62,0,731.6208000000119,62,,,,735.7871000000238,736.286,735.2761000000238,735.786900000006,732.6417000000179,735.2759000000059,736.286,736.7855,736.7857000000179,740.3921000000238,1800,740.3922000000179,4,741.3846000000239,0,24,24,29,1,1.6,0.7,Time
,,722448,001,女,23,2025-06-04_17h57.04.036,Serial_Dependence_U,2023.2.3,Win32,59.523809523799216,,,,,,741.385,143,0,741.3852000000179,143,,,,745.584400000006,746.0841000000238,745.074,745.584400000006,742.406900000006,745.074,746.0841000000238,746.5838000000119,746.583900000006,749.4227000000178,1428,749.4227000000178,2,750.416400000006,0,25,25,4,1,1.6,0.3,Time
,,722448,001,女,23,2025-06-04_17h57.04.036,Serial_Dependence_U,2023.2.3,Win32,59.523809523799216,,,,,,750.4168000000119,48,0,750.416900000006,48,,,,753.9997000000178,754.4992000000178,753.4879999999999,753.9996000000239,751.4197000000179,753.487900000006,754.4993000000119,754.9988000000119,754.9988000000119,757.2542000000178,1182,757.2543000000119,4,758.2487000000178,0,26,26,1,1,1,0.3,Time
,,722448,001,女,23,2025-06-04_17h57.04.036,Serial_Dependence_U,2023.2.3,Win32,59.523809523799216,,,,,,758.2492000000178,71,0,758.249400000006,71,,,,762.0198000000119,762.5142000000178,761.5154000000059,762.0198000000119,759.2488000000119,761.5153000000118,762.5142000000178,763.0143000000119,763.0143000000119,764.3026000000239,1232,764.3027000000178,3,765.2972000000178,0,27,27,12,1,1.2,0.3,Time
,,722448,001,女,23,2025-06-04_17h57.04.036,Serial_Dependence_U,2023.2.3,Win32,59.523809523799216,,,,,,765.2976000000239,95,0,765.2978000000119,95,,,,769.0521000000239,769.546400000006,768.5356000000238,769.052,766.2976000000239,768.5356000000238,769.546400000006,770.0466000000238,770.0466000000238,771.8683000000119,1100,771.868400000006,2,772.8625,0,28,28,17,1,1.2,0.7,Time
,,722448,001,女,23,2025-06-04_17h57.04.036,Serial_Dependence_U,2023.2.3,Win32,59.523809523799216,,,,,,772.8628000000119,53,0,772.8629999999999,53,,,,776.2289999999999,776.728400000006,775.7174000000059,776.2289999999999,773.8673000000119,775.7174000000059,776.7284999999999,777.2162000000178,777.2163000000119,778.684,1450,778.6841000000238,5,779.678,0,29,29,25,1,0.8,0.7,Time
,,722448,001,女,23,2025-06-04_17h57.04.036,Serial_Dependence_U,2023.2.3,Win32,59.523809523799216,,,,,,779.6783000000119,163,1,853.4116000000238,163,s,73.68790000000592,,857.4039000000059,857.898,856.899,857.4038000000119,854.4327000000179,856.8989000000059,857.8981000000239,858.3988000000119,858.3988000000119,860.337800000012,616,860.3379000000059,1,860.3507000000178,1,0,30,3,1,1.4,0.3,Time
,,722448,001,女,23,2025-06-04_17h57.04.036,Serial_Dependence_U,2023.2.3,Win32,59.523809523799216,,,,,,860.3514000000059,153,1,860.3525,153,,,,864.3185,864.8129000000059,863.8007000000179,864.318300000012,861.3538000000119,863.8006000000238,864.8129000000059,865.3134000000059,865.3135,866.0851000000238,665,866.0851000000238,1,866.0929000000059,1,1,31,28,1,1.4,0.7,Time
,,722448,001,女,23,2025-06-04_17h57.04.036,Serial_Dependence_U,2023.2.3,Win32,59.523809523799216,,,,,,866.0932000000179,241,1,866.0933000000119,241,,,,870.0965,870.5951000000239,869.5857000000178,870.0964000000059,867.114,869.585400000006,870.5951000000239,871.095400000006,871.0955,872.3852000000179,816,872.3853000000119,1,872.4004000000059,1,2,32,23,1,1.4,0.3,Time
,,722448,001,女,23,2025-06-04_17h57.04.036,Serial_Dependence_U,2023.2.3,Win32,59.523809523799216,,,,,,872.4007000000179,221,1,872.4009000000059,221,,,,875.7798000000118,876.2782000000178,875.2683000000119,875.7796000000238,873.4009000000059,875.2681000000239,876.2782000000178,876.7777000000178,876.7777000000178,878.2011000000239,800,878.2012000000178,3,878.2163000000119,1,3,33,20,1,0.8,0.3,Time
,,722448,001,女,23,2025-06-04_17h57.04.036,Serial_Dependence_U,2023.2.3,Win32,59.523809523799216,,,,,,878.2166000000238,1,1,878.2167000000179,1,,,,881.5948000000119,882.0939999999999,881.0834000000059,881.5947000000178,879.217,881.0832000000179,882.0939999999999,882.5938000000119,882.593900000006,883.4669000000059,748,883.467,2,883.481,1,4,34,10,1,0.8,0.3,Time
,,722448,001,女,23,2025-06-04_17h57.04.036,Serial_Dependence_U,2023.2.3,Win32,59.523809523799216,,,,,,883.4812000000179,216,1,883.4813000000119,216,,,,887.0438000000119,887.542400000006,886.5302000000179,887.0436000000238,884.4941000000239,886.5301000000238,887.5425,888.041900000006,888.041900000006,888.7991000000238,584,888.7992000000179,1,888.8135,1,5,35,6,1,1,0.7,Time
,,722448,001,女,23,2025-06-04_17h57.04.036,Serial_Dependence_U,2023.2.3,Win32,59.523809523799216,,,,,,888.8137000000179,104,1,888.813800000012,104,,,,892.3798000000119,892.8746000000239,891.8597000000178,892.3797000000179,889.814900000006,891.8596000000239,892.8747000000178,893.38,893.3801000000238,894.3654000000059,867,894.3655,2,894.3792000000178,1,6,36,26,1,1,0.7,Time
,,722448,001,女,23,2025-06-04_17h57.04.036,Serial_Dependence_U,2023.2.3,Win32,59.523809523799216,,,,,,894.3797000000179,90,1,894.3798000000119,90,,,,897.7253000000119,898.2243000000119,897.2139999999999,897.7252000000178,895.380800000012,897.213900000006,898.224400000006,898.7272000000178,898.7272000000178,899.6645000000001,777,899.6646000000237,3,899.6793000000118,1,7,37,25,1,0.8,0.7,Time
,,722448,001,女,23,2025-06-04_17h57.04.036,Serial_Dependence_U,2023.2.3,Win32,59.523809523799216,,,,,,899.6795,344,1,899.6796000000238,344,,,,903.8443000000118,904.3399000000059,903.3277000000178,903.8441000000239,900.6916000000238,903.3276000000237,904.3399000000059,904.8398000000118,904.8398000000118,905.6626000000238,733,905.6627000000178,1,905.676800000012,1,8,38,19,1,1.6,0.7,Time
,,722448,001,女,23,2025-06-04_17h57.04.036,Serial_Dependence_U,2023.2.3,Win32,59.523809523799216,,,,,,905.6769999999999,34,1,905.6769999999999,34,,,,909.0271000000239,909.5223000000119,908.5115000000001,909.027,906.6736000000237,908.5113000000119,909.522400000006,910.0218000000118,910.0218000000118,910.7964999999999,384,910.7964999999999,1,910.8108000000118,1,9,39,5,1,0.8,0.7,Time
,,722448,001,女,23,2025-06-04_17h57.04.036,Serial_Dependence_U,2023.2.3,Win32,59.523809523799216,,,,,,910.8112000000178,177,1,910.8112000000178,177,,,,914.9556000000239,915.4541000000238,914.4442000000179,914.955400000006,911.8112000000178,914.444,915.4541000000238,915.9542000000179,915.9542000000179,917.543900000006,999,917.5439999999999,1,917.5566000000238,1,10,40,9,1,1.6,0.7,Time
,,722448,001,女,23,2025-06-04_17h57.04.036,Serial_Dependence_U,2023.2.3,Win32,59.523809523799216,,,,,,917.5567000000178,151,1,917.556900000006,151,,,,921.337300000012,921.8368000000119,920.8261000000239,921.3371000000238,918.5599000000059,920.826,921.8368000000119,922.3367000000178,922.3368000000119,923.327300000012,851,923.3274999999999,2,923.3434000000059,1,11,41,12,1,1.2,0.3,Time
,,722448,001,女,23,2025-06-04_17h57.04.036,Serial_Dependence_U,2023.2.3,Win32,59.523809523799216,,,,,,923.343900000006,265,1,923.3441000000239,265,,,,926.7367000000179,927.2355,926.225800000012,926.7366000000238,924.3538000000119,926.2257000000179,927.2355,927.739200000018,927.739200000018,929.6763000000119,579,929.6763000000119,2,929.6891000000239,1,12,42,0,1,0.8,0.3,Time
,,722448,001,女,23,2025-06-04_17h57.04.036,Serial_Dependence_U,2023.2.3,Win32,59.523809523799216,,,,,,929.6893000000118,64,1,929.6894000000059,64,,,,933.6555000000001,934.1513000000118,933.1414000000059,933.655400000006,930.7026000000237,933.1412000000178,934.1513000000118,934.6511000000239,934.6512000000178,935.5744000000059,648,935.5745,1,935.5882000000179,1,13,43,18,1,1.4,0.7,Time
,,722448,001,女,23,2025-06-04_17h57.04.036,Serial_Dependence_U,2023.2.3,Win32,59.523809523799216,,,,,,935.5885000000001,83,1,935.5885000000001,83,,,,939.772700000018,940.2664000000059,939.2568000000119,939.7726000000239,936.584900000006,939.2567000000179,940.2665,940.7664000000059,940.7665,941.489200000018,682,941.489200000018,1,941.5025,1,14,44,14,1,1.6,0.3,Time
,,722448,001,女,23,2025-06-04_17h57.04.036,Serial_Dependence_U,2023.2.3,Win32,59.523809523799216,,,,,,941.5029000000059,124,1,941.5031000000238,124,,,,945.703400000006,946.1991000000239,945.1891000000239,945.703300000012,942.522700000018,945.1890000000001,946.1992000000178,946.6990000000001,946.6990000000001,947.722400000006,633,947.722400000006,1,947.736800000012,1,15,45,4,1,1.6,0.3,Time
,,722448,001,女,23,2025-06-04_17h57.04.036,Serial_Dependence_U,2023.2.3,Win32,59.523809523799216,,,,,,947.7370000000001,131,1,947.7371000000239,131,,,,951.304900000006,951.7979000000059,950.8023000000119,951.3048000000119,948.7365,950.8022000000178,951.798,952.2976000000237,952.2977000000178,953.3558000000119,961,953.3559000000059,3,953.3691000000238,1,16,46,11,1,1,0.3,Time
,,722448,001,女,23,2025-06-04_17h57.04.036,Serial_Dependence_U,2023.2.3,Win32,59.523809523799216,,,,,,953.369400000006,174,1,953.3695,174,,,,956.9034000000058,957.396700000018,956.402200000018,956.903300000012,954.3652000000179,956.4021000000239,957.3968000000118,957.8969999999999,957.8971000000238,958.9369000000058,817,958.9371000000237,2,958.9514999999999,1,17,47,16,1,1,0.7,Time
,,722448,001,女,23,2025-06-04_17h57.04.036,Serial_Dependence_U,2023.2.3,Win32,59.523809523799216,,,,,,958.952,58,1,958.9521000000238,58,,,,962.7135000000001,963.212300000012,962.2021000000238,962.713400000006,959.9674000000059,962.2021000000238,963.212400000006,963.712300000012,963.712400000006,964.7027000000178,917,964.7028000000118,2,964.7155,1,18,48,17,1,1.2,0.7,Time
,,722448,001,女,23,2025-06-04_17h57.04.036,Serial_Dependence_U,2023.2.3,Win32,59.523809523799216,,,,,,964.7157000000179,47,1,964.7157000000179,47,,,,968.3011000000238,968.794800000012,967.784900000006,968.3009000000059,965.713,967.784800000012,968.794800000012,969.2951000000239,969.2951000000239,970.0347000000179,700,970.0347000000179,1,970.0479000000059,1,19,49,1,1,1,0.3,Time
,,722448,001,女,23,2025-06-04_17h57.04.036,Serial_Dependence_U,2023.2.3,Win32,59.523809523799216,,,,,,970.0481000000239,4,1,970.0482000000179,4,,,,973.4175,973.9107000000179,972.9006000000238,973.4173000000119,971.050700000018,972.9005,973.9107000000179,974.4139000000059,974.4139000000059,975.1337000000178,650,975.1338000000119,2,975.1469000000059,1,20,50,15,1,0.8,0.7,Time
,,722448,001,女,23,2025-06-04_17h57.04.036,Serial_Dependence_U,2023.2.3,Win32,59.523809523799216,,,,,,975.1471000000238,205,1,975.1472000000178,205,,,,979.3323000000119,979.8262000000179,978.8277000000178,979.3322000000178,976.1606000000238,978.8274999999999,979.826300000012,980.3262000000179,980.3262000000179,981.1175000000001,751,981.1175000000001,1,981.1303000000119,1,21,51,24,1,1.6,0.3,Time
,,722448,001,女,23,2025-06-04_17h57.04.036,Serial_Dependence_U,2023.2.3,Win32,59.523809523799216,,,,,,981.1305,100,1,981.1306000000238,100,,,,985.114900000006,985.6088000000118,984.5930000000001,985.114900000006,982.1271000000238,984.5930000000001,985.6088000000118,986.108700000018,986.1088000000118,987.0651000000239,884,987.0651000000239,1,987.0799999999999,1,22,52,13,1,1.4,0.3,Time
,,722448,001,女,23,2025-06-04_17h57.04.036,Serial_Dependence_U,2023.2.3,Win32,59.523809523799216,,,,,,987.0802000000178,132,1,987.0803000000119,132,,,,991.046200000018,991.5409999999999,990.5311000000238,991.0461000000239,988.0811000000238,990.531,991.5409999999999,992.0409000000059,992.0409000000059,993.080800000012,550,993.080800000012,1,993.0956000000238,1,23,53,8,1,1.4,0.7,Time
,,722448,001,女,23,2025-06-04_17h57.04.036,Serial_Dependence_U,2023.2.3,Win32,59.523809523799216,,,,,,993.0958000000119,331,1,993.0959000000059,331,,,,996.8910000000001,997.389900000006,996.3793000000119,996.890900000006,994.108400000006,996.3793000000119,997.389900000006,997.8896000000238,997.8897000000179,999.6632000000179,762,999.663300000012,1,999.6779999999999,1,24,54,22,1,1.2,0.3,Time
,,722448,001,女,23,2025-06-04_17h57.04.036,Serial_Dependence_U,2023.2.3,Win32,59.523809523799216,,,,,,999.6783000000119,142,1,999.6783000000119,142,,,,1003.4616000000237,1003.9551000000238,1002.9451000000238,1003.4614999999999,1000.6736000000237,1002.9449000000059,1003.9551000000238,1004.4551000000238,1004.4551000000238,1005.494900000006,850,1005.4949999999999,2,1005.5087000000178,1,25,55,2,1,1.2,0.3,Time
,,722448,001,女,23,2025-06-04_17h57.04.036,Serial_Dependence_U,2023.2.3,Win32,59.523809523799216,,,,,,1005.508900000006,130,1,1005.5091000000239,130,,,,1009.676400000006,1010.170900000006,1009.1596000000238,1009.6762000000178,1006.5226000000239,1009.1595,1010.171,1010.6706000000238,1010.6707000000179,1011.6938000000118,682,1011.6938000000118,1,1011.7059999999999,1,26,56,29,1,1.6,0.7,Time
,,722448,001,女,23,2025-06-04_17h57.04.036,Serial_Dependence_U,2023.2.3,Win32,59.523809523799216,,,,,,1011.7062000000178,181,1,1011.7063000000119,181,,,,1015.4431000000238,1015.9365,1014.937800000012,1015.443,1012.7048000000118,1014.9377000000179,1015.9366000000239,1016.436400000006,1016.436400000006,1018.2931000000237,966,1018.2933000000119,2,1018.3072000000179,1,27,57,27,1,1.2,0.7,Time
,,722448,001,女,23,2025-06-04_17h57.04.036,Serial_Dependence_U,2023.2.3,Win32,59.523809523799216,,,,,,1018.3076000000237,41,1,1018.3076000000237,41,,,,1021.886400000006,1022.3852000000179,1021.375300000012,1021.8863000000119,1019.3091000000238,1021.3752000000179,1022.385300000012,1022.885300000012,1022.885400000006,1025.0753000000118,1053,1025.0754000000059,4,1025.0882000000179,1,28,58,21,1,1,0.3,Time
,,722448,001,女,23,2025-06-04_17h57.04.036,Serial_Dependence_U,2023.2.3,Win32,59.523809523799216,,,,,,1025.088600000024,355,1,1025.0887000000178,355,,,,1028.8354000000058,1029.333900000006,1028.3236000000238,1028.835200000018,1026.091,1028.3235,1029.333900000006,1029.8216000000239,1029.8216000000239,1032.055800000012,1200,1032.055900000006,3,1032.064800000012,1,29,59,7,1,1.2,0.7,Time
,,722448,001,女,23,2025-06-04_17h57.04.036,Serial_Dependence_U,2023.2.3,Win32,59.523809523799216,,,,,,1032.065100000024,123,2,1067.7712000000179,123,s,35.683099999994056,,1071.9275,1072.4262000000178,1071.4165,1071.9273000000119,1068.777900000006,1071.416300000012,1072.4262000000178,1072.9262000000178,1072.9262000000178,1074.865900000006,1699,1074.866,4,1074.878300000012,2,0,60,19,1,1.6,0.7,Time
,,722448,001,女,23,2025-06-04_17h57.04.036,Serial_Dependence_U,2023.2.3,Win32,59.523809523799216,,,,,,1074.8785,340,2,1074.879700000018,340,,,,1078.626300000012,1079.1254999999999,1078.112900000006,1078.626200000018,1075.8765,1078.112800000012,1079.1254999999999,1079.6251000000238,1079.625200000018,1081.648700000018,1274,1081.648800000012,4,1081.6628000000119,2,1,61,27,1,1.2,0.7,Time
,,722448,001,女,23,2025-06-04_17h57.04.036,Serial_Dependence_U,2023.2.3,Win32,59.523809523799216,,,,,,1081.6631000000239,194,2,1081.6631000000239,194,,,,1085.0586000000237,1085.557400000006,1084.5476000000237,1085.058400000006,1082.675700000018,1084.5474000000058,1085.557400000006,1086.0577000000178,1086.0578000000119,1086.7314999999999,534,1086.7314999999999,1,1086.745,2,2,62,20,1,0.8,0.3,Time
,,722448,001,女,23,2025-06-04_17h57.04.036,Serial_Dependence_U,2023.2.3,Win32,59.523809523799216,,,,,,1086.7452000000178,335,2,1086.7453000000119,335,,,,1090.7245,1091.223300000012,1090.2075,1090.724400000006,1087.741400000006,1090.207400000006,1091.223300000012,1091.7231000000238,1091.7232000000179,1094.012700000018,426,1094.0129000000059,1,1094.0262000000178,2,3,63,13,1,1.4,0.3,Time
,,722448,001,女,23,2025-06-04_17h57.04.036,Serial_Dependence_U,2023.2.3,Win32,59.523809523799216,,,,,,1094.0264000000059,173,2,1094.0266000000238,173,,,,1097.806200000018,1098.304900000006,1097.2947000000179,1097.806,1095.027100000024,1097.2946000000238,1098.305,1098.804900000006,1098.805,1099.562,468,1099.562,1,1099.577,2,4,64,12,1,1.2,0.3,Time
,,722448,001,女,23,2025-06-04_17h57.04.036,Serial_Dependence_U,2023.2.3,Win32,59.523809523799216,,,,,,1099.577400000006,316,2,1099.5774999999999,316,,,,1102.938800000012,1103.437800000012,1102.427800000012,1102.9386000000238,1100.5891000000238,1102.427700000018,1103.437900000006,1103.9376000000238,1103.937800000012,1105.560600000024,692,1105.560700000018,2,1105.5744000000059,2,5,65,25,1,0.8,0.7,Time
,,722448,001,女,23,2025-06-04_17h57.04.036,Serial_Dependence_U,2023.2.3,Win32,59.523809523799216,,,,,,1105.5747000000179,32,2,1105.574800000012,32,,,,1109.759400000006,1110.2531000000238,1109.2546000000239,1109.759300000012,1106.587900000006,1109.254400000006,1110.2531000000238,1110.7531000000238,1110.7532000000178,1112.092800000012,616,1112.092900000006,1,1112.1071000000238,2,6,66,4,1,1.6,0.3,Time
,,722448,001,女,23,2025-06-04_17h57.04.036,Serial_Dependence_U,2023.2.3,Win32,59.523809523799216,,,,,,1112.107400000006,359,2,1112.1075,359,,,,1115.9031000000239,1116.402200000018,1115.391900000006,1115.903,1113.1201000000237,1115.391800000012,1116.402200000018,1116.902200000018,1116.902200000018,1118.209100000024,667,1118.209200000018,1,1118.2235,2,7,67,22,1,1.2,0.3,Time
,,722448,001,女,23,2025-06-04_17h57.04.036,Serial_Dependence_U,2023.2.3,Win32,59.523809523799216,,,,,,1118.2238000000118,153,2,1118.2239000000059,153,,,,1122.424300000012,1122.917700000018,1121.907300000012,1122.424200000018,1119.235800000012,1121.9072000000178,1122.917800000012,1123.417300000012,1123.417300000012,1125.057400000006,501,1125.0575,1,1125.067300000012,2,8,68,14,1,1.6,0.3,Time
,,722448,001,女,23,2025-06-04_17h57.04.036,Serial_Dependence_U,2023.2.3,Win32,59.523809523799216,,,,,,1125.0676000000237,303,2,1125.0678000000119,303,,,,1129.005700000018,1129.4997000000178,1128.500900000006,1129.0056000000238,1126.0695,1128.5008000000118,1129.4997000000178,1129.9995,1129.9995,1131.804900000006,900,1131.805,1,1131.8145,2,9,69,18,1,1.4,0.7,Time
,,722448,001,女,23,2025-06-04_17h57.04.036,Serial_Dependence_U,2023.2.3,Win32,59.523809523799216,,,,,,1131.814800000012,217,2,1131.815100000024,217,,,,1135.5996000000239,1136.098700000018,1135.0882000000179,1135.5996000000239,1132.8216000000239,1135.0881000000238,1136.098700000018,1136.598700000018,1136.598700000018,1137.0731000000237,1,1137.073400000006,1,1137.0868000000119,2,10,70,2,1,1.2,0.3,Time
,,722448,001,女,23,2025-06-04_17h57.04.036,Serial_Dependence_U,2023.2.3,Win32,59.523809523799216,,,,,,1137.087,178,2,1137.0871000000238,178,,,,1141.248200000018,1141.7472000000178,1140.7373000000118,1141.248,1138.104900000006,1140.7372000000178,1141.7472000000178,1142.2477000000179,1142.247800000012,1143.971,1050,1143.9711000000239,1,1143.9831000000238,2,11,71,9,1,1.6,0.7,Time
,,722448,001,女,23,2025-06-04_17h57.04.036,Serial_Dependence_U,2023.2.3,Win32,59.523809523799216,,,,,,1143.983400000006,12,2,1143.983400000006,12,,,,1147.5308000000118,1148.029900000006,1147.0197000000178,1147.5307000000178,1144.9818000000118,1147.0196000000237,1148.03,1148.5298000000118,1148.5298000000118,1150.169900000006,501,1150.17,1,1150.1826000000237,2,12,72,16,1,1,0.7,Time
,,722448,001,女,23,2025-06-04_17h57.04.036,Serial_Dependence_U,2023.2.3,Win32,59.523809523799216,,,,,,1150.1827000000178,346,2,1150.1828000000119,346,,,,1153.578600000024,1154.0788000000118,1153.0668000000119,1153.578400000006,1151.1855,1153.0668000000119,1154.0788000000118,1154.5785,1154.5785,1155.7688000000119,517,1155.768900000006,1,1155.7822000000178,2,13,73,10,1,0.8,0.3,Time
,,722448,001,女,23,2025-06-04_17h57.04.036,Serial_Dependence_U,2023.2.3,Win32,59.523809523799216,,,,,,1155.7825,206,2,1155.7825,206,,,,1159.7453000000119,1160.244400000006,1159.2325,1159.7452000000178,1156.8011000000238,1159.232300000012,1160.2445,1160.7439000000059,1160.744,1162.417800000012,817,1162.417800000012,1,1162.4293000000118,2,14,74,28,1,1.4,0.7,Time
,,722448,001,女,23,2025-06-04_17h57.04.036,Serial_Dependence_U,2023.2.3,Win32,59.523809523799216,,,,,,1162.4295,56,2,1162.4296000000238,56,,,,1166.6106000000239,1167.1095,1166.1003000000119,1166.610400000006,1163.434,1166.1001000000238,1167.1096000000239,1167.6096000000239,1167.609700000018,1169.0167000000179,1150,1169.016800000012,2,1169.0286000000237,2,15,75,24,1,1.6,0.3,Time
,,722448,001,女,23,2025-06-04_17h57.04.036,Serial_Dependence_U,2023.2.3,Win32,59.523809523799216,,,,,,1169.0288000000119,79,2,1169.028900000006,79,,,,1172.998800000012,1173.4918000000118,1172.493,1172.9987000000178,1170.0267000000179,1172.4929000000059,1173.491900000006,1173.992,1173.992,1174.9315,877,1174.9316000000238,1,1174.945400000006,2,16,76,3,1,1.4,0.3,Time
,,722448,001,女,23,2025-06-04_17h57.04.036,Serial_Dependence_U,2023.2.3,Win32,59.523809523799216,,,,,,1174.945600000024,337,2,1174.945600000024,337,,,,1179.1081000000238,1179.607400000006,1178.597600000024,1179.108,1175.9641000000238,1178.597400000006,1179.607400000006,1180.1072000000179,1180.1072000000179,1181.7641000000237,867,1181.7641000000237,1,1181.7765,2,17,77,29,1,1.6,0.7,Time
,,722448,001,女,23,2025-06-04_17h57.04.036,Serial_Dependence_U,2023.2.3,Win32,59.523809523799216,,,,,,1181.776800000012,324,2,1181.776900000006,324,,,,1185.163,1185.656300000012,1184.6458000000118,1185.162900000006,1182.7745,1184.6457000000178,1185.656300000012,1186.1562000000179,1186.156400000006,1187.547200000018,851,1187.547200000018,4,1187.562,2,18,78,0,1,0.8,0.3,Time
,,722448,001,女,23,2025-06-04_17h57.04.036,Serial_Dependence_U,2023.2.3,Win32,59.523809523799216,,,,,,1187.5623000000119,140,2,1187.5623000000119,140,,,,1191.110400000006,1191.6046000000238,1190.595900000006,1191.1103000000119,1188.5567000000178,1190.5957000000178,1191.6046000000238,1192.1051000000239,1192.105200000018,1193.0951000000239,810,1193.095200000018,2,1193.1103000000119,2,19,79,6,1,1,0.7,Time
,,722448,001,女,23,2025-06-04_17h57.04.036,Serial_Dependence_U,2023.2.3,Win32,59.523809523799216,,,,,,1193.1105,227,2,1193.1106000000239,227,,,,1196.871800000012,1197.3711000000237,1196.360700000018,1196.8717000000179,1194.1279000000059,1196.3606000000239,1197.3711000000237,1197.870800000012,1197.870800000012,1198.9782000000178,1001,1198.9782000000178,2,1198.9908000000119,2,20,80,7,1,1.2,0.7,Time
,,722448,001,女,23,2025-06-04_17h57.04.036,Serial_Dependence_U,2023.2.3,Win32,59.523809523799216,,,,,,1198.991,279,2,1198.9911000000238,279,,,,1202.971,1203.47,1202.454400000006,1202.970900000006,1199.9884000000059,1202.454300000012,1203.47,1203.9695,1203.9695,1205.209800000012,1117,1205.209900000006,2,1205.224700000018,2,21,81,23,1,1.4,0.3,Time
,,722448,001,女,23,2025-06-04_17h57.04.036,Serial_Dependence_U,2023.2.3,Win32,59.523809523799216,,,,,,1205.2249000000058,234,2,1205.225,234,,,,1209.169800000012,1209.668900000006,1208.6585,1209.1696000000238,1206.2205,1208.658400000006,1209.668900000006,1210.168800000012,1210.168900000006,1211.474800000012,624,1211.475,1,1211.4883000000118,2,22,82,8,1,1.4,0.7,Time
,,722448,001,女,23,2025-06-04_17h57.04.036,Serial_Dependence_U,2023.2.3,Win32,59.523809523799216,,,,,,1211.4886000000238,259,2,1211.4886000000238,259,,,,1215.068600000024,1215.567900000006,1214.557200000018,1215.0685,1212.4861000000237,1214.5571000000239,1215.567900000006,1216.067300000012,1216.067400000006,1217.6225,593,1217.6226000000238,1,1217.629700000018,2,23,83,11,1,1,0.3,Time
,,722448,001,女,23,2025-06-04_17h57.04.036,Serial_Dependence_U,2023.2.3,Win32,59.523809523799216,,,,,,1217.629900000006,106,2,1217.629900000006,106,,,,1221.2176000000238,1221.716700000018,1220.7005,1221.2175,1218.638400000006,1220.7004000000059,1221.716800000012,1222.2165,1222.2166000000238,1224.238100000024,533,1224.238200000018,1,1224.248,2,24,84,1,1,1,0.3,Time
,,722448,001,女,23,2025-06-04_17h57.04.036,Serial_Dependence_U,2023.2.3,Win32,59.523809523799216,,,,,,1224.248200000018,105,2,1224.2484000000059,105,,,,1227.816300000012,1228.3156000000238,1227.303400000006,1227.8161000000239,1225.2667000000179,1227.3033000000119,1228.3157000000178,1228.8154000000059,1228.8155,1230.1557000000178,617,1230.1558000000118,1,1230.1676000000239,2,25,85,26,1,1,0.7,Time
,,722448,001,女,23,2025-06-04_17h57.04.036,Serial_Dependence_U,2023.2.3,Win32,59.523809523799216,,,,,,1230.167800000012,153,2,1230.167800000012,153,,,,1233.904200000018,1234.403300000012,1233.398800000012,1233.9041000000238,1231.1658000000118,1233.398700000018,1234.403300000012,1234.8975,1234.8976000000239,1235.9877000000179,550,1235.987800000012,1,1236.001400000006,2,26,86,17,1,1.2,0.7,Time
,,722448,001,女,23,2025-06-04_17h57.04.036,Serial_Dependence_U,2023.2.3,Win32,59.523809523799216,,,,,,1236.001600000024,212,2,1236.0017000000178,212,,,,1239.5861000000239,1240.079600000024,1239.0699000000059,1239.586,1236.998100000024,1239.069700000018,1240.079700000018,1240.5801000000238,1240.5802000000178,1241.7701000000238,533,1241.770200000018,1,1241.7826000000239,2,27,87,21,1,1,0.3,Time
,,722448,001,女,23,2025-06-04_17h57.04.036,Serial_Dependence_U,2023.2.3,Win32,59.523809523799216,,,,,,1241.782800000012,354,2,1241.782800000012,354,,,,1245.1517000000179,1245.6506000000238,1244.634,1245.1517000000179,1242.796800000012,1244.633900000006,1245.6507000000179,1246.145400000006,1246.1455,1246.7694999999999,484,1246.7694999999999,1,1246.7835,2,28,88,15,1,0.8,0.7,Time
,,722448,001,女,23,2025-06-04_17h57.04.036,Serial_Dependence_U,2023.2.3,Win32,59.523809523799216,,,,,,1246.783900000006,175,2,1246.783900000006,175,,,,1250.134,1250.628,1249.618,1250.133900000006,1247.7829000000058,1249.6179000000059,1250.6281000000238,1251.1281000000238,1251.1282000000178,1251.950100000024,582,1251.950100000024,2,1251.9575,2,29,89,5,1,0.8,0.7,Time
,,722448,001,女,23,2025-06-04_17h57.04.036,Serial_Dependence_U,2023.2.3,Win32,59.523809523799216,,,,,,1251.957700000018,315,3,1320.513800000012,315,s,68.52529999998205,,1324.6821000000239,1325.1807000000179,1324.1717000000178,1324.682,1321.5364000000059,1324.1716000000238,1325.1807000000179,1325.681800000012,1325.681900000006,1327.5215,1024,1327.521600000024,1,1327.5364000000059,3,0,90,9,1,1.6,0.7,Time
,,722448,001,女,23,2025-06-04_17h57.04.036,Serial_Dependence_U,2023.2.3,Win32,59.523809523799216,,,,,,1327.5366000000238,28,3,1327.5375,28,,,,1331.1075,1331.596900000006,1330.586900000006,1331.107300000012,1328.554,1330.586900000006,1331.597,1332.0966000000237,1332.0966000000237,1333.6365,559,1333.6367000000178,1,1333.6502000000178,3,1,91,6,1,1,0.7,Time
,,722448,001,女,23,2025-06-04_17h57.04.036,Serial_Dependence_U,2023.2.3,Win32,59.523809523799216,,,,,,1333.6505,81,3,1333.6506000000238,81,,,,1337.6524000000059,1338.145600000024,1337.136300000012,1337.6523000000118,1334.669800000012,1337.1361000000238,1338.145600000024,1338.644900000006,1338.644900000006,1340.2351000000237,533,1340.2352000000178,1,1340.250400000006,3,2,92,13,1,1.4,0.3,Time
,,722448,001,女,23,2025-06-04_17h57.04.036,Serial_Dependence_U,2023.2.3,Win32,59.523809523799216,,,,,,1340.250900000006,86,3,1340.251200000018,86,,,,1343.7954000000059,1344.294800000012,1343.283800000012,1343.7953000000118,1341.2511000000238,1343.283700000018,1344.294800000012,1344.7939999999999,1344.7939999999999,1346.185,433,1346.1851000000238,1,1346.1983000000118,3,3,93,16,1,1,0.7,Time
,,722448,001,女,23,2025-06-04_17h57.04.036,Serial_Dependence_U,2023.2.3,Win32,59.523809523799216,,,,,,1346.1985,344,3,1346.1985,344,,,,1349.9951000000237,1350.498,1349.4782000000178,1349.995,1347.2118000000119,1349.478,1350.498,1350.994,1350.994,1351.8008000000118,550,1351.8009000000059,1,1351.8132000000178,3,4,94,12,1,1.2,0.3,Time
,,722448,001,女,23,2025-06-04_17h57.04.036,Serial_Dependence_U,2023.2.3,Win32,59.523809523799216,,,,,,1351.8135,194,3,1351.8136000000238,194,,,,1355.999200000018,1356.492300000012,1355.493700000018,1355.999,1352.8316000000239,1355.493700000018,1356.492400000006,1356.9925,1356.9925,1357.883,484,1357.883100000024,1,1357.896,3,5,95,4,1,1.6,0.3,Time
,,722448,001,女,23,2025-06-04_17h57.04.036,Serial_Dependence_U,2023.2.3,Win32,59.523809523799216,,,,,,1357.8962000000179,323,3,1357.896300000012,323,,,,1361.8636000000238,1362.358400000006,1361.342800000012,1361.8635,1358.9103000000118,1361.3427000000179,1362.358400000006,1362.858300000012,1362.858400000006,1363.9481000000237,817,1363.9482000000178,1,1363.9616000000237,3,6,96,28,1,1.4,0.7,Time
,,722448,001,女,23,2025-06-04_17h57.04.036,Serial_Dependence_U,2023.2.3,Win32,59.523809523799216,,,,,,1363.961900000006,174,3,1363.961900000006,174,,,,1367.3247000000179,1367.823800000012,1366.8086000000237,1367.3246000000238,1364.9751000000238,1366.808400000006,1367.823800000012,1368.323900000006,1368.324100000024,1369.897,700,1369.8971000000238,2,1369.910900000006,3,7,97,25,1,0.8,0.7,Time
,,722448,001,女,23,2025-06-04_17h57.04.036,Serial_Dependence_U,2023.2.3,Win32,59.523809523799216,,,,,,1369.911200000018,61,3,1369.911200000018,61,,,,1373.6782000000178,1374.172900000006,1373.1615,1373.6782000000178,1370.9241000000238,1373.1614000000059,1374.172900000006,1374.6726000000237,1374.6726000000237,1376.6628000000119,867,1376.662900000006,2,1376.6759000000059,3,8,98,7,1,1.2,0.7,Time
,,722448,001,女,23,2025-06-04_17h57.04.036,Serial_Dependence_U,2023.2.3,Win32,59.523809523799216,,,,,,1376.6761000000238,129,3,1376.6761000000238,129,,,,1380.0262000000178,1380.5218000000118,1379.511600000024,1380.0262000000178,1377.673200000018,1379.511400000006,1380.5219000000059,1381.021700000018,1381.0218000000118,1382.2127000000178,730,1382.2128000000118,2,1382.226400000006,3,9,99,15,1,0.8,0.7,Time
,,722448,001,女,23,2025-06-04_17h57.04.036,Serial_Dependence_U,2023.2.3,Win32,59.523809523799216,,,,,,1382.2266000000238,8,3,1382.226700000018,8,,,,1385.9716000000237,1386.4708000000119,1385.4607000000178,1385.9714999999999,1383.2273000000118,1385.4605,1386.4708000000119,1386.97,1386.97,1387.877700000018,485,1387.8778000000118,1,1387.891800000012,3,10,100,17,1,1.2,0.7,Time
,,722448,001,女,23,2025-06-04_17h57.04.036,Serial_Dependence_U,2023.2.3,Win32,59.523809523799216,,,,,,1387.892100000024,329,3,1387.892100000024,329,,,,1391.4428000000119,1391.936,1390.926300000012,1391.4427000000178,1388.887700000018,1390.926300000012,1391.936,1392.436300000012,1392.436400000006,1393.743,583,1393.743,1,1393.7565,3,11,101,26,1,1,0.7,Time
,,722448,001,女,23,2025-06-04_17h57.04.036,Serial_Dependence_U,2023.2.3,Win32,59.523809523799216,,,,,,1393.7567000000179,182,3,1393.756800000012,182,,,,1397.1365,1397.635300000012,1396.6251000000238,1397.136300000012,1394.753400000006,1396.625,1397.635400000006,1398.135,1398.1351000000238,1399.6254999999999,766,1399.6256000000237,3,1399.6382000000178,3,12,102,0,1,0.8,0.3,Time
,,722448,001,女,23,2025-06-04_17h57.04.036,Serial_Dependence_U,2023.2.3,Win32,59.523809523799216,,,,,,1399.638400000006,255,3,1399.638400000006,255,,,,1403.2239000000059,1403.7177000000179,1402.7024999999999,1403.2238000000118,1400.640700000018,1402.702400000006,1403.7177000000179,1404.2173000000118,1404.2173000000118,1405.6246000000237,843,1405.6246000000237,2,1405.637600000024,3,13,103,1,1,1,0.3,Time
,,722448,001,女,23,2025-06-04_17h57.04.036,Serial_Dependence_U,2023.2.3,Win32,59.523809523799216,,,,,,1405.6378000000118,308,3,1405.638,308,,,,1408.984,1409.483400000006,1408.472,1408.9839000000059,1406.6401000000237,1408.4718000000119,1409.483400000006,1409.9829000000059,1409.9829000000059,1410.9392000000178,766,1410.9392000000178,3,1410.9462000000178,3,14,104,5,1,0.8,0.7,Time
,,722448,001,女,23,2025-06-04_17h57.04.036,Serial_Dependence_U,2023.2.3,Win32,59.523809523799216,,,,,,1410.9465,69,3,1410.9466000000239,69,,,,1415.122,1415.6148000000119,1414.619900000006,1415.121800000012,1411.9542000000179,1414.619800000012,1415.6148000000119,1416.114900000006,1416.1151000000239,1417.370900000006,617,1417.370900000006,1,1417.3803000000119,3,15,105,14,1,1.6,0.3,Time
,,722448,001,女,23,2025-06-04_17h57.04.036,Serial_Dependence_U,2023.2.3,Win32,59.523809523799216,,,,,,1417.3806000000238,106,3,1417.380800000012,106,,,,1420.965300000012,1421.4638000000118,1420.454600000024,1420.9652000000178,1418.3871000000238,1420.4545,1421.4638000000118,1421.963600000024,1421.963600000024,1423.235700000018,749,1423.235800000012,2,1423.245800000012,3,16,106,21,1,1,0.3,Time
,,722448,001,女,23,2025-06-04_17h57.04.036,Serial_Dependence_U,2023.2.3,Win32,59.523809523799216,,,,,,1423.2462000000178,298,3,1423.2466000000238,298,,,,1427.2016000000237,1427.696,1426.686,1427.2015,1424.252600000024,1426.686,1427.696,1428.1961000000238,1428.1961000000238,1429.5366000000238,551,1429.5366000000238,1,1429.5495,3,17,107,8,1,1.4,0.7,Time
,,722448,001,女,23,2025-06-04_17h57.04.036,Serial_Dependence_U,2023.2.3,Win32,59.523809523799216,,,,,,1429.5497000000178,318,3,1429.5497000000178,318,,,,1433.717400000006,1434.211400000006,1433.202400000006,1433.717400000006,1430.569400000006,1433.202300000012,1434.211400000006,1434.7121000000238,1434.712200000018,1436.985400000006,765,1436.9855,1,1436.998800000012,3,18,108,19,1,1.6,0.7,Time
,,722448,001,女,23,2025-06-04_17h57.04.036,Serial_Dependence_U,2023.2.3,Win32,59.523809523799216,,,,,,1436.998900000006,273,3,1436.999,273,,,,1441.150400000006,1441.644200000018,1440.633800000012,1441.1503000000118,1438.0011000000238,1440.6336000000238,1441.644200000018,1442.144,1442.144,1443.217800000012,802,1443.217900000006,1,1443.2327000000178,3,19,109,29,1,1.6,0.7,Time
,,722448,001,女,23,2025-06-04_17h57.04.036,Serial_Dependence_U,2023.2.3,Win32,59.523809523799216,,,,,,1443.233,80,3,1443.2331000000238,80,,,,1447.0111000000238,1447.51,1446.497900000006,1447.010900000006,1444.247800000012,1446.497800000012,1447.5101000000238,1448.009400000006,1448.0095,1449.865900000006,716,1449.866,1,1449.879,3,20,110,27,1,1.2,0.7,Time
,,722448,001,女,23,2025-06-04_17h57.04.036,Serial_Dependence_U,2023.2.3,Win32,59.523809523799216,,,,,,1449.8791000000238,99,3,1449.8792000000178,99,,,,1453.659700000018,1454.158,1453.1479000000058,1453.6595,1450.8816000000238,1453.147700000018,1454.158,1454.6585,1454.6586000000239,1456.098700000018,835,1456.098700000018,1,1456.111700000018,3,21,111,22,1,1.2,0.3,Time
,,722448,001,女,23,2025-06-04_17h57.04.036,Serial_Dependence_U,2023.2.3,Win32,59.523809523799216,,,,,,1456.111900000006,94,3,1456.112,94,,,,1459.508200000018,1460.0073000000118,1458.9974000000059,1459.508100000024,1457.125400000006,1458.9974000000059,1460.0073000000118,1460.5077000000178,1460.5077000000178,1461.9316000000238,734,1461.9317000000178,2,1461.9461000000238,3,22,112,10,1,0.8,0.3,Time
,,722448,001,女,23,2025-06-04_17h57.04.036,Serial_Dependence_U,2023.2.3,Win32,59.523809523799216,,,,,,1461.946400000006,90,3,1461.946400000006,90,,,,1465.9448000000118,1466.439800000012,1465.43,1465.944700000018,1462.946300000012,1465.429900000006,1466.439900000006,1466.9395,1466.9395,1468.381,851,1468.381100000024,1,1468.3915,3,23,113,3,1,1.4,0.3,Time
,,722448,001,女,23,2025-06-04_17h57.04.036,Serial_Dependence_U,2023.2.3,Win32,59.523809523799216,,,,,,1468.3917000000179,12,3,1468.3917000000179,12,,,,1471.976800000012,1472.472200000018,1471.4617000000178,1471.9766000000238,1469.3901000000237,1471.4616000000237,1472.472200000018,1472.972200000018,1472.972200000018,1474.662200000018,993,1474.662200000018,3,1474.675700000018,3,24,114,11,1,1,0.3,Time
,,722448,001,女,23,2025-06-04_17h57.04.036,Serial_Dependence_U,2023.2.3,Win32,59.523809523799216,,,,,,1474.6759000000059,154,3,1474.676,154,,,,1478.8603000000119,1479.354200000018,1478.344,1478.8602000000178,1475.675600000024,1478.343800000012,1479.354200000018,1479.854100000024,1479.854200000018,1481.6275,1033,1481.627600000024,1,1481.642,3,25,115,24,1,1.6,0.3,Time
,,722448,001,女,23,2025-06-04_17h57.04.036,Serial_Dependence_U,2023.2.3,Win32,59.523809523799216,,,,,,1481.6423000000118,36,3,1481.6425,36,,,,1485.042300000012,1485.536200000018,1484.526900000006,1485.0422000000178,1482.654400000006,1484.526800000012,1485.536200000018,1486.035800000012,1486.036,1487.609700000018,800,1487.609800000012,3,1487.6226000000238,3,26,116,20,1,0.8,0.3,Time
,,722448,001,女,23,2025-06-04_17h57.04.036,Serial_Dependence_U,2023.2.3,Win32,59.523809523799216,,,,,,1487.622800000012,254,3,1487.622900000006,254,,,,1491.3917000000179,1491.885200000018,1490.886400000006,1491.3916000000238,1488.6201000000237,1490.8862000000179,1491.885300000012,1492.3851000000238,1492.385200000018,1493.692200000018,767,1493.692400000006,1,1493.705,3,27,117,2,1,1.2,0.3,Time
,,722448,001,女,23,2025-06-04_17h57.04.036,Serial_Dependence_U,2023.2.3,Win32,59.523809523799216,,,,,,1493.705300000012,167,3,1493.705300000012,167,,,,1497.7016000000237,1498.2005,1497.1906000000238,1497.7014000000058,1494.722900000006,1497.1905,1498.2005,1498.7007000000178,1498.700800000012,1500.3571000000238,875,1500.3572000000179,1,1500.3711000000237,3,28,118,23,1,1.4,0.3,Time
,,722448,001,女,23,2025-06-04_17h57.04.036,Serial_Dependence_U,2023.2.3,Win32,59.523809523799216,,,,,,1500.371400000006,48,3,1500.3715,48,,,,1504.3555,1504.8496000000239,1503.8399000000059,1504.355300000012,1501.3895,1503.8398000000118,1504.849700000018,1505.349,1505.349,1506.6896000000238,617,1506.689800000012,1,1506.7024999999999,3,29,119,18,1,1.4,0.7,Time
,,722448,001,女,23,2025-06-04_17h57.04.036,Serial_Dependence_U,2023.2.3,Win32,59.523809523799216,,,,,,1506.7028000000118,284,4,1532.9381000000237,284,s,26.209099999994123,,1536.711400000006,1537.2105,1536.2,1536.711300000012,1533.932200000018,1536.199800000012,1537.2106000000238,1537.7105,1537.7106000000238,1539.617400000006,667,1539.6175,1,1539.6303000000119,4,0,120,22,1,1.2,0.3,Time
,,722448,001,女,23,2025-06-04_17h57.04.036,Serial_Dependence_U,2023.2.3,Win32,59.523809523799216,,,,,,1539.6305,85,4,1539.6317000000179,85,,,,1543.7766000000238,1544.2755,1543.2655,1543.7765,1540.631,1543.265400000006,1544.2755,1544.776,1544.776,1546.265700000018,833,1546.265800000012,1,1546.2791000000238,4,1,121,9,1,1.6,0.7,Time
,,722448,001,女,23,2025-06-04_17h57.04.036,Serial_Dependence_U,2023.2.3,Win32,59.523809523799216,,,,,,1546.2794999999999,336,4,1546.2796000000237,336,,,,1549.6758000000118,1550.1747000000178,1549.1652000000179,1549.675600000024,1547.281700000018,1549.165,1550.1747000000178,1550.662900000006,1550.663,1552.065200000018,832,1552.0653000000118,3,1552.078400000006,4,2,122,10,1,0.8,0.3,Time
,,722448,001,女,23,2025-06-04_17h57.04.036,Serial_Dependence_U,2023.2.3,Win32,59.523809523799216,,,,,,1552.078600000024,271,4,1552.0788000000118,271,,,,1555.6625,1556.1569000000059,1555.1462000000179,1555.6625,1553.0755,1555.1462000000179,1556.1569000000059,1556.6568000000118,1556.6568000000118,1557.6638000000119,516,1557.6638000000119,1,1557.6792000000178,4,3,123,21,1,1,0.3,Time
,,722448,001,女,23,2025-06-04_17h57.04.036,Serial_Dependence_U,2023.2.3,Win32,59.523809523799216,,,,,,1557.679400000006,181,4,1557.6795,181,,,,1561.4777000000179,1561.973,1560.9607000000178,1561.4775,1558.6965,1560.9606000000238,1561.973,1562.4728000000118,1562.472900000006,1563.679800000012,643,1563.679900000006,1,1563.692300000012,4,4,124,12,1,1.2,0.3,Time
,,722448,001,女,23,2025-06-04_17h57.04.036,Serial_Dependence_U,2023.2.3,Win32,59.523809523799216,,,,,,1563.6924999999999,158,4,1563.6926000000237,158,,,,1567.643200000018,1568.1381000000238,1567.1226000000238,1567.643200000018,1564.689900000006,1567.1225,1568.1382000000178,1568.638300000012,1568.638400000006,1569.9617000000178,776,1569.9617000000178,1,1569.9745,4,5,125,8,1,1.4,0.7,Time
,,722448,001,女,23,2025-06-04_17h57.04.036,Serial_Dependence_U,2023.2.3,Win32,59.523809523799216,,,,,,1569.974700000018,43,4,1569.9749000000058,43,,,,1573.937900000006,1574.4373000000119,1573.4216000000238,1573.937700000018,1570.988800000012,1573.4215,1574.437400000006,1574.937,1574.9371000000237,1575.894,534,1575.8941000000239,1,1575.9083000000119,4,6,126,18,1,1.4,0.7,Time
,,722448,001,女,23,2025-06-04_17h57.04.036,Serial_Dependence_U,2023.2.3,Win32,59.523809523799216,,,,,,1575.9085,84,4,1575.9086000000239,84,,,,1580.04,1580.535900000006,1579.536900000006,1580.039900000006,1576.904300000012,1579.536800000012,1580.535900000006,1581.0357000000179,1581.035800000012,1582.1926000000237,649,1582.1927000000178,1,1582.207800000012,4,7,127,19,1,1.6,0.7,Time
,,722448,001,女,23,2025-06-04_17h57.04.036,Serial_Dependence_U,2023.2.3,Win32,59.523809523799216,,,,,,1582.208,181,4,1582.208100000024,181,,,,1586.4061000000238,1586.9016000000238,1585.886600000024,1586.4061000000238,1583.224800000012,1585.886400000006,1586.9016000000238,1587.4013000000118,1587.4013000000118,1588.9247000000178,850,1588.9248000000118,1,1588.9385,4,8,128,4,1,1.6,0.3,Time
,,722448,001,女,23,2025-06-04_17h57.04.036,Serial_Dependence_U,2023.2.3,Win32,59.523809523799216,,,,,,1588.938700000018,358,4,1588.938900000006,358,,,,1592.706800000012,1593.2007000000178,1592.188700000018,1592.706700000018,1589.9521000000238,1592.1886000000238,1593.2007000000178,1593.7005,1593.7006000000238,1595.474300000012,1017,1595.474300000012,2,1595.487800000012,4,9,129,27,1,1.2,0.7,Time
,,722448,001,女,23,2025-06-04_17h57.04.036,Serial_Dependence_U,2023.2.3,Win32,59.523809523799216,,,,,,1595.488,4,4,1595.488100000024,4,,,,1599.0505,1599.5497000000178,1598.5397000000178,1599.050300000012,1596.5043000000119,1598.5395,1599.5497000000178,1600.054400000006,1600.054400000006,1601.323800000012,768,1601.323900000006,2,1601.3361000000239,4,10,130,6,1,1,0.7,Time
,,722448,001,女,23,2025-06-04_17h57.04.036,Serial_Dependence_U,2023.2.3,Win32,59.523809523799216,,,,,,1601.336400000006,332,4,1601.336400000006,332,,,,1605.332400000006,1605.831700000018,1604.8223000000119,1605.3323000000119,1602.338300000012,1604.8221000000237,1605.831700000018,1606.331800000012,1606.331800000012,1607.572700000018,633,1607.572800000012,1,1607.585900000006,4,11,131,13,1,1.4,0.3,Time
,,722448,001,女,23,2025-06-04_17h57.04.036,Serial_Dependence_U,2023.2.3,Win32,59.523809523799216,,,,,,1607.586,12,4,1607.5861000000239,12,,,,1611.1481000000238,1611.647400000006,1610.6379000000059,1611.148,1608.598700000018,1610.6379000000059,1611.647400000006,1612.147300000012,1612.147300000012,1613.7042000000179,584,1613.7042000000179,1,1613.7152000000178,4,12,132,26,1,1,0.7,Time
,,722448,001,女,23,2025-06-04_17h57.04.036,Serial_Dependence_U,2023.2.3,Win32,59.523809523799216,,,,,,1613.7155,148,4,1613.7156000000239,148,,,,1617.8969000000059,1618.3958000000118,1617.380700000018,1617.8968000000118,1614.714400000006,1617.3806000000238,1618.395900000006,1618.8958000000118,1618.895900000006,1619.9695,517,1619.9695,1,1619.9825,4,13,133,24,1,1.6,0.3,Time
,,722448,001,女,23,2025-06-04_17h57.04.036,Serial_Dependence_U,2023.2.3,Win32,59.523809523799216,,,,,,1619.9828000000118,270,4,1619.9828000000118,270,,,,1623.3515,1623.845200000018,1622.8466000000237,1623.3513000000119,1620.984700000018,1622.846400000006,1623.845300000012,1624.344900000006,1624.345,1625.4517000000178,549,1625.4517000000178,1,1625.465700000018,4,14,134,0,1,0.8,0.3,Time
,,722448,001,女,23,2025-06-04_17h57.04.036,Serial_Dependence_U,2023.2.3,Win32,59.523809523799216,,,,,,1625.4659000000058,299,4,1625.466,299,,,,1629.667,1630.1606000000238,1629.151100000024,1629.6669000000059,1626.483600000024,1629.151,1630.1607000000179,1630.6605,1630.6606000000238,1631.984,566,1631.9841000000238,1,1631.998200000018,4,15,135,14,1,1.6,0.3,Time
,,722448,001,女,23,2025-06-04_17h57.04.036,Serial_Dependence_U,2023.2.3,Win32,59.523809523799216,,,,,,1631.9984000000059,202,4,1631.9985,202,,,,1635.7606000000237,1636.2598000000119,1635.250300000012,1635.7605,1633.0145,1635.2501000000238,1636.2598000000119,1636.759200000018,1636.759300000012,1637.8166000000238,816,1637.8167000000178,1,1637.8312000000178,4,16,136,7,1,1.2,0.7,Time
,,722448,001,女,23,2025-06-04_17h57.04.036,Serial_Dependence_U,2023.2.3,Win32,59.523809523799216,,,,,,1637.8315,139,4,1637.8316000000239,139,,,,1641.1965,1641.692200000018,1640.6815,1641.196400000006,1638.8432000000178,1640.6814000000059,1641.692200000018,1642.196700000018,1642.196700000018,1643.315800000012,566,1643.315900000006,2,1643.3298000000118,4,17,137,5,1,0.8,0.7,Time
,,722448,001,女,23,2025-06-04_17h57.04.036,Serial_Dependence_U,2023.2.3,Win32,59.523809523799216,,,,,,1643.3299000000059,98,4,1643.33,98,,,,1646.914300000012,1647.407300000012,1646.3968000000118,1646.9141000000238,1644.3261000000239,1646.396700000018,1647.407400000006,1647.895400000006,1647.8955,1648.2915,358,1648.291600000024,1,1648.3047000000179,4,18,138,1,1,1,0.3,Time
,,722448,001,女,23,2025-06-04_17h57.04.036,Serial_Dependence_U,2023.2.3,Win32,59.523809523799216,,,,,,1648.304900000006,346,4,1648.304900000006,346,,,,1652.462900000006,1652.9561000000238,1651.946800000012,1652.4627000000178,1649.3135,1651.9466000000239,1652.9562000000178,1653.4561000000238,1653.4562000000178,1654.212200000018,717,1654.212300000012,1,1654.222,4,19,139,29,1,1.6,0.7,Time
,,722448,001,女,23,2025-06-04_17h57.04.036,Serial_Dependence_U,2023.2.3,Win32,59.523809523799216,,,,,,1654.222300000012,216,4,1654.222300000012,216,,,,1658.1783000000119,1658.671800000012,1657.661800000012,1658.1782000000178,1655.2273000000118,1657.6617000000178,1658.671800000012,1659.172,1659.172,1660.5251000000237,763,1660.5252000000178,1,1660.533800000012,4,20,140,28,1,1.4,0.7,Time
,,722448,001,女,23,2025-06-04_17h57.04.036,Serial_Dependence_U,2023.2.3,Win32,59.523809523799216,,,,,,1660.5339999999999,176,4,1660.5341000000237,176,,,,1663.894400000006,1664.388,1663.378400000006,1663.894400000006,1661.5439999999999,1663.378300000012,1664.3881000000238,1664.8875,1664.887600000024,1665.660400000006,717,1665.6605,2,1665.668700000018,4,21,141,25,1,0.8,0.7,Time
,,722448,001,女,23,2025-06-04_17h57.04.036,Serial_Dependence_U,2023.2.3,Win32,59.523809523799216,,,,,,1665.6689999999999,118,4,1665.6689999999999,118,,,,1669.443200000018,1669.9371000000237,1668.9266000000239,1669.4431000000238,1666.6882000000178,1668.9265,1669.9371000000237,1670.441300000012,1670.4414000000058,1671.7435,783,1671.7435,1,1671.7576000000238,4,22,142,17,1,1.2,0.7,Time
,,722448,001,女,23,2025-06-04_17h57.04.036,Serial_Dependence_U,2023.2.3,Win32,59.523809523799216,,,,,,1671.7577000000178,316,4,1671.757800000012,316,,,,1675.7418000000118,1676.2351000000237,1675.225800000012,1675.741600000024,1672.7541000000238,1675.225700000018,1676.2351000000237,1676.735,1676.7351000000237,1678.1927000000178,767,1678.1927000000178,1,1678.2052000000178,4,23,143,23,1,1.4,0.3,Time
,,722448,001,女,23,2025-06-04_17h57.04.036,Serial_Dependence_U,2023.2.3,Win32,59.523809523799216,,,,,,1678.205400000006,215,4,1678.205400000006,215,,,,1681.5577000000178,1682.051300000012,1681.041700000018,1681.5577000000178,1679.2085,1681.0415,1682.051400000006,1682.5516000000239,1682.5516000000239,1683.7919000000059,633,1683.792,2,1683.8053000000118,4,24,144,15,1,0.8,0.7,Time
,,722448,001,女,23,2025-06-04_17h57.04.036,Serial_Dependence_U,2023.2.3,Win32,59.523809523799216,,,,,,1683.8056000000238,21,4,1683.8056000000238,21,,,,1687.3513000000119,1687.8503000000119,1686.8412000000178,1687.3512000000178,1684.8071000000239,1686.841,1687.8503000000119,1688.350400000006,1688.350400000006,1691.1005,480,1691.1006000000239,1,1691.1144000000058,4,25,145,16,1,1,0.7,Time
,,722448,001,女,23,2025-06-04_17h57.04.036,Serial_Dependence_U,2023.2.3,Win32,59.523809523799216,,,,,,1691.1146000000238,165,4,1691.1147000000178,165,,,,1695.0996000000239,1695.599300000012,1694.5888000000118,1695.0995,1692.1223000000118,1694.5887000000178,1695.599300000012,1696.098600000024,1696.098600000024,1697.007100000024,685,1697.0073000000118,1,1697.0181000000239,4,26,146,3,1,1.4,0.3,Time
,,722448,001,女,23,2025-06-04_17h57.04.036,Serial_Dependence_U,2023.2.3,Win32,59.523809523799216,,,,,,1697.018300000012,76,4,1697.0184000000058,76,,,,1700.598700000018,1701.0978000000118,1700.082800000012,1700.598600000024,1698.016,1700.0826000000238,1701.0978000000118,1701.597600000024,1701.5977000000178,1702.8055,550,1702.8056000000238,1,1702.8199000000059,4,27,147,11,1,1,0.3,Time
,,722448,001,女,23,2025-06-04_17h57.04.036,Serial_Dependence_U,2023.2.3,Win32,59.523809523799216,,,,,,1702.8202000000178,155,4,1702.820300000012,155,,,,1706.619900000006,1707.1137000000178,1706.1034000000059,1706.619800000012,1703.831900000006,1706.1033000000118,1707.113800000012,1707.613800000012,1707.613800000012,1708.387300000012,583,1708.387400000006,1,1708.4016000000238,4,28,148,2,1,1.2,0.3,Time
,,722448,001,女,23,2025-06-04_17h57.04.036,Serial_Dependence_U,2023.2.3,Win32,59.523809523799216,,,,,,1708.401800000012,122,4,1708.401900000006,122,,,,1711.785400000006,1712.2794999999999,1711.264,1711.7853000000118,1709.3972000000178,1711.2639000000058,1712.2794999999999,1712.779400000006,1712.779400000006,1713.5964999999999,385,1713.5967000000178,1,1713.6096000000239,4,29,149,20,1,0.8,0.3,Time
,,722448,001,女,23,2025-06-04_17h57.04.036,Serial_Dependence_U,2023.2.3,Win32,59.523809523799216,,,,,,1713.609800000012,294,5,1753.5036000000239,294,s,39.85940000000596,,1756.8781000000238,1757.371,1756.3725,1756.878,1754.5095,1756.3724000000059,1757.371,1757.8713000000118,1757.8713000000118,1759.0051000000237,373,1759.0052000000178,1,1759.018,5,0,150,10,1,0.8,0.3,Time
,,722448,001,女,23,2025-06-04_17h57.04.036,Serial_Dependence_U,2023.2.3,Win32,59.523809523799216,,,,,,1759.018200000018,150,5,1759.019400000006,150,,,,1762.410100000024,1762.9038000000119,1761.8879000000059,1762.41,1760.0256000000238,1761.8878000000118,1762.903900000006,1763.4038000000119,1763.4038000000119,1764.3432000000178,367,1764.3433000000118,1,1764.3581000000238,5,1,151,0,1,0.8,0.3,Time
,,722448,001,女,23,2025-06-04_17h57.04.036,Serial_Dependence_U,2023.2.3,Win32,59.523809523799216,,,,,,1764.358400000006,161,5,1764.358400000006,161,,,,1767.703600000024,1768.2028000000118,1767.192200000018,1767.7035,1765.359800000012,1767.192200000018,1768.2028000000118,1768.7024999999999,1768.7026000000237,1769.4435,517,1769.443600000024,1,1769.457700000018,5,2,152,5,1,0.8,0.7,Time
,,722448,001,女,23,2025-06-04_17h57.04.036,Serial_Dependence_U,2023.2.3,Win32,59.523809523799216,,,,,,1769.457900000006,307,5,1769.458,307,,,,1772.808300000012,1773.3011000000238,1772.291600000024,1772.808200000018,1770.453200000018,1772.291400000006,1773.3011000000238,1773.8016000000239,1773.8016000000239,1774.9231000000239,613,1774.9231000000239,2,1774.9327000000178,5,3,153,25,1,0.8,0.7,Time
,,722448,001,女,23,2025-06-04_17h57.04.036,Serial_Dependence_U,2023.2.3,Win32,59.523809523799216,,,,,,1774.933,41,5,1774.933,41,,,,1779.101800000012,1779.600700000018,1778.590400000006,1779.1016000000238,1775.940900000006,1778.590400000006,1779.600800000012,1780.100700000018,1780.100700000018,1781.4898000000119,851,1781.489900000006,1,1781.496800000012,5,4,154,9,1,1.6,0.7,Time
,,722448,001,女,23,2025-06-04_17h57.04.036,Serial_Dependence_U,2023.2.3,Win32,59.523809523799216,,,,,,1781.497,318,5,1781.497100000024,318,,,,1784.900900000006,1785.3992000000178,1784.389400000006,1784.900800000012,1782.5174000000059,1784.3892000000178,1785.3993000000119,1785.899800000012,1785.899800000012,1787.407300000012,882,1787.407300000012,4,1787.421200000018,5,5,155,20,1,0.8,0.3,Time
,,722448,001,女,23,2025-06-04_17h57.04.036,Serial_Dependence_U,2023.2.3,Win32,59.523809523799216,,,,,,1787.4216000000238,112,5,1787.421800000012,112,,,,1791.3716000000238,1791.865,1790.854800000012,1791.3715,1788.416700000018,1790.8547000000178,1791.8651000000239,1792.365,1792.365,1793.5055,717,1793.5056000000238,1,1793.5184000000058,5,6,156,8,1,1.4,0.7,Time
,,722448,001,女,23,2025-06-04_17h57.04.036,Serial_Dependence_U,2023.2.3,Win32,59.523809523799216,,,,,,1793.5186000000238,209,5,1793.5187000000178,209,,,,1797.2655,1797.7635,1796.752,1797.265400000006,1794.515400000006,1796.751900000006,1797.7635,1798.263400000006,1798.263400000006,1800.0709000000058,717,1800.071,1,1800.0867000000178,5,7,157,7,1,1.2,0.7,Time
,,722448,001,女,23,2025-06-04_17h57.04.036,Serial_Dependence_U,2023.2.3,Win32,59.523809523799216,,,,,,1800.086900000006,311,5,1800.086900000006,311,,,,1803.664,1804.163300000012,1803.1524000000059,1803.663900000006,1801.086400000006,1803.1523000000118,1804.163300000012,1804.6631000000239,1804.663200000018,1805.320700000018,567,1805.320700000018,1,1805.3347000000178,5,8,158,11,1,1,0.3,Time
,,722448,001,女,23,2025-06-04_17h57.04.036,Serial_Dependence_U,2023.2.3,Win32,59.523809523799216,,,,,,1805.335,290,5,1805.335,290,,,,1809.101800000012,1809.5951000000239,1808.596200000018,1809.1016000000238,1806.333800000012,1808.5961000000239,1809.5951000000239,1810.0955,1810.0956000000238,1811.512600000024,458,1811.512600000024,1,1811.524800000012,5,9,159,22,1,1.2,0.3,Time
,,722448,001,女,23,2025-06-04_17h57.04.036,Serial_Dependence_U,2023.2.3,Win32,59.523809523799216,,,,,,1811.5251000000237,230,5,1811.5252000000178,230,,,,1815.712,1816.210900000006,1815.2017000000178,1815.711900000006,1812.529,1815.2015,1816.210900000006,1816.710900000006,1816.711,1817.9511000000239,612,1817.9511000000239,1,1817.9639000000059,5,10,160,24,1,1.6,0.3,Time
,,722448,001,女,23,2025-06-04_17h57.04.036,Serial_Dependence_U,2023.2.3,Win32,59.523809523799216,,,,,,1817.9642000000179,142,5,1817.9642000000179,142,,,,1821.549400000006,1822.043400000006,1821.033400000006,1821.549300000012,1818.961200000018,1821.0333000000119,1822.043400000006,1822.531,1822.5311000000238,1823.727,475,1823.7271000000237,1,1823.7397000000178,5,11,161,1,1,1,0.3,Time
,,722448,001,女,23,2025-06-04_17h57.04.036,Serial_Dependence_U,2023.2.3,Win32,59.523809523799216,,,,,,1823.739900000006,174,5,1823.74,174,,,,1827.493,1827.9922000000179,1826.9816000000237,1827.4929000000059,1824.748800000012,1826.9814999999999,1827.9922000000179,1828.491900000006,1828.491900000006,1830.098600000024,783,1830.098700000018,1,1830.111400000006,5,12,162,27,1,1.2,0.7,Time
,,722448,001,女,23,2025-06-04_17h57.04.036,Serial_Dependence_U,2023.2.3,Win32,59.523809523799216,,,,,,1830.1116000000238,336,5,1830.1116000000238,336,,,,1833.8975,1834.391,1833.391100000024,1833.897400000006,1831.1258000000118,1833.391,1834.391,1834.891100000024,1834.8912000000178,1836.214600000024,662,1836.2148000000118,1,1836.229,5,13,163,12,1,1.2,0.3,Time
,,722448,001,女,23,2025-06-04_17h57.04.036,Serial_Dependence_U,2023.2.3,Win32,59.523809523799216,,,,,,1836.229200000018,336,5,1836.2293000000118,336,,,,1840.18,1840.673300000012,1839.6783000000119,1840.179800000012,1837.2466000000238,1839.6781000000237,1840.673300000012,1841.1728000000119,1841.172900000006,1842.8792000000178,934,1842.8793000000119,1,1842.891900000006,5,14,164,18,1,1.4,0.7,Time
,,722448,001,女,23,2025-06-04_17h57.04.036,Serial_Dependence_U,2023.2.3,Win32,59.523809523799216,,,,,,1842.892200000018,96,5,1842.8924000000059,96,,,,1847.072700000018,1847.571900000006,1846.5619000000058,1847.0726000000238,1843.8957000000178,1846.561700000018,1847.571900000006,1848.071300000012,1848.071400000006,1849.6793000000118,736,1849.679400000006,1,1849.6941000000238,5,15,165,4,1,1.6,0.3,Time
,,722448,001,女,23,2025-06-04_17h57.04.036,Serial_Dependence_U,2023.2.3,Win32,59.523809523799216,,,,,,1849.6945,109,5,1849.6945,109,,,,1853.4777000000179,1853.9708000000119,1852.959900000006,1853.4775,1850.694600000024,1852.959900000006,1853.9708000000119,1854.4705,1854.4706000000238,1856.027800000012,966,1856.027800000012,2,1856.0418000000118,5,16,166,2,1,1.2,0.3,Time
,,722448,001,女,23,2025-06-04_17h57.04.036,Serial_Dependence_U,2023.2.3,Win32,59.523809523799216,,,,,,1856.042,165,5,1856.042300000012,165,,,,1860.2097000000178,1860.703,1859.707700000018,1860.2095,1857.0374000000058,1859.7076000000238,1860.7031000000238,1861.2028000000118,1861.202900000006,1862.1602000000178,517,1862.1603000000118,1,1862.174300000012,5,17,167,14,1,1.6,0.3,Time
,,722448,001,女,23,2025-06-04_17h57.04.036,Serial_Dependence_U,2023.2.3,Win32,59.523809523799216,,,,,,1862.1745,256,5,1862.174600000024,256,,,,1866.1695,1866.668700000018,1865.6527000000178,1866.169400000006,1863.1866000000239,1865.6525,1866.668700000018,1867.1681000000237,1867.1681000000237,1868.3754999999999,677,1868.3756000000237,1,1868.388,5,18,168,3,1,1.4,0.3,Time
,,722448,001,女,23,2025-06-04_17h57.04.036,Serial_Dependence_U,2023.2.3,Win32,59.523809523799216,,,,,,1868.3882000000178,192,5,1868.388400000006,192,,,,1871.956800000012,1872.4506000000238,1871.452,1871.956800000012,1869.4082000000178,1871.452,1872.4507000000178,1872.950900000006,1872.951,1874.542300000012,694,1874.5425,1,1874.5554000000059,5,19,169,26,1,1,0.7,Time
,,722448,001,女,23,2025-06-04_17h57.04.036,Serial_Dependence_U,2023.2.3,Win32,59.523809523799216,,,,,,1874.5556000000238,67,5,1874.5557000000179,67,,,,1878.690100000024,1879.183,1878.188900000006,1878.69,1875.555900000006,1878.188900000006,1879.183,1879.6825,1879.6826000000237,1881.039900000006,776,1881.04,1,1881.0535,5,20,170,29,1,1.6,0.7,Time
,,722448,001,女,23,2025-06-04_17h57.04.036,Serial_Dependence_U,2023.2.3,Win32,59.523809523799216,,,,,,1881.053800000012,108,5,1881.053800000012,108,,,,1884.399400000006,1884.898700000018,1883.888700000018,1884.3992000000178,1882.0553000000118,1883.8886000000239,1884.898700000018,1885.3985,1885.398700000018,1886.505700000018,633,1886.505800000012,2,1886.5191000000239,5,21,171,15,1,0.8,0.7,Time
,,722448,001,女,23,2025-06-04_17h57.04.036,Serial_Dependence_U,2023.2.3,Win32,59.523809523799216,,,,,,1886.519300000012,252,5,1886.519300000012,252,,,,1890.665300000012,1891.1638000000119,1890.152,1890.6651000000238,1887.515800000012,1890.151800000012,1891.163900000006,1891.6641000000238,1891.664200000018,1892.954,600,1892.9541000000238,1,1892.962300000012,5,22,172,19,1,1.6,0.7,Time
,,722448,001,女,23,2025-06-04_17h57.04.036,Serial_Dependence_U,2023.2.3,Win32,59.523809523799216,,,,,,1892.9625,205,5,1892.9626000000237,205,,,,1896.519300000012,1897.0132000000178,1896.0007000000178,1896.519200000018,1893.9645,1896.0006000000237,1897.0132000000178,1897.5131000000238,1897.5131000000238,1898.4806000000237,380,1898.4807000000178,1,1898.493600000024,5,23,173,6,1,1,0.7,Time
,,722448,001,女,23,2025-06-04_17h57.04.036,Serial_Dependence_U,2023.2.3,Win32,59.523809523799216,,,,,,1898.4939000000059,31,5,1898.494,31,,,,1902.067,1902.561700000018,1901.551400000006,1902.066900000006,1899.5135,1901.551300000012,1902.561700000018,1903.0622000000178,1903.0623000000119,1904.2667000000179,566,1904.2667000000179,1,1904.2736000000239,5,24,174,16,1,1,0.7,Time
,,722448,001,女,23,2025-06-04_17h57.04.036,Serial_Dependence_U,2023.2.3,Win32,59.523809523799216,,,,,,1904.273800000012,210,5,1904.273800000012,210,,,,1908.2508000000118,1908.7441000000238,1907.734400000006,1908.2507000000178,1905.267800000012,1907.734300000012,1908.7442000000178,1909.244300000012,1909.244300000012,1910.251300000012,518,1910.251400000006,1,1910.2641000000237,5,25,175,13,1,1.4,0.3,Time
,,722448,001,女,23,2025-06-04_17h57.04.036,Serial_Dependence_U,2023.2.3,Win32,59.523809523799216,,,,,,1910.2643000000119,29,5,1910.264400000006,29,,,,1914.209900000006,1914.7094000000059,1913.6992000000178,1914.209800000012,1911.2666000000238,1913.699100000024,1914.7094000000059,1915.2096000000238,1915.2096000000238,1916.300400000006,517,1916.3005,1,1916.3147000000179,5,26,176,28,1,1.4,0.7,Time
,,722448,001,女,23,2025-06-04_17h57.04.036,Serial_Dependence_U,2023.2.3,Win32,59.523809523799216,,,,,,1916.315100000024,180,5,1916.315200000018,180,,,,1919.909900000006,1920.408700000018,1919.3962000000179,1919.909800000012,1917.3265,1919.3961000000238,1920.408800000012,1920.897300000012,1920.897300000012,1922.0136000000239,566,1922.013700000018,1,1922.0253000000118,5,27,177,21,1,1,0.3,Time
,,722448,001,女,23,2025-06-04_17h57.04.036,Serial_Dependence_U,2023.2.3,Win32,59.523809523799216,,,,,,1922.0257000000179,197,5,1922.025800000012,197,,,,1925.997400000006,1926.4914000000058,1925.492400000006,1925.997200000018,1923.030100000024,1925.4923000000117,1926.4915,1926.991300000012,1926.991300000012,1928.314900000006,700,1928.3150000000003,1,1928.3295,5,28,178,23,1,1.4,0.3,Time
,,722448,001,女,23,2025-06-04_17h57.04.036,Serial_Dependence_U,2023.2.3,Win32,59.523809523799216,,,,,,1928.3297000000182,164,5,1928.329800000012,164,,,,1932.0912000000183,1932.5900000000004,1931.5800000000002,1932.0910000000001,1929.3418000000122,1931.5799000000063,1932.5901000000242,1933.0780000000002,1933.078100000024,1934.413200000018,750,1934.4133000000122,1,1934.426900000006,5,29,179,17,1,1.2,0.7,Time
,,722448,001,女,23,2025-06-04_17h57.04.036,Serial_Dependence_U,2023.2.3,Win32,59.523809523799216,,,,,,1934.4271000000242,263,6,1985.4940000000004,263,s,51.042800000011994,,1989.6644000000063,1990.1633000000122,1989.1526000000242,1989.6642000000181,1986.520400000006,1989.1526000000242,1990.1633000000122,1990.6633000000122,1990.663400000006,1991.8875,632,1991.887600000024,1,1991.8985,6,0,180,29,1,1.6,0.7,Time
,,722448,001,女,23,2025-06-04_17h57.04.036,Serial_Dependence_U,2023.2.3,Win32,59.523809523799216,,,,,,1991.898800000012,62,6,1991.8998000000122,62,,,,1995.249,1995.7452000000183,1994.7355,1995.2489000000062,1992.8967000000182,1994.7354000000062,1995.745300000012,1996.2455000000002,1996.2455000000002,1997.1853000000121,316,1997.185400000006,1,1997.1976000000238,6,1,181,15,1,0.8,0.7,Time
,,722448,001,女,23,2025-06-04_17h57.04.036,Serial_Dependence_U,2023.2.3,Win32,59.523809523799216,,,,,,1997.197800000012,268,6,1997.1979000000063,268,,,,2000.7678000000121,2001.2610000000002,2000.265900000006,2000.7677000000183,1998.201700000018,2000.2658000000122,2001.261100000024,2001.7612000000179,2001.7613000000122,2002.6995000000004,431,2002.6996000000242,1,2002.7130000000004,6,2,182,21,1,1,0.3,Time
,,722448,001,女,23,2025-06-04_17h57.04.036,Serial_Dependence_U,2023.2.3,Win32,59.523809523799216,,,,,,2002.713200000018,340,6,2002.713300000012,340,,,,2006.2646000000238,2006.7604000000063,2005.7512000000181,2006.2645,2003.7168000000122,2005.7511000000238,2006.7604000000063,2007.2604000000063,2007.2604000000063,2008.150700000018,350,2008.150800000012,1,2008.1641000000238,6,3,183,16,1,1,0.7,Time
,,722448,001,女,23,2025-06-04_17h57.04.036,Serial_Dependence_U,2023.2.3,Win32,59.523809523799216,,,,,,2008.1642000000181,206,6,2008.164300000012,206,,,,2011.747,2012.2429000000063,2011.2323000000122,2011.7469000000062,2009.1608000000122,2011.2322000000179,2012.2429000000063,2012.7427000000182,2012.742800000012,2013.3486000000241,401,2013.348700000018,1,2013.3585,6,4,184,1,1,1,0.3,Time
,,722448,001,女,23,2025-06-04_17h57.04.036,Serial_Dependence_U,2023.2.3,Win32,59.523809523799216,,,,,,2013.3587000000182,199,6,2013.358800000012,199,,,,2017.548,2018.0414000000062,2017.043200000018,2017.548,2014.3764000000062,2017.0431000000242,2018.0414000000062,2018.5300000000004,2018.5301000000243,2019.6149000000062,406,2019.6151000000239,1,2019.6289000000063,6,5,185,24,1,1.6,0.3,Time
,,722448,001,女,23,2025-06-04_17h57.04.036,Serial_Dependence_U,2023.2.3,Win32,59.523809523799216,,,,,,2019.629100000024,143,6,2019.629300000012,143,,,,2023.797200000018,2024.290400000006,2023.280300000012,2023.797100000024,2020.631100000024,2023.280200000018,2024.290400000006,2024.7906000000241,2024.790700000018,2026.545200000018,910,2026.5453000000123,1,2026.5529000000063,6,6,186,9,1,1.6,0.7,Time
,,722448,001,女,23,2025-06-04_17h57.04.036,Serial_Dependence_U,2023.2.3,Win32,59.523809523799216,,,,,,2026.553100000024,143,6,2026.5532000000183,143,,,,2030.7568000000122,2031.255800000012,2030.245600000024,2030.756600000024,2027.574200000018,2030.2454000000064,2031.255800000012,2031.7556000000238,2031.7556000000238,2033.3792000000183,684,2033.3792000000183,1,2033.3939000000062,6,7,187,4,1,1.6,0.3,Time
,,722448,001,女,23,2025-06-04_17h57.04.036,Serial_Dependence_U,2023.2.3,Win32,59.523809523799216,,,,,,2033.394300000012,242,6,2033.3944000000063,242,,,,2037.3780000000004,2037.8715000000004,2036.861600000024,2037.377900000006,2034.389800000012,2036.8615000000002,2037.8715000000004,2038.3716000000243,2038.3716000000243,2040.0295000000003,784,2040.0295000000003,1,2040.045200000018,6,8,188,23,1,1.4,0.3,Time
,,722448,001,女,23,2025-06-04_17h57.04.036,Serial_Dependence_U,2023.2.3,Win32,59.523809523799216,,,,,,2040.045700000018,153,6,2040.045800000012,153,,,,2043.4251000000243,2043.9203000000123,2042.9084000000064,2043.4250000000004,2041.0385000000003,2042.908300000012,2043.920400000006,2044.4194000000064,2044.4194000000064,2045.5590000000004,882,2045.5590000000004,4,2045.5681000000238,6,9,189,0,1,0.8,0.3,Time
,,722448,001,女,23,2025-06-04_17h57.04.036,Serial_Dependence_U,2023.2.3,Win32,59.523809523799216,,,,,,2045.5684000000062,123,6,2045.5684000000062,123,,,,2049.520400000006,2050.0195,2049.009100000024,2049.520300000012,2046.575600000024,2049.009,2050.0195,2050.519400000006,2050.519400000006,2051.6609000000058,585,2051.661,1,2051.674400000006,6,10,190,28,1,1.4,0.7,Time
,,722448,001,女,23,2025-06-04_17h57.04.036,Serial_Dependence_U,2023.2.3,Win32,59.523809523799216,,,,,,2051.6745,347,6,2051.6747000000178,347,,,,2055.035800000012,2055.5351000000237,2054.5191000000236,2055.035600000024,2052.686,2054.519,2055.5351000000237,2056.035200000018,2056.035300000012,2057.475300000012,802,2057.475300000012,3,2057.4892000000177,6,11,191,25,1,0.8,0.7,Time
,,722448,001,女,23,2025-06-04_17h57.04.036,Serial_Dependence_U,2023.2.3,Win32,59.523809523799216,,,,,,2057.489400000006,351,6,2057.4895,351,,,,2061.434800000012,2061.933800000012,2060.921200000018,2061.434700000018,2058.485300000012,2060.921200000018,2061.933800000012,2062.433800000012,2062.433900000006,2063.6575,702,2063.657700000018,1,2063.671400000006,6,12,192,18,1,1.4,0.7,Time
,,722448,001,女,23,2025-06-04_17h57.04.036,Serial_Dependence_U,2023.2.3,Win32,59.523809523799216,,,,,,2063.671600000024,316,6,2063.671700000018,316,,,,2067.8166000000238,2068.3158000000117,2067.3062000000177,2067.8165,2064.672900000006,2067.306,2068.3158000000117,2068.815700000018,2068.815700000018,2070.389900000006,983,2070.389900000006,1,2070.407,6,13,193,19,1,1.6,0.7,Time
,,722448,001,女,23,2025-06-04_17h57.04.036,Serial_Dependence_U,2023.2.3,Win32,59.523809523799216,,,,,,2070.407300000012,65,6,2070.407400000006,65,,,,2073.9825,2074.481200000018,2073.471600000024,2073.982400000006,2071.3997000000177,2073.4715,2074.481200000018,2074.9813000000117,2074.9813000000117,2076.570800000012,799,2076.570900000006,2,2076.58,6,14,194,11,1,1,0.3,Time
,,722448,001,女,23,2025-06-04_17h57.04.036,Serial_Dependence_U,2023.2.3,Win32,59.523809523799216,,,,,,2076.580600000024,233,6,2076.5807000000177,233,,,,2080.774,2081.2637000000177,2080.27,2080.7738000000118,2077.603900000006,2080.269900000006,2081.2637000000177,2081.763300000012,2081.7634000000057,2083.170600000024,800,2083.1708000000117,1,2083.183800000012,6,15,195,14,1,1.6,0.3,Time
,,722448,001,女,23,2025-06-04_17h57.04.036,Serial_Dependence_U,2023.2.3,Win32,59.523809523799216,,,,,,2083.184,2,6,2083.184100000024,2,,,,2086.5638000000117,2087.0627000000177,2086.052300000012,2086.563700000018,2084.180700000018,2086.052200000018,2087.062800000012,2087.562900000006,2087.562900000006,2088.5193000000118,449,2088.519400000006,1,2088.532700000018,6,16,196,10,1,0.8,0.3,Time
,,722448,001,女,23,2025-06-04_17h57.04.036,Serial_Dependence_U,2023.2.3,Win32,59.523809523799216,,,,,,2088.532900000006,208,6,2088.533,208,,,,2092.312200000018,2092.8118000000118,2091.800800000012,2092.3121000000237,2089.533200000018,2091.8006000000237,2092.8118000000118,2093.299900000006,2093.3,2094.5351000000237,550,2094.535200000018,1,2094.5492000000177,6,17,197,22,1,1.2,0.3,Time
,,722448,001,女,23,2025-06-04_17h57.04.036,Serial_Dependence_U,2023.2.3,Win32,59.523809523799216,,,,,,2094.549300000012,312,6,2094.549400000006,312,,,,2098.3115,2098.810200000018,2097.8003000000117,2098.311400000006,2095.5621000000237,2097.8003000000117,2098.810200000018,2099.310200000018,2099.310300000012,2100.502900000006,551,2100.503,1,2100.516300000012,6,18,198,27,1,1.2,0.7,Time
,,722448,001,女,23,2025-06-04_17h57.04.036,Serial_Dependence_U,2023.2.3,Win32,59.523809523799216,,,,,,2100.5165,210,6,2100.516600000024,210,,,,2104.277100000024,2104.776200000018,2103.764,2104.277,2101.515400000006,2103.763900000006,2104.776200000018,2105.281300000012,2105.2814000000058,2106.650900000006,818,2106.651,1,2106.665400000006,6,19,199,7,1,1.2,0.7,Time
,,722448,001,女,23,2025-06-04_17h57.04.036,Serial_Dependence_U,2023.2.3,Win32,59.523809523799216,,,,,,2106.665600000024,330,6,2106.6657000000178,330,,,,2110.1985,2110.6916000000238,2109.692700000018,2110.198300000012,2107.6598000000117,2109.6925,2110.6916000000238,2111.190900000006,2111.190900000006,2112.4146000000237,742,2112.414800000012,2,2112.4281000000237,6,20,200,6,1,1,0.7,Time
,,722448,001,女,23,2025-06-04_17h57.04.036,Serial_Dependence_U,2023.2.3,Win32,59.523809523799216,,,,,,2112.428300000012,287,6,2112.428400000006,287,,,,2116.408300000012,2116.9075,2115.896900000006,2116.408300000012,2113.425800000012,2115.896800000012,2116.9076000000236,2117.407,2117.407,2118.7644999999998,617,2118.7646000000236,1,2118.777900000006,6,21,201,13,1,1.4,0.3,Time
,,722448,001,女,23,2025-06-04_17h57.04.036,Serial_Dependence_U,2023.2.3,Win32,59.523809523799216,,,,,,2118.778200000018,117,6,2118.7783000000118,117,,,,2122.574,2123.072900000006,2122.062300000012,2122.573900000006,2119.791,2122.062200000018,2123.072900000006,2123.573,2123.573,2124.631400000006,561,2124.6315,1,2124.644200000018,6,22,202,2,1,1.2,0.3,Time
,,722448,001,女,23,2025-06-04_17h57.04.036,Serial_Dependence_U,2023.2.3,Win32,59.523809523799216,,,,,,2124.6443000000118,264,6,2124.6445,264,,,,2128.5894000000058,2129.088800000012,2128.0762000000177,2128.589200000018,2125.6432000000177,2128.076100000024,2129.088900000006,2129.5883000000117,2129.5885,2131.013200000018,651,2131.013300000012,1,2131.025900000006,6,23,203,8,1,1.4,0.7,Time
,,722448,001,女,23,2025-06-04_17h57.04.036,Serial_Dependence_U,2023.2.3,Win32,59.523809523799216,,,,,,2131.0261000000237,194,6,2131.026200000018,194,,,,2134.593700000018,2135.087300000012,2134.0769999999998,2134.593600000024,2132.038600000024,2134.076900000006,2135.087300000012,2135.587400000006,2135.587400000006,2136.9878000000117,685,2136.987900000006,1,2136.999200000018,6,24,204,26,1,1,0.7,Time
,,722448,001,女,23,2025-06-04_17h57.04.036,Serial_Dependence_U,2023.2.3,Win32,59.523809523799216,,,,,,2136.9995,316,6,2136.9996000000237,316,,,,2140.3605,2140.853100000024,2139.858100000024,2140.360400000006,2138.021,2139.858,2140.853100000024,2141.353300000012,2141.353300000012,2142.826700000018,799,2142.826700000018,3,2142.8408000000118,6,25,205,5,1,0.8,0.7,Time
,,722448,001,女,23,2025-06-04_17h57.04.036,Serial_Dependence_U,2023.2.3,Win32,59.523809523799216,,,,,,2142.8411000000237,59,6,2142.841200000018,59,,,,2146.8361000000236,2147.335,2146.326100000024,2146.836,2143.859,2146.326,2147.335,2147.8349000000057,2147.8349000000057,2148.8192000000176,477,2148.8194000000058,1,2148.8335,6,26,206,3,1,1.4,0.3,Time
,,722448,001,女,23,2025-06-04_17h57.04.036,Serial_Dependence_U,2023.2.3,Win32,59.523809523799216,,,,,,2148.833700000018,332,6,2148.8338000000117,332,,,,2152.618600000024,2153.117400000006,2152.1075,2152.6185,2149.841200000018,2152.107400000006,2153.1175,2153.6173000000117,2153.617400000006,2155.124700000018,883,2155.124800000012,2,2155.1384000000057,6,27,207,12,1,1.2,0.3,Time
,,722448,001,女,23,2025-06-04_17h57.04.036,Serial_Dependence_U,2023.2.3,Win32,59.523809523799216,,,,,,2155.1387000000177,246,6,2155.1387000000177,246,,,,2158.883700000018,2159.383400000006,2158.372800000012,2158.883700000018,2156.134800000012,2158.372600000024,2159.383400000006,2159.883300000012,2159.883300000012,2161.390600000024,701,2161.390800000012,1,2161.403700000018,6,28,208,17,1,1.2,0.7,Time
,,722448,001,女,23,2025-06-04_17h57.04.036,Serial_Dependence_U,2023.2.3,Win32,59.523809523799216,,,,,,2161.403900000006,348,6,2161.404,348,,,,2164.783200000018,2165.281900000006,2164.271900000006,2164.783200000018,2162.403700000018,2164.271800000012,2165.281900000006,2165.782100000024,2165.782200000018,2167.3228000000117,816,2167.323,3,2167.3363000000118,6,29,209,20,1,0.8,0.3,Time
,,722448,001,女,23,2025-06-04_17h57.04.036,Serial_Dependence_U,2023.2.3,Win32,59.523809523799216,,,,,,2167.3365,211,7,2184.4242000000177,211,s,17.0649999999996,,2187.829,2188.3327000000177,2187.317800000012,2187.828900000006,2185.4345,2187.317600000024,2188.3327000000177,2188.8282000000177,2188.828300000012,2189.535200000018,683,2189.535300000012,2,2189.551200000018,7,0,210,0,1,0.8,0.3,Time
,,722448,001,女,23,2025-06-04_17h57.04.036,Serial_Dependence_U,2023.2.3,Win32,59.523809523799216,,,,,,2189.5515,145,7,2189.5528000000118,145,,,,2193.332800000012,2193.827200000018,2192.8169000000057,2193.332800000012,2190.545400000006,2192.8169000000057,2193.827200000018,2194.3269999999998,2194.3269999999998,2195.216900000006,649,2195.217,1,2195.225200000018,7,1,211,12,1,1.2,0.3,Time
,,722448,001,女,23,2025-06-04_17h57.04.036,Serial_Dependence_U,2023.2.3,Win32,59.523809523799216,,,,,,2195.2254000000057,336,7,2195.225600000024,336,,,,2199.3988000000118,2199.892700000018,2198.882300000012,2199.398700000018,2196.231400000006,2198.8822000000177,2199.892700000018,2200.392700000018,2200.392700000018,2200.632900000006,116,2200.632900000006,1,2200.650200000018,7,2,212,29,1,1.6,0.7,Time
,,722448,001,女,23,2025-06-04_17h57.04.036,Serial_Dependence_U,2023.2.3,Win32,59.523809523799216,,,,,,2200.650700000018,264,7,2200.650900000006,264,,,,2204.015300000012,2204.5081000000237,2203.498300000012,2204.015300000012,2201.659700000018,2203.4982000000177,2204.5081000000237,2205.0085,2205.0086000000238,2207.4985,616,2207.498600000024,2,2207.511400000006,7,3,213,5,1,0.8,0.7,Time
,,722448,001,女,23,2025-06-04_17h57.04.036,Serial_Dependence_U,2023.2.3,Win32,59.523809523799216,,,,,,2207.5115,262,7,2207.5117000000178,262,,,,2211.0585,2211.556900000006,2210.547300000012,2211.058400000006,2208.509100000024,2210.547100000024,2211.556900000006,2212.057,2212.057,2213.5805,866,2213.580600000024,2,2213.594600000024,7,4,214,26,1,1,0.7,Time
,,722448,001,女,23,2025-06-04_17h57.04.036,Serial_Dependence_U,2023.2.3,Win32,59.523809523799216,,,,,,2213.594900000006,171,7,2213.5951000000236,171,,,,2217.773300000012,2218.272800000012,2217.262100000024,2217.773200000018,2214.590700000018,2217.261900000006,2218.272800000012,2218.7727000000177,2218.7727000000177,2220.3136000000236,893,2220.3136000000236,1,2220.326800000012,7,5,215,4,1,1.6,0.3,Time
,,722448,001,女,23,2025-06-04_17h57.04.036,Serial_Dependence_U,2023.2.3,Win32,59.523809523799216,,,,,,2220.3271000000236,208,7,2220.327200000018,208,,,,2223.689300000012,2224.188200000018,2223.178300000012,2223.689200000018,2221.328100000024,2223.178200000018,2224.188300000012,2224.688200000018,2224.688300000012,2225.7785,493,2225.7786000000237,1,2225.793400000006,7,6,216,15,1,0.8,0.7,Time
,,722448,001,女,23,2025-06-04_17h57.04.036,Serial_Dependence_U,2023.2.3,Win32,59.523809523799216,,,,,,2225.793700000018,299,7,2225.793700000018,299,,,,2229.3715,2229.8707000000177,2228.8608000000117,2229.371400000006,2226.788700000018,2228.860700000018,2229.8707000000177,2230.3705,2230.370600000024,2231.411,433,2231.411100000024,1,2231.4233000000117,7,7,217,21,1,1,0.3,Time
,,722448,001,女,23,2025-06-04_17h57.04.036,Serial_Dependence_U,2023.2.3,Win32,59.523809523799216,,,,,,2231.4235,232,7,2231.4235,232,,,,2235.004,2235.503,2234.4925,2235.003900000006,2232.421,2234.492400000006,2235.503100000024,2236.0027000000177,2236.002800000012,2236.993600000024,433,2236.9937000000177,1,2237.007300000012,7,8,218,1,1,1,0.3,Time
,,722448,001,女,23,2025-06-04_17h57.04.036,Serial_Dependence_U,2023.2.3,Win32,59.523809523799216,,,,,,2237.0075,77,7,2237.007700000018,77,,,,2240.969400000006,2241.468700000018,2240.458600000024,2240.9692000000177,2238.019900000006,2240.458400000006,2241.468800000012,2241.968300000012,2241.968300000012,2243.741400000006,814,2243.741400000006,1,2243.7554999999998,7,9,219,28,1,1.4,0.7,Time
,,722448,001,女,23,2025-06-04_17h57.04.036,Serial_Dependence_U,2023.2.3,Win32,59.523809523799216,,,,,,2243.7558000000117,122,7,2243.7558000000117,122,,,,2247.506800000012,2248.000900000006,2247.001900000006,2247.5067000000176,2244.768300000012,2247.001800000012,2248.000900000006,2248.500900000006,2248.500900000006,2249.874200000018,700,2249.8743000000118,1,2249.888900000006,7,10,220,27,1,1.2,0.7,Time
,,722448,001,女,23,2025-06-04_17h57.04.036,Serial_Dependence_U,2023.2.3,Win32,59.523809523799216,,,,,,2249.889300000012,355,7,2249.8894999999998,355,,,,2253.867400000006,2254.366,2253.3561000000236,2253.867400000006,2250.884300000012,2253.3559999999998,2254.366,2254.865900000006,2254.866,2256.123300000012,650,2256.123300000012,1,2256.137200000018,7,11,221,3,1,1.4,0.3,Time
,,722448,001,女,23,2025-06-04_17h57.04.036,Serial_Dependence_U,2023.2.3,Win32,59.523809523799216,,,,,,2256.137400000006,59,7,2256.1375,59,,,,2259.683,2260.186900000006,2259.1715,2259.682900000006,2257.1331000000237,2259.171400000006,2260.186900000006,2260.682,2260.682,2261.773200000018,627,2261.773200000018,1,2261.787200000018,7,12,222,16,1,1,0.7,Time
,,722448,001,女,23,2025-06-04_17h57.04.036,Serial_Dependence_U,2023.2.3,Win32,59.523809523799216,,,,,,2261.787400000006,1,7,2261.787400000006,1,,,,2265.587300000012,2266.081,2265.069100000024,2265.5872000000177,2262.799,2265.068900000006,2266.081,2266.580300000012,2266.580300000012,2267.820200000018,653,2267.8203000000117,1,2267.828,7,13,223,2,1,1.2,0.3,Time
,,722448,001,女,23,2025-06-04_17h57.04.036,Serial_Dependence_U,2023.2.3,Win32,59.523809523799216,,,,,,2267.8282000000177,312,7,2267.828300000012,312,,,,2271.580800000012,2272.085,2271.069600000024,2271.5807000000177,2268.8372000000177,2271.0695,2272.085,2272.5795,2272.5795,2273.804,701,2273.8042000000178,1,2273.818400000006,7,14,224,17,1,1.2,0.7,Time
,,722448,001,女,23,2025-06-04_17h57.04.036,Serial_Dependence_U,2023.2.3,Win32,59.523809523799216,,,,,,2273.818800000012,11,7,2273.818900000006,11,,,,2277.9675,2278.461700000018,2277.451900000006,2277.967400000006,2274.8136000000236,2277.451700000018,2278.461700000018,2278.961800000012,2278.961800000012,2280.219100000024,643,2280.2192000000177,1,2280.230300000012,7,15,225,19,1,1.6,0.7,Time
,,722448,001,女,23,2025-06-04_17h57.04.036,Serial_Dependence_U,2023.2.3,Win32,59.523809523799216,,,,,,2280.2305,251,7,2280.230600000024,251,,,,2284.034,2284.5275,2283.515800000012,2284.033900000006,2281.246,2283.515800000012,2284.527600000024,2285.0275,2285.0275,2286.2848000000117,642,2286.284900000006,1,2286.297900000006,7,16,226,22,1,1.2,0.3,Time
,,722448,001,女,23,2025-06-04_17h57.04.036,Serial_Dependence_U,2023.2.3,Win32,59.523809523799216,,,,,,2286.2983000000117,218,7,2286.298400000006,218,,,,2290.493900000006,2290.993200000018,2289.982800000012,2290.493900000006,2287.300100000024,2289.9827000000178,2290.993300000012,2291.493100000024,2291.493200000018,2292.634400000006,634,2292.6345,1,2292.647200000018,7,17,227,14,1,1.6,0.3,Time
,,722448,001,女,23,2025-06-04_17h57.04.036,Serial_Dependence_U,2023.2.3,Win32,59.523809523799216,,,,,,2292.6474000000057,153,7,2292.6475,153,,,,2296.397200000018,2296.891900000006,2295.881800000012,2296.397,2293.649,2295.8817000000176,2296.891900000006,2297.392,2297.3921000000237,2298.666700000018,735,2298.666800000012,1,2298.679,7,18,228,7,1,1.2,0.7,Time
,,722448,001,女,23,2025-06-04_17h57.04.036,Serial_Dependence_U,2023.2.3,Win32,59.523809523799216,,,,,,2298.679300000012,344,7,2298.679400000006,344,,,,2302.825300000012,2303.324300000012,2302.314,2302.825300000012,2299.681300000012,2302.314,2303.324400000006,2303.823900000006,2303.824,2304.999,661,2304.9991000000236,1,2305.011300000012,7,19,229,9,1,1.6,0.7,Time
,,722448,001,女,23,2025-06-04_17h57.04.036,Serial_Dependence_U,2023.2.3,Win32,59.523809523799216,,,,,,2305.0115,308,7,2305.011600000024,308,,,,2309.179900000006,2309.6731000000236,2308.6775,2309.179900000006,2306.007400000006,2308.677400000006,2309.673200000018,2310.173200000018,2310.1733000000117,2311.513300000012,767,2311.513300000012,1,2311.528400000006,7,20,230,24,1,1.6,0.3,Time
,,722448,001,女,23,2025-06-04_17h57.04.036,Serial_Dependence_U,2023.2.3,Win32,59.523809523799216,,,,,,2311.528800000012,34,7,2311.529,34,,,,2315.4782000000178,2315.9721000000236,2314.956300000012,2315.478100000024,2312.5241000000237,2314.956200000018,2315.9721000000236,2316.471900000006,2316.471900000006,2317.644,756,2317.644,1,2317.6531000000236,7,21,231,8,1,1.4,0.7,Time
,,722448,001,女,23,2025-06-04_17h57.04.036,Serial_Dependence_U,2023.2.3,Win32,59.523809523799216,,,,,,2317.653400000006,291,7,2317.6535,291,,,,2321.221600000024,2321.721,2320.710900000006,2321.221400000006,2318.6778000000118,2320.710800000012,2321.721100000024,2322.220900000006,2322.220900000006,2323.510800000012,666,2323.511,1,2323.525200000018,7,22,232,6,1,1,0.7,Time
,,722448,001,女,23,2025-06-04_17h57.04.036,Serial_Dependence_U,2023.2.3,Win32,59.523809523799216,,,,,,2323.5255,338,7,2323.5255,338,,,,2327.508200000018,2328.002900000006,2326.992700000018,2327.5081000000237,2324.5213000000117,2326.9926000000237,2328.002900000006,2328.490900000006,2328.491,2329.760800000012,684,2329.761,1,2329.772800000012,7,23,233,23,1,1.4,0.3,Time
,,722448,001,女,23,2025-06-04_17h57.04.036,Serial_Dependence_U,2023.2.3,Win32,59.523809523799216,,,,,,2329.773,125,7,2329.773100000024,125,,,,2333.3687000000177,2333.867800000012,2332.853300000012,2333.368600000024,2330.786600000024,2332.8532000000178,2333.867800000012,2334.368900000006,2334.369,2335.7091000000237,683,2335.709200000018,1,2335.7237000000177,7,24,234,11,1,1,0.3,Time
,,722448,001,女,23,2025-06-04_17h57.04.036,Serial_Dependence_U,2023.2.3,Win32,59.523809523799216,,,,,,2335.724,269,7,2335.724,269,,,,2339.0742000000178,2339.5672000000177,2338.5575,2339.074100000024,2336.7192000000177,2338.5573000000118,2339.5672000000177,2340.067300000012,2340.067300000012,2341.342,827,2341.342,3,2341.355600000024,7,25,235,25,1,0.8,0.7,Time
,,722448,001,女,23,2025-06-04_17h57.04.036,Serial_Dependence_U,2023.2.3,Win32,59.523809523799216,,,,,,2341.355700000018,36,7,2341.355900000006,36,,,,2345.3566000000237,2345.849700000018,2344.8397000000177,2345.3565,2342.368100000024,2344.839600000024,2345.849700000018,2346.349900000006,2346.35,2347.542200000018,552,2347.542300000012,1,2347.555400000006,7,26,236,13,1,1.4,0.3,Time
,,722448,001,女,23,2025-06-04_17h57.04.036,Serial_Dependence_U,2023.2.3,Win32,59.523809523799216,,,,,,2347.555700000018,355,7,2347.555700000018,355,,,,2350.942700000018,2351.432400000006,2350.4219000000057,2350.942600000024,2348.550400000006,2350.421800000012,2351.4325,2351.9323000000118,2351.9323000000118,2353.2235,618,2353.223600000024,2,2353.235100000024,7,27,237,10,1,0.8,0.3,Time
,,722448,001,女,23,2025-06-04_17h57.04.036,Serial_Dependence_U,2023.2.3,Win32,59.523809523799216,,,,,,2353.235300000012,35,7,2353.235400000006,35,,,,2357.181800000012,2357.6812000000177,2356.671300000012,2357.181700000018,2354.238300000012,2356.6711000000237,2357.681300000012,2358.1812000000177,2358.1812000000177,2359.0224000000057,768,2359.0225,1,2359.0351000000237,7,28,238,18,1,1.4,0.7,Time
,,722448,001,女,23,2025-06-04_17h57.04.036,Serial_Dependence_U,2023.2.3,Win32,59.523809523799216,,,,,,2359.035400000006,229,7,2359.0355,229,,,,2362.420600000024,2362.913700000018,2361.9036000000237,2362.420300000012,2360.031900000006,2361.903400000006,2362.913700000018,2363.418400000006,2363.4184999999998,2364.521200000018,608,2364.521200000018,2,2364.5351000000237,7,29,239,20,1,0.8,0.3,Time
,,722448,001,女,23,2025-06-04_17h57.04.036,Serial_Dependence_U,2023.2.3,Win32,59.523809523799216,,,,,,2364.535300000012,215,8,2379.124900000006,215,s,14.563300000011623,,2382.486,2382.9764999999998,2381.982800000012,2382.4858000000117,2380.144700000018,2381.982600000024,2382.9764999999998,2383.464900000006,2383.464900000006,2385.566700000018,733,2385.566800000012,2,2385.581,8,0,240,15,1,0.8,0.7,Time
,,722448,001,女,23,2025-06-04_17h57.04.036,Serial_Dependence_U,2023.2.3,Win32,59.523809523799216,,,,,,2385.581200000018,25,8,2385.582300000012,25,,,,2389.579700000018,2390.075300000012,2389.059700000018,2389.5795,2386.593200000018,2389.0595,2390.075300000012,2390.575400000006,2390.5755,2391.766600000024,617,2391.766700000018,1,2391.781,8,1,241,13,1,1.4,0.3,Time
,,722448,001,女,23,2025-06-04_17h57.04.036,Serial_Dependence_U,2023.2.3,Win32,59.523809523799216,,,,,,2391.781200000018,203,8,2391.781300000012,203,,,,2395.325400000006,2395.8245,2394.814,2395.325400000006,2392.775900000006,2394.814,2395.8245,2396.3245,2396.324600000024,2397.464600000024,711,2397.4647000000177,2,2397.4777000000176,8,2,242,6,1,1,0.7,Time
,,722448,001,女,23,2025-06-04_17h57.04.036,Serial_Dependence_U,2023.2.3,Win32,59.523809523799216,,,,,,2397.477900000006,170,8,2397.478100000024,170,,,,2400.857600000024,2401.356800000012,2400.3415,2400.857600000024,2398.474800000012,2400.341300000012,2401.356800000012,2401.856400000006,2401.856400000006,2402.711700000018,381,2402.711700000018,1,2402.7245,8,3,243,0,1,0.8,0.3,Time
,,722448,001,女,23,2025-06-04_17h57.04.036,Serial_Dependence_U,2023.2.3,Win32,59.523809523799216,,,,,,2402.724800000012,151,8,2402.724900000006,151,,,,2406.0956000000238,2406.589,2405.579200000018,2406.0955,2403.7405,2405.579100000024,2406.589100000024,2407.089200000018,2407.089200000018,2408.062300000012,382,2408.062400000006,1,2408.075300000012,8,4,244,25,1,0.8,0.7,Time
,,722448,001,女,23,2025-06-04_17h57.04.036,Serial_Dependence_U,2023.2.3,Win32,59.523809523799216,,,,,,2408.0755,266,8,2408.0755,266,,,,2412.261,2412.7595,2411.744200000018,2412.261,2409.076100000024,2411.744100000024,2412.759600000024,2413.259900000006,2413.259900000006,2414.3617000000177,483,2414.361800000012,1,2414.3765,8,5,245,4,1,1.6,0.3,Time
,,722448,001,女,23,2025-06-04_17h57.04.036,Serial_Dependence_U,2023.2.3,Win32,59.523809523799216,,,,,,2414.376800000012,156,8,2414.376900000006,156,,,,2418.121400000006,2418.620600000024,2417.610200000018,2418.121400000006,2415.3772000000176,2417.61,2418.620600000024,2419.125600000024,2419.125700000018,2419.895800000012,617,2419.895900000006,1,2419.907900000006,8,6,246,27,1,1.2,0.7,Time
,,722448,001,女,23,2025-06-04_17h57.04.036,Serial_Dependence_U,2023.2.3,Win32,59.523809523799216,,,,,,2419.9081000000238,50,8,2419.908200000018,50,,,,2423.307400000006,2423.808,2422.792900000006,2423.3073000000118,2420.9208000000117,2422.792800000012,2423.808,2424.302400000006,2424.3025,2425.009600000024,460,2425.009700000018,1,2425.0241000000237,8,7,247,20,1,0.8,0.3,Time
,,722448,001,女,23,2025-06-04_17h57.04.036,Serial_Dependence_U,2023.2.3,Win32,59.523809523799216,,,,,,2425.024300000012,7,8,2425.024300000012,7,,,,2428.808400000006,2429.302,2428.291900000006,2428.808300000012,2426.02,2428.291800000012,2429.302,2429.8017000000177,2429.8017000000177,2430.7023000000117,366,2430.702400000006,1,2430.7158000000118,8,8,248,12,1,1.2,0.3,Time
,,722448,001,女,23,2025-06-04_17h57.04.036,Serial_Dependence_U,2023.2.3,Win32,59.523809523799216,,,,,,2430.716,209,8,2430.716,209,,,,2434.273400000006,2434.767400000006,2433.7575,2434.273400000006,2431.719,2433.7575,2434.767600000024,2435.267400000006,2435.267400000006,2435.889200000018,465,2435.889400000006,1,2435.903,8,9,249,26,1,1,0.7,Time
,,722448,001,女,23,2025-06-04_17h57.04.036,Serial_Dependence_U,2023.2.3,Win32,59.523809523799216,,,,,,2435.9031000000236,105,8,2435.903200000018,105,,,,2439.4925,2439.987900000006,2438.973,2439.492400000006,2436.901400000006,2438.972900000006,2439.988,2440.482600000024,2440.482600000024,2441.4235,416,2441.4236000000237,1,2441.436900000006,8,10,250,1,1,1,0.3,Time
,,722448,001,女,23,2025-06-04_17h57.04.036,Serial_Dependence_U,2023.2.3,Win32,59.523809523799216,,,,,,2441.437200000018,128,8,2441.437200000018,128,,,,2445.021,2445.5155,2444.505300000012,2445.020900000006,2442.433900000006,2444.505200000018,2445.5155,2446.015300000012,2446.015400000006,2447.156300000012,533,2447.156300000012,1,2447.169200000018,8,11,251,11,1,1,0.3,Time
,,722448,001,女,23,2025-06-04_17h57.04.036,Serial_Dependence_U,2023.2.3,Win32,59.523809523799216,,,,,,2447.169400000006,235,8,2447.1695,235,,,,2450.521100000024,2451.0146000000236,2450.004300000012,2450.521,2448.165900000006,2450.0041000000238,2451.014700000018,2451.514700000018,2451.5148000000117,2452.655100000024,550,2452.655100000024,1,2452.669,8,12,252,5,1,0.8,0.7,Time
,,722448,001,女,23,2025-06-04_17h57.04.036,Serial_Dependence_U,2023.2.3,Win32,59.523809523799216,,,,,,2452.669200000018,218,8,2452.669300000012,218,,,,2456.480800000012,2456.980300000012,2455.970300000012,2456.480700000018,2453.686900000006,2455.970200000018,2456.980400000006,2457.480300000012,2457.480300000012,2458.5036000000237,495,2458.503700000018,1,2458.516700000018,8,13,253,2,1,1.2,0.3,Time
,,722448,001,女,23,2025-06-04_17h57.04.036,Serial_Dependence_U,2023.2.3,Win32,59.523809523799216,,,,,,2458.517,203,8,2458.517,203,,,,2462.652300000012,2463.145800000012,2462.15,2462.6522000000177,2459.514200000018,2462.149900000006,2463.145900000006,2463.645300000012,2463.645400000006,2465.135400000006,932,2465.135400000006,1,2465.1441000000236,8,14,254,9,1,1.6,0.7,Time
,,722448,001,女,23,2025-06-04_17h57.04.036,Serial_Dependence_U,2023.2.3,Win32,59.523809523799216,,,,,,2465.1445,32,8,2465.1446000000237,32,,,,2468.728600000024,2469.2277000000176,2468.2181000000237,2468.728400000006,2466.146100000024,2468.217900000006,2469.2277000000176,2469.728100000024,2469.7282000000178,2470.645300000012,383,2470.645400000006,1,2470.659400000006,8,15,255,21,1,1,0.3,Time
,,722448,001,女,23,2025-06-04_17h57.04.036,Serial_Dependence_U,2023.2.3,Win32,59.523809523799216,,,,,,2470.6596000000236,5,8,2470.6596000000236,5,,,,2474.611300000012,2475.110300000012,2474.094600000024,2474.611200000018,2471.661900000006,2474.094600000024,2475.110300000012,2475.609600000024,2475.6097000000177,2477.0175,785,2477.017600000024,1,2477.030800000012,8,16,256,28,1,1.4,0.7,Time
,,722448,001,女,23,2025-06-04_17h57.04.036,Serial_Dependence_U,2023.2.3,Win32,59.523809523799216,,,,,,2477.031100000024,3,8,2477.031200000018,3,,,,2480.7769000000058,2481.275700000018,2480.265600000024,2480.776800000012,2478.0325,2480.2655,2481.275700000018,2481.775200000018,2481.775300000012,2483.0168000000117,752,2483.0168000000117,1,2483.0283000000118,8,17,257,17,1,1.2,0.7,Time
,,722448,001,女,23,2025-06-04_17h57.04.036,Serial_Dependence_U,2023.2.3,Win32,59.523809523799216,,,,,,2483.0286000000237,195,8,2483.028700000018,195,,,,2487.197900000006,2487.691400000006,2486.681400000006,2487.197700000018,2484.0315,2486.681300000012,2487.6915,2488.191400000006,2488.1915,2489.5655,702,2489.565600000024,1,2489.577800000012,8,18,258,19,1,1.6,0.7,Time
,,722448,001,女,23,2025-06-04_17h57.04.036,Serial_Dependence_U,2023.2.3,Win32,59.523809523799216,,,,,,2489.578100000024,157,8,2489.578100000024,157,,,,2493.7245,2494.223600000024,2493.2082000000178,2493.724400000006,2490.575,2493.208100000024,2494.223600000024,2494.723600000024,2494.723600000024,2495.963900000006,700,2495.963900000006,1,2495.976700000018,8,19,259,29,1,1.6,0.7,Time
