Scale_setup.started,Scale_setup.stopped,participant,session,sex,age,date,expName,psychopyVersion,OS,frameRate,Intro.started,Intro.stopped,key_resp_2.keys,key_resp_2.rt,key_resp_2.duration,block.started,direction,Block_id,block.stopped,trial_direction,Block_resp_2.keys,Block_resp_2.rt,Block_resp_2.duration,ITI.started,ITI.stopped,Mask_2.started,Mask_2.stopped,encoding.started,encoding.stopped,Cue.started,Cue.stopped,Response.started,Response.stopped,keyDuration,Feedback_Time.started,FeedbackID_T,Feedback_Time.stopped,trials.thisRepN,trials.thisTrialN,trials.thisN,trials.thisIndex,trials.ran,TimeDur,Coherence1,TrialType
0.0003000000119204316,0.0004999999999997229,730111,001,F,22,2025-06-01_19h32.23.697,Serial_Dependence_U,2023.2.3,Win32,144.9275362318917,,,,,,,,,,,,,,,,,,,,,,,,,,,,,,,,,,,
,,730111,001,F,22,2025-06-01_19h32.23.697,Serial_Dependence_U,2023.2.3,Win32,144.9275362318917,9.243899999976158,10.566699999988082,space,1.2844000000357632,,,,,,,,,,,,,,,,,,,,,,,,,,,,,,,
,,730111,001,F,22,2025-06-01_19h32.23.697,Serial_Dependence_U,2023.2.3,Win32,144.9275362318917,,,,,,10.571399999976158,9,0,12.666100000023839,9,s,2.0801999999880767,,16.249199999988075,16.747800000011917,15.745699999988076,16.249199999988075,13.676499999999997,15.745600000023838,16.747800000011917,17.24769999998808,17.247899999976156,19.47,1437,19.47010000002384,5,20.46980000001192,0,0,0,21,1,1,0.3,Time
,,730111,001,F,22,2025-06-01_19h32.23.697,Serial_Dependence_U,2023.2.3,Win32,144.9275362318917,,,,,,20.470199999988075,82,0,20.4715,82,,,,24.247899999976156,24.7475,23.740499999999997,24.24769999998808,21.477199999988077,23.740399999976155,24.74760000002384,25.24880000001192,25.248899999976157,26.990100000023844,1074,26.99019999998808,2,27.995699999988084,0,1,1,22,1,1.2,0.3,Time
,,730111,001,F,22,2025-06-01_19h32.23.697,Serial_Dependence_U,2023.2.3,Win32,144.9275362318917,,,,,,27.995800000011926,346,0,27.995800000011926,346,,,,31.543899999976162,32.04,31.034300000011925,31.54369999998808,29.00069999998808,31.034199999988083,32.04,32.53889999997616,32.539,34.559800000011926,1213,34.559800000011926,4,35.56019999998808,0,2,2,16,1,1,0.7,Time
,,730111,001,F,22,2025-06-01_19h32.23.697,Serial_Dependence_U,2023.2.3,Win32,144.9275362318917,,,,,,35.56030000001192,175,0,35.56039999997616,175,,,,39.303000000000004,39.804100000023844,38.80030000001192,39.30289999997616,36.567,38.80019999998808,39.80419999998808,40.30730000001192,40.30730000001192,42.13210000002385,1359,42.13210000002385,4,43.13089999997616,0,3,3,17,1,1.2,0.7,Time
,,730111,001,F,22,2025-06-01_19h32.23.697,Serial_Dependence_U,2023.2.3,Win32,144.9275362318917,,,,,,43.13139999997616,129,0,43.1315,129,,,,46.706800000011924,47.21,46.19980000001192,46.70669999998808,44.13730000001192,46.19980000001192,47.21,47.70539999997616,47.70539999997616,49.96089999997616,1548,49.961,5,50.96219999998808,0,4,4,11,1,1,0.3,Time
,,730111,001,F,22,2025-06-01_19h32.23.697,Serial_Dependence_U,2023.2.3,Win32,144.9275362318917,,,,,,50.9625,123,0,50.96260000002384,123,,,,55.10269999998808,55.6055,54.597,55.1025,51.96469999998808,54.59689999997616,55.60560000002384,56.10080000001192,56.10089999997616,58.35589999997616,1573,58.356,3,59.351000000000006,0,5,5,19,1,1.6,0.7,Time
,,730111,001,F,22,2025-06-01_19h32.23.697,Serial_Dependence_U,2023.2.3,Win32,144.9275362318917,,,,,,59.351199999988076,145,0,59.351199999988076,145,,,,63.498699999988084,63.99689999997616,62.991600000023844,63.49860000002385,60.358300000011916,62.99139999997616,63.99700000000001,64.4985,64.4985,66.48019999998809,1287,66.48030000001192,2,67.47600000000001,0,6,6,29,1,1.6,0.7,Time
,,730111,001,F,22,2025-06-01_19h32.23.697,Serial_Dependence_U,2023.2.3,Win32,144.9275362318917,,,,,,67.47630000001193,329,0,67.47650000000002,329,,,,71.01219999998808,71.51060000002386,70.51030000001192,71.01210000002385,68.47800000000001,70.51,71.51060000002386,72.01219999998808,72.01219999998808,73.79760000002385,1171,73.79760000002385,4,74.79689999997616,0,7,7,6,1,1,0.7,Time
,,730111,001,F,22,2025-06-01_19h32.23.697,Serial_Dependence_U,2023.2.3,Win32,144.9275362318917,,,,,,74.79730000001193,163,0,74.79730000001193,163,,,,78.16510000002386,78.66310000002385,77.66339999997616,78.165,75.79660000002384,77.66339999997616,78.66310000002385,79.16300000000001,79.16310000002385,80.68419999998808,1063,80.68430000001193,5,81.6836999999881,0,8,8,0,1,0.8,0.3,Time
,,730111,001,F,22,2025-06-01_19h32.23.697,Serial_Dependence_U,2023.2.3,Win32,144.9275362318917,,,,,,81.68389999997616,200,0,81.68389999997616,200,,,,85.46169999998808,85.96119999998808,84.95519999998808,85.46169999998808,82.69230000001193,84.95510000002385,85.96119999998808,86.46119999998808,86.46130000001193,91.7395,953,91.7395,2,92.73919999998809,0,9,9,12,1,1.2,0.3,Time
,,730111,001,F,22,2025-06-01_19h32.23.697,Serial_Dependence_U,2023.2.3,Win32,144.9275362318917,,,,,,92.73960000002386,119,0,92.73969999998809,119,,,,96.67860000002385,97.17450000000001,96.17750000000001,96.67850000000001,93.74430000001193,96.17739999997616,97.17450000000001,97.67419999998809,97.67419999998809,99.793,1356,99.79310000002386,3,100.79260000002385,0,10,10,18,1,1.4,0.7,Time
,,730111,001,F,22,2025-06-01_19h32.23.697,Serial_Dependence_U,2023.2.3,Win32,144.9275362318917,,,,,,100.79280000001192,142,0,100.793,142,,,,104.3725,104.87089999997616,103.86430000001192,104.37239999997617,101.79819999998809,103.86410000002385,104.87089999997616,105.37110000002384,105.3711999999881,107.44919999998808,1403,107.44930000001193,5,108.4475,0,11,11,1,1,1,0.3,Time
,,730111,001,F,22,2025-06-01_19h32.23.697,Serial_Dependence_U,2023.2.3,Win32,144.9275362318917,,,,,,108.44780000001192,160,0,108.44800000000001,160,,,,112.38519999998809,112.88489999997617,111.87810000002385,112.38510000002385,109.44760000002385,111.87810000002385,112.88489999997617,113.38510000002385,113.38510000002385,115.68839999997617,1381,115.6885,3,116.68869999998809,0,12,12,8,1,1.4,0.7,Time
,,730111,001,F,22,2025-06-01_19h32.23.697,Serial_Dependence_U,2023.2.3,Win32,144.9275362318917,,,,,,116.68910000002386,281,0,116.68919999998809,281,,,,120.02410000002385,120.52360000002385,119.52160000002385,120.02400000000002,117.69089999997617,119.5215,120.52360000002385,121.02360000002385,121.02360000002385,122.857,1164,122.857,5,123.85519999998809,0,13,13,15,1,0.8,0.7,Time
,,730111,001,F,22,2025-06-01_19h32.23.697,Serial_Dependence_U,2023.2.3,Win32,144.9275362318917,,,,,,123.8555,130,0,123.85560000002383,130,,,,127.21119999998808,127.71060000002385,126.70400000000001,127.21099999999998,124.86699999999999,126.70389999997616,127.71069999998807,128.21099999999998,128.21099999999998,129.48839999997614,1019,129.4885,4,130.48999999999998,0,14,14,25,1,0.8,0.7,Time
,,730111,001,F,22,2025-06-01_19h32.23.697,Serial_Dependence_U,2023.2.3,Win32,144.9275362318917,,,,,,130.49019999998808,193,0,130.49030000001193,193,,,,134.42469999998806,134.9238000000119,133.91989999997617,134.42460000002384,131.4888000000119,133.91980000001192,134.9238000000119,135.41919999998808,135.41919999998808,137.4975,1201,137.4975,2,138.49560000002384,0,15,15,28,1,1.4,0.7,Time
,,730111,001,F,22,2025-06-01_19h32.23.697,Serial_Dependence_U,2023.2.3,Win32,144.9275362318917,,,,,,138.49589999997616,264,0,138.49599999999998,264,,,,141.86519999998808,142.36489999997616,141.36139999997616,141.86510000002383,139.49699999999999,141.36139999997616,142.36489999997616,142.86360000002384,142.86360000002384,144.62719999998808,1319,144.62730000001193,5,145.62739999997615,0,16,16,10,1,0.8,0.3,Time
,,730111,001,F,22,2025-06-01_19h32.23.697,Serial_Dependence_U,2023.2.3,Win32,144.9275362318917,,,,,,145.62760000002385,321,0,145.62769999998807,321,,,,149.80610000002383,150.30919999998807,149.29580000001192,149.80599999999998,146.62880000001192,149.29560000002382,150.30930000001192,150.80949999999999,150.80949999999999,152.84419999998806,1496,152.84419999998806,2,153.84380000001192,0,17,17,24,1,1.6,0.3,Time
,,730111,001,F,22,2025-06-01_19h32.23.697,Serial_Dependence_U,2023.2.3,Win32,144.9275362318917,,,,,,153.844,112,0,153.84410000002384,112,,,,157.80969999998808,158.30539999997615,157.30780000001192,157.80960000002383,154.84069999998806,157.30780000001192,158.30539999997615,158.8055,158.80560000002384,161.03660000002384,1528,161.0366999999881,4,162.03639999997614,0,18,18,3,1,1.4,0.3,Time
,,730111,001,F,22,2025-06-01_19h32.23.697,Serial_Dependence_U,2023.2.3,Win32,144.9275362318917,,,,,,162.0366999999881,60,0,162.03689999997616,60,,,,166.22239999997615,166.72389999997614,165.71430000001192,166.22219999998808,163.0438000000119,165.71410000002385,166.724,167.224,167.224,169.24660000002385,1409,169.24660000002385,2,170.23960000002384,0,19,19,4,1,1.6,0.3,Time
,,730111,001,F,22,2025-06-01_19h32.23.697,Serial_Dependence_U,2023.2.3,Win32,144.9275362318917,,,,,,170.2405,93,0,170.24060000002385,93,,,,174.37730000001193,174.87810000002384,173.86989999997616,174.37710000002383,171.23819999998807,173.8698000000119,174.87810000002384,175.37469999998808,175.37469999998808,177.1496999999881,1250,177.14989999997616,2,178.14760000002383,0,20,20,9,1,1.6,0.7,Time
,,730111,001,F,22,2025-06-01_19h32.23.697,Serial_Dependence_U,2023.2.3,Win32,144.9275362318917,,,,,,178.148,206,0,178.14819999998807,206,,,,181.51560000002382,182.01580000001192,181.01069999998808,181.51560000002382,179.14780000001193,181.0105,182.01580000001192,182.51560000002382,182.51560000002382,183.96719999998808,972,183.9673000000119,4,184.9683000000119,0,21,21,20,1,0.8,0.3,Time
,,730111,001,F,22,2025-06-01_19h32.23.697,Serial_Dependence_U,2023.2.3,Win32,144.9275362318917,,,,,,184.96880000001192,184,0,184.969,184,,,,188.939,189.44,188.4375,188.93889999997614,185.96839999997616,188.4373000000119,189.44010000002385,189.93880000001192,189.93880000001192,191.8071999999881,1262,191.8073000000119,2,192.7998000000119,0,22,22,23,1,1.4,0.3,Time
,,730111,001,F,22,2025-06-01_19h32.23.697,Serial_Dependence_U,2023.2.3,Win32,144.9275362318917,,,,,,192.79999999999998,72,0,192.79999999999998,72,,,,196.57119999998807,197.07060000002383,196.0643000000119,196.57110000002385,193.80010000002383,196.06410000002384,197.07060000002383,197.56530000001192,197.56539999997617,199.1795,1360,199.1795,4,200.1753000000119,0,23,23,2,1,1.2,0.3,Time
,,730111,001,F,22,2025-06-01_19h32.23.697,Serial_Dependence_U,2023.2.3,Win32,144.9275362318917,,,,,,200.17580000001192,88,0,200.17580000001192,88,,,,203.51689999997615,204.01489999997617,203.01310000002383,203.51680000001193,201.182,203.01289999997616,204.01489999997617,204.515,204.51510000002384,206.161,952,206.161,4,207.16580000001193,0,24,24,5,1,0.8,0.7,Time
,,730111,001,F,22,2025-06-01_19h32.23.697,Serial_Dependence_U,2023.2.3,Win32,144.9275362318917,,,,,,207.16610000002385,129,0,207.16610000002385,129,,,,210.90439999997616,211.40380000001193,210.39849999999998,210.90430000001192,208.16619999998807,210.39830000001191,211.40389999997615,211.90519999998807,211.90519999998807,213.41219999998808,990,213.41230000001192,2,214.41519999998806,0,25,25,27,1,1.2,0.7,Time
,,730111,001,F,22,2025-06-01_19h32.23.697,Serial_Dependence_U,2023.2.3,Win32,144.9275362318917,,,,,,214.41560000002383,128,0,214.41569999998808,128,,,,218.14789999997615,218.64669999998807,217.64489999997616,218.14780000001193,215.41269999998806,217.6448000000119,218.64680000001192,219.14689999997614,219.147,220.84880000001192,1399,220.849,4,221.84819999998808,0,26,26,7,1,1.2,0.7,Time
,,730111,001,F,22,2025-06-01_19h32.23.697,Serial_Dependence_U,2023.2.3,Win32,144.9275362318917,,,,,,221.84869999998807,251,0,221.84880000001192,251,,,,225.39810000002385,225.89680000001192,224.8905,225.39789999997615,222.85510000002384,224.89039999997615,225.89680000001192,226.39719999998806,226.3973000000119,228.2385,1205,228.2385,4,229.23869999998809,0,27,27,26,1,1,0.7,Time
,,730111,001,F,22,2025-06-01_19h32.23.697,Serial_Dependence_U,2023.2.3,Win32,144.9275362318917,,,,,,229.239,155,0,229.23910000002383,155,,,,233.41119999998807,233.908,232.90610000002383,233.411,230.24430000001192,232.90589999997616,233.90810000002384,234.40469999998808,234.4048000000119,236.85489999997614,1689,236.85489999997614,4,237.85510000002384,0,28,28,14,1,1.6,0.3,Time
,,730111,001,F,22,2025-06-01_19h32.23.697,Serial_Dependence_U,2023.2.3,Win32,144.9275362318917,,,,,,237.85560000002383,134,0,237.85589999997615,134,,,,241.8345,242.335,241.3295,241.83430000001192,238.8623000000119,241.32910000002383,242.335,242.83560000002385,242.83569999998807,245.11189999997615,1481,245.11189999997615,4,246.11160000002383,0,29,29,13,1,1.4,0.3,Time
,,730111,001,F,22,2025-06-01_19h32.23.697,Serial_Dependence_U,2023.2.3,Win32,144.9275362318917,,,,,,246.11189999997615,10,1,251.7455,10,s,5.623699999988077,,255.47989999997617,255.97739999997617,254.97789999997616,255.4798000000119,252.74619999998805,254.9776999999881,255.97739999997617,256.4726000000238,256.4726999999881,258.0563000000119,1278,258.0563999999762,4,258.0568000000119,1,0,30,27,1,1.2,0.7,Time
,,730111,001,F,22,2025-06-01_19h32.23.697,Serial_Dependence_U,2023.2.3,Win32,144.9275362318917,,,,,,258.0571999999881,245,1,258.0585,245,,,,261.43339999997613,261.93110000002383,260.92989999997616,261.43319999998806,259.06489999997615,260.9296999999881,261.93119999998805,262.43089999997613,262.431,264.13239999997614,1187,264.1325,5,264.13269999998806,1,1,31,10,1,0.8,0.3,Time
,,730111,001,F,22,2025-06-01_19h32.23.697,Serial_Dependence_U,2023.2.3,Win32,144.9275362318917,,,,,,264.133,76,1,264.13319999998805,76,,,,267.89719999998806,268.40080000001194,267.39380000001194,267.897,265.13319999998805,267.3936999999881,268.40089999997616,268.89610000002386,268.89610000002386,270.54369999998806,1366,270.54369999998806,4,270.54389999997613,1,2,32,2,1,1.2,0.3,Time
,,730111,001,F,22,2025-06-01_19h32.23.697,Serial_Dependence_U,2023.2.3,Win32,144.9275362318917,,,,,,270.54419999998805,113,1,270.5443000000119,113,,,,274.4868000000119,274.9865,273.98139999997613,274.48669999998805,271.54449999999997,273.9813000000119,274.9866000000238,275.48339999997614,275.4835,277.31260000002385,1437,277.31269999998807,3,277.31289999997614,1,3,33,8,1,1.4,0.7,Time
,,730111,001,F,22,2025-06-01_19h32.23.697,Serial_Dependence_U,2023.2.3,Win32,144.9275362318917,,,,,,277.31319999998806,93,1,277.3133999999761,93,,,,280.8908000000119,281.38880000001194,280.38189999997616,280.8908000000119,278.3153000000119,280.38189999997616,281.38880000001194,281.88910000002386,281.8891999999881,283.50010000002385,1296,283.5003000000119,4,283.50069999998806,1,4,34,21,1,1,0.3,Time
,,730111,001,F,22,2025-06-01_19h32.23.697,Serial_Dependence_U,2023.2.3,Win32,144.9275362318917,,,,,,283.5013999999762,279,1,283.5016000000238,279,,,,286.8501000000238,287.34939999997613,286.34339999997616,286.85,284.50739999997614,286.3431999999881,287.34939999997613,287.84919999998806,287.8493000000119,289.66660000002383,1313,289.66660000002383,5,289.667,1,5,35,25,1,0.8,0.7,Time
,,730111,001,F,22,2025-06-01_19h32.23.697,Serial_Dependence_U,2023.2.3,Win32,144.9275362318917,,,,,,289.6673000000119,353,1,289.66739999997617,353,,,,293.6076000000238,294.104,293.10610000002384,293.6075,290.6696999999881,293.10589999997615,294.104,294.60389999997614,294.60389999997614,296.572,1279,296.572,2,296.5723000000119,1,6,36,18,1,1.4,0.7,Time
,,730111,001,F,22,2025-06-01_19h32.23.697,Serial_Dependence_U,2023.2.3,Win32,144.9275362318917,,,,,,296.57260000002384,244,1,296.57260000002384,244,,,,300.7186999999881,301.2148999999761,300.2078999999762,300.7185,297.57239999997614,300.2078000000119,301.215,301.715,301.715,303.753,1417,303.753,2,303.7533000000119,1,7,37,19,1,1.6,0.7,Time
,,730111,001,F,22,2025-06-01_19h32.23.697,Serial_Dependence_U,2023.2.3,Win32,144.9275362318917,,,,,,303.7535,6,1,303.7536999999881,6,,,,307.2873000000119,307.78689999997613,306.78499999999997,307.28719999998805,304.7523000000119,306.7848999999762,307.78689999997613,308.2873999999762,308.2873999999762,309.5658000000119,883,309.5658000000119,2,309.566,1,8,38,6,1,1,0.7,Time
,,730111,001,F,22,2025-06-01_19h32.23.697,Serial_Dependence_U,2023.2.3,Win32,144.9275362318917,,,,,,309.5661000000238,295,1,309.5661999999881,295,,,,313.30539999997615,313.80489999997616,312.79839999997614,313.3053000000119,310.5658999999761,312.79819999998807,313.805,314.30480000001194,314.305,315.85360000002385,1113,315.85360000002385,2,315.85410000002383,1,9,39,7,1,1.2,0.7,Time
,,730111,001,F,22,2025-06-01_19h32.23.697,Serial_Dependence_U,2023.2.3,Win32,144.9275362318917,,,,,,315.8543000000119,146,1,315.8545,146,,,,320.03439999997613,320.534,319.5273999999761,320.0343000000119,316.86089999997614,319.52719999998806,320.534,321.03389999997614,321.03389999997614,323.08960000002384,1478,323.08969999998806,2,323.0898999999761,1,10,40,14,1,1.6,0.3,Time
,,730111,001,F,22,2025-06-01_19h32.23.697,Serial_Dependence_U,2023.2.3,Win32,144.9275362318917,,,,,,323.0903000000119,79,1,323.09039999997617,79,,,,327.2358000000119,327.7351999999881,326.72869999998807,327.23569999998807,324.0968000000119,326.72860000002385,327.7351999999881,328.235,328.235,346.8051999999881,1235,346.80539999997615,2,346.80589999997613,1,11,41,9,1,1.6,0.7,Time
,,730111,001,F,22,2025-06-01_19h32.23.697,Serial_Dependence_U,2023.2.3,Win32,144.9275362318917,,,,,,346.80649999999997,6,1,346.80689999997617,6,,,,350.58269999998805,351.08210000002384,350.07569999998805,350.58260000002383,347.81210000002386,350.0755,351.08210000002384,351.58219999998806,351.5823000000119,353.9225,1777,353.92260000002386,5,353.92289999997615,1,12,42,22,1,1.2,0.3,Time
,,730111,001,F,22,2025-06-01_19h32.23.697,Serial_Dependence_U,2023.2.3,Win32,144.9275362318917,,,,,,353.92339999997614,24,1,353.9235,24,,,,357.9028000000119,358.40139999997615,357.39489999997613,357.9026000000238,354.93,357.3948000000119,358.4015,358.90130000001193,358.90139999997615,364.1241999999881,1564,364.12430000001194,4,364.12460000002386,1,13,43,3,1,1.4,0.3,Time
,,730111,001,F,22,2025-06-01_19h32.23.697,Serial_Dependence_U,2023.2.3,Win32,144.9275362318917,,,,,,364.12510000002385,329,1,364.12519999998807,329,,,,367.4808000000119,367.9776999999881,366.97089999997615,367.4806999999881,365.1336999999881,366.97080000001193,367.9776999999881,368.47310000002386,368.47310000002386,370.2931999999881,1374,370.2931999999881,5,370.29360000002384,1,14,44,5,1,0.8,0.7,Time
,,730111,001,F,22,2025-06-01_19h32.23.697,Serial_Dependence_U,2023.2.3,Win32,144.9275362318917,,,,,,370.294,47,1,370.2943000000119,47,,,,374.0423000000119,374.5401999999881,373.53410000002384,374.0421999999881,371.30039999997615,373.534,374.5401999999881,375.0435,375.0435,378.8733000000119,1292,378.8735,4,378.8738000000119,1,15,45,17,1,1.2,0.7,Time
,,730111,001,F,22,2025-06-01_19h32.23.697,Serial_Dependence_U,2023.2.3,Win32,144.9275362318917,,,,,,378.8741000000238,40,1,378.87430000001194,40,,,,382.45010000002384,382.94969999998807,381.94319999998805,382.45,379.88069999998805,381.94310000002383,382.9498000000119,383.4495,383.44969999998807,385.28989999997617,1160,385.29,4,385.29030000001194,1,16,46,1,1,1,0.3,Time
,,730111,001,F,22,2025-06-01_19h32.23.697,Serial_Dependence_U,2023.2.3,Win32,144.9275362318917,,,,,,385.2906999999881,105,1,385.2908000000119,105,,,,389.235,389.73419999998805,388.72780000001194,389.2348000000119,386.2931999999881,388.7275,389.73419999998805,390.236,390.236,391.9843000000119,1200,391.9843999999762,2,391.9846999999881,1,17,47,28,1,1.4,0.7,Time
,,730111,001,F,22,2025-06-01_19h32.23.697,Serial_Dependence_U,2023.2.3,Win32,144.9275362318917,,,,,,391.98510000002386,315,1,391.9851999999881,315,,,,396.13719999998807,396.6366999999881,395.6303000000119,396.137,392.99289999997615,395.63010000002384,396.6366999999881,397.13719999998807,397.13719999998807,399.2965,1571,399.2965,3,399.2968000000119,1,18,48,29,1,1.6,0.7,Time
,,730111,001,F,22,2025-06-01_19h32.23.697,Serial_Dependence_U,2023.2.3,Win32,144.9275362318917,,,,,,399.29699999999997,329,1,399.2971000000238,329,,,,403.07460000002385,403.57389999997616,402.56769999998806,403.0745,400.3041000000238,402.56769999998806,403.574,404.07439999997615,404.0745,406.04660000002383,1221,406.04660000002383,3,406.0468999999762,1,19,49,12,1,1.2,0.3,Time
,,730111,001,F,22,2025-06-01_19h32.23.697,Serial_Dependence_U,2023.2.3,Win32,144.9275362318917,,,,,,406.04699999999997,12,1,406.0471000000238,12,,,,409.38689999997615,409.8865,408.88,409.38680000001193,407.0471000000238,408.87989999997615,409.8865,410.38680000001193,410.38680000001193,411.6433000000119,905,411.6433000000119,4,411.64339999997617,1,20,50,15,1,0.8,0.7,Time
,,730111,001,F,22,2025-06-01_19h32.23.697,Serial_Dependence_U,2023.2.3,Win32,144.9275362318917,,,,,,411.6436000000238,141,1,411.6436999999881,141,,,,415.19239999997615,415.6921999999881,414.6858000000119,415.1923000000119,412.6505,414.68560000002384,415.6921999999881,416.192,416.192,417.82410000002386,1211,417.82410000002386,4,417.82439999997615,1,21,51,26,1,1,0.7,Time
,,730111,001,F,22,2025-06-01_19h32.23.697,Serial_Dependence_U,2023.2.3,Win32,144.9275362318917,,,,,,417.82460000002385,51,1,417.8248000000119,51,,,,421.19910000002386,421.69880000001194,420.69289999997613,421.19910000002386,418.83139999997616,420.69269999998806,421.69880000001194,422.19910000002386,422.19910000002386,423.67819999998807,914,423.6783000000119,4,423.6785,1,22,52,20,1,0.8,0.3,Time
,,730111,001,F,22,2025-06-01_19h32.23.697,Serial_Dependence_U,2023.2.3,Win32,144.9275362318917,,,,,,423.6788000000119,293,1,423.679,293,,,,427.21969999998805,427.71999999999997,426.7128999999762,427.21960000002383,424.67810000002385,426.7128000000119,427.71999999999997,428.2193000000119,428.2193000000119,429.47669999998806,1158,429.47669999998806,4,429.477,1,23,53,16,1,1,0.7,Time
,,730111,001,F,22,2025-06-01_19h32.23.697,Serial_Dependence_U,2023.2.3,Win32,144.9275362318917,,,,,,429.47739999997617,223,1,429.4775,223,,,,433.44889999997616,433.94880000001194,432.9421999999881,433.44880000001194,430.4771999999881,432.94210000002386,433.94889999997616,434.4495,434.4495,434.8033000000119,93,434.80339999997614,1,434.80360000002383,1,24,54,13,1,1.4,0.3,Time
,,730111,001,F,22,2025-06-01_19h32.23.697,Serial_Dependence_U,2023.2.3,Win32,144.9275362318917,,,,,,434.8038999999761,229,1,434.804,229,,,,438.1783000000119,438.6775,437.67119999998806,438.17819999998807,435.8101999999881,437.671,438.6775,439.1778000000119,439.17789999997615,440.67110000002384,1014,440.67110000002384,4,440.6715,1,25,55,0,1,0.8,0.3,Time
,,730111,001,F,22,2025-06-01_19h32.23.697,Serial_Dependence_U,2023.2.3,Win32,144.9275362318917,,,,,,440.6718000000119,145,1,440.6718999999762,145,,,,444.8518999999761,445.35119999998807,444.34499999999997,444.85169999998806,441.6783000000119,444.3448000000119,445.35119999998807,445.85139999997614,445.85139999997614,447.8861999999881,1492,447.88630000001194,2,447.88660000002386,1,26,56,4,1,1.6,0.3,Time
,,730111,001,F,22,2025-06-01_19h32.23.697,Serial_Dependence_U,2023.2.3,Win32,144.9275362318917,,,,,,447.887,137,1,447.88710000002385,137,,,,451.46269999998805,451.9623999999761,450.95630000001194,451.4625,448.89339999997617,450.9561000000238,451.9625,452.4628000000119,452.4628999999762,454.49739999997615,1475,454.4975,5,454.4978000000119,1,27,57,11,1,1,0.3,Time
,,730111,001,F,22,2025-06-01_19h32.23.697,Serial_Dependence_U,2023.2.3,Win32,144.9275362318917,,,,,,454.49810000002384,1,1,454.49819999998806,1,,,,458.678,459.1775,458.17119999998806,458.6778000000119,455.5046999999881,458.171,459.17760000002386,459.67760000002386,459.67760000002386,461.7123000000119,1478,461.7123999999761,2,461.71269999998805,1,28,58,24,1,1.6,0.3,Time
,,730111,001,F,22,2025-06-01_19h32.23.697,Serial_Dependence_U,2023.2.3,Win32,144.9275362318917,,,,,,461.713,245,1,461.7131999999881,245,,,,465.69260000002384,466.19180000001194,465.18510000002385,465.6923000000119,462.7195,465.18489999997615,466.19189999997616,466.6916999999881,466.6916999999881,468.84460000002383,1583,468.84469999998805,4,468.84499999999997,1,29,59,23,1,1.4,0.3,Time
,,730111,001,F,22,2025-06-01_19h32.23.697,Serial_Dependence_U,2023.2.3,Win32,144.9275362318917,,,,,,468.8455,76,2,499.78830000001193,76,s,30.932099999964237,,503.32410000002386,503.82260000002384,502.8213000000119,503.32389999997616,500.7896999999881,502.8211000000238,503.82260000002384,504.3241999999881,504.3241999999881,506.31689999997616,1287,506.31689999997616,4,506.31710000002386,2,0,60,16,1,1,0.7,Time
,,730111,001,F,22,2025-06-01_19h32.23.697,Serial_Dependence_U,2023.2.3,Win32,144.9275362318917,,,,,,506.31739999997615,341,2,506.31819999998805,341,,,,509.668,510.16980000001195,509.15669999998806,509.66789999997616,507.323,509.1563999999762,510.16980000001195,510.6696999999881,510.6696999999881,512.3643000000119,1024,512.3643000000119,4,512.364699999988,2,1,61,5,1,0.8,0.7,Time
,,730111,001,F,22,2025-06-01_19h32.23.697,Serial_Dependence_U,2023.2.3,Win32,144.9275362318917,,,,,,512.365,299,2,512.3651000000239,299,,,,516.309,516.8026000000239,515.8021000000239,516.308800000012,513.3696000000239,515.8018999999762,516.8026000000239,517.3015,517.3015,519.2203000000119,1358,519.2203999999762,3,519.220699999988,2,2,62,28,1,1.4,0.7,Time
,,730111,001,F,22,2025-06-01_19h32.23.697,Serial_Dependence_U,2023.2.3,Win32,144.9275362318917,,,,,,519.221,73,2,519.221,73,,,,522.588,523.0838000000119,522.0863000000119,522.5878999999761,520.2215,522.086199999988,523.0838999999761,523.5848000000119,523.5848000000119,525.2331000000238,1071,525.2331999999881,5,525.2333999999762,2,3,63,20,1,0.8,0.3,Time
,,730111,001,F,22,2025-06-01_19h32.23.697,Serial_Dependence_U,2023.2.3,Win32,144.9275362318917,,,,,,525.2338000000119,201,2,525.2338999999762,201,,,,529.1841000000238,529.6835,528.677,529.1838999999761,526.2395,528.6768000000119,529.6835,530.1835,530.1835,532.2111000000239,1416,532.211199999988,3,532.2116000000239,2,4,64,18,1,1.4,0.7,Time
,,730111,001,F,22,2025-06-01_19h32.23.697,Serial_Dependence_U,2023.2.3,Win32,144.9275362318917,,,,,,532.212,249,2,532.2121000000238,249,,,,535.9544999999999,536.454,535.449,535.9541999999881,533.2118000000119,535.449,536.454,536.954,536.954,539.0721999999881,1408,539.0721999999881,4,539.0726000000238,2,5,65,7,1,1.2,0.7,Time
,,730111,001,F,22,2025-06-01_19h32.23.697,Serial_Dependence_U,2023.2.3,Win32,144.9275362318917,,,,,,539.0731000000238,282,2,539.0731999999881,282,,,,542.4473999999761,542.9446000000238,541.9406000000239,542.4473000000119,540.0794999999999,541.9405,542.9446999999881,543.4401000000238,543.4401999999881,545.2543999999762,1221,545.2543999999762,5,545.2546000000239,2,6,66,10,1,0.8,0.3,Time
,,730111,001,F,22,2025-06-01_19h32.23.697,Serial_Dependence_U,2023.2.3,Win32,144.9275362318917,,,,,,545.2548999999761,123,2,545.255,123,,,,548.6346000000239,549.134199999988,548.1325,548.6343999999762,546.265,548.1323999999762,549.1343000000119,549.634199999988,549.6343000000119,551.422699999988,1226,551.4228000000119,5,551.423,2,7,67,0,1,0.8,0.3,Time
,,730111,001,F,22,2025-06-01_19h32.23.697,Serial_Dependence_U,2023.2.3,Win32,144.9275362318917,,,,,,551.4231999999881,6,2,551.4233000000119,6,,,,555.171,555.6691000000238,554.6661999999881,555.1708999999762,552.4268999999762,554.6661000000238,555.6691999999881,556.169800000012,556.169800000012,557.9881999999881,1324,557.9881999999881,4,557.9883999999762,2,8,68,27,1,1.2,0.7,Time
,,730111,001,F,22,2025-06-01_19h32.23.697,Serial_Dependence_U,2023.2.3,Win32,144.9275362318917,,,,,,557.9886000000238,8,2,557.9886000000238,8,,,,561.7318999999761,562.2293999999762,561.224699999988,561.7316999999881,558.989,561.2246000000239,562.2293999999762,562.7296000000239,562.7296000000239,564.534300000012,1269,564.534300000012,4,564.5346000000238,2,9,69,17,1,1.2,0.7,Time
,,730111,001,F,22,2025-06-01_19h32.23.697,Serial_Dependence_U,2023.2.3,Win32,144.9275362318917,,,,,,564.5348999999761,213,2,564.5351000000238,213,,,,568.1,568.5991999999881,567.5976000000238,568.0998999999762,565.5316000000238,567.5975,568.5991999999881,569.096800000012,569.0968999999761,571.4256999999881,1444,571.4256999999881,5,571.426,2,10,70,1,1,1,0.3,Time
,,730111,001,F,22,2025-06-01_19h32.23.697,Serial_Dependence_U,2023.2.3,Win32,144.9275362318917,,,,,,571.4261999999881,163,2,571.4263000000119,163,,,,575.3955,575.8968999999762,574.8946000000238,575.395300000012,572.433,574.8945,575.8968999999762,576.3968999999762,576.3968999999762,578.4325,1326,578.4325,2,578.4328999999761,2,11,71,3,1,1.4,0.3,Time
,,730111,001,F,22,2025-06-01_19h32.23.697,Serial_Dependence_U,2023.2.3,Win32,144.9275362318917,,,,,,578.4331999999881,51,2,578.433300000012,51,,,,582.2118999999761,582.7118000000119,581.7083999999761,582.2116999999881,579.4398000000119,581.708300000012,582.7118000000119,583.2116999999881,583.2118000000119,584.8405,1190,584.8405,3,584.840699999988,2,12,72,22,1,1.2,0.3,Time
,,730111,001,F,22,2025-06-01_19h32.23.697,Serial_Dependence_U,2023.2.3,Win32,144.9275362318917,,,,,,584.841,1,2,584.841199999988,1,,,,588.4186000000238,588.9183000000119,587.9133000000119,588.4185,585.8475,587.913199999988,588.9183000000119,589.4183000000119,589.4183999999761,590.9498999999762,1004,590.95,3,590.9501000000238,2,13,73,11,1,1,0.3,Time
,,730111,001,F,22,2025-06-01_19h32.23.697,Serial_Dependence_U,2023.2.3,Win32,144.9275362318917,,,,,,590.9503999999762,67,2,590.9505,67,,,,595.0911000000239,595.5921999999881,594.5853999999762,595.091,591.9491999999881,594.5853000000119,595.5921999999881,596.0906000000239,596.090699999988,597.5708999999762,1339,597.571,2,597.571199999988,2,14,74,9,1,1.6,0.7,Time
,,730111,001,F,22,2025-06-01_19h32.23.697,Serial_Dependence_U,2023.2.3,Win32,144.9275362318917,,,,,,597.5715,52,2,597.571699999988,52,,,,601.3491000000238,601.8486000000238,600.8443999999762,601.349,598.58,600.8443000000119,601.8486999999881,602.3485,602.3486000000238,604.8418999999761,1584,604.842,5,604.842300000012,2,15,75,2,1,1.2,0.3,Time
,,730111,001,F,22,2025-06-01_19h32.23.697,Serial_Dependence_U,2023.2.3,Win32,144.9275362318917,,,,,,604.8426000000238,349,2,604.8426999999881,349,,,,609.0161999999881,609.5151999999881,608.5105,609.0158999999761,605.8446000000239,608.5103999999761,609.5151999999881,610.015300000012,610.015300000012,612.2565,1648,612.2565,3,612.2568000000119,2,16,76,4,1,1.6,0.3,Time
,,730111,001,F,22,2025-06-01_19h32.23.697,Serial_Dependence_U,2023.2.3,Win32,144.9275362318917,,,,,,612.2571000000238,315,2,612.2571999999881,315,,,,615.828300000012,616.3275,615.3238999999761,615.8281000000238,613.2621000000238,615.3236999999881,616.3276999999881,616.8293999999762,616.8293999999762,619.2775,1649,619.2776000000239,5,619.2778000000119,2,17,77,21,1,1,0.3,Time
,,730111,001,F,22,2025-06-01_19h32.23.697,Serial_Dependence_U,2023.2.3,Win32,144.9275362318917,,,,,,619.278199999988,110,2,619.278199999988,110,,,,622.8236000000238,623.3218999999762,622.3216000000239,622.8236000000238,620.2858000000119,622.3213999999762,623.3218999999762,623.8218000000119,623.8218000000119,625.225699999988,1224,625.225699999988,4,625.2258000000119,2,18,78,26,1,1,0.7,Time
,,730111,001,F,22,2025-06-01_19h32.23.697,Serial_Dependence_U,2023.2.3,Win32,144.9275362318917,,,,,,625.2261000000238,223,2,625.2261000000238,223,,,,629.3698999999762,629.8693000000119,628.8628000000119,629.3696000000239,626.2271999999881,628.8625,629.8693000000119,630.369199999988,630.369199999988,632.5691000000238,1366,632.5691000000238,2,632.5693999999761,2,19,79,29,1,1.6,0.7,Time
,,730111,001,F,22,2025-06-01_19h32.23.697,Serial_Dependence_U,2023.2.3,Win32,144.9275362318917,,,,,,632.5698000000119,8,2,632.5698999999762,8,,,,636.341,636.8426999999881,635.8351000000239,636.340699999988,633.568800000012,635.8348000000119,636.8426999999881,637.3416000000238,637.3416999999881,639.008,1053,639.008,2,639.0083000000119,2,20,80,12,1,1.2,0.3,Time
,,730111,001,F,22,2025-06-01_19h32.23.697,Serial_Dependence_U,2023.2.3,Win32,144.9275362318917,,,,,,639.0086000000239,71,2,639.008699999988,71,,,,642.3571999999881,642.8528000000119,641.8561999999881,642.3571000000238,640.0196000000238,641.856,642.8528000000119,643.3483000000119,643.3483000000119,644.6815,1105,644.6816000000239,5,644.6818999999762,2,21,81,25,1,0.8,0.7,Time
,,730111,001,F,22,2025-06-01_19h32.23.697,Serial_Dependence_U,2023.2.3,Win32,144.9275362318917,,,,,,644.682199999988,354,2,644.6823000000119,354,,,,648.6546999999881,649.1548999999761,648.1528999999762,648.6543999999761,645.6871000000239,648.1528000000119,649.1548999999761,649.653699999988,649.653699999988,651.654,1542,651.654,4,651.6541000000238,2,22,82,23,1,1.4,0.3,Time
,,730111,001,F,22,2025-06-01_19h32.23.697,Serial_Dependence_U,2023.2.3,Win32,144.9275362318917,,,,,,651.6541000000238,117,2,651.6541999999881,117,,,,654.9938000000119,655.4936000000239,654.4876999999881,654.993699999988,652.6541999999881,654.4876000000238,655.4936000000239,655.9943999999762,655.9943999999762,657.590699999988,1087,657.5908000000119,5,657.591,2,23,83,15,1,0.8,0.7,Time
,,730111,001,F,22,2025-06-01_19h32.23.697,Serial_Dependence_U,2023.2.3,Win32,144.9275362318917,,,,,,657.591199999988,176,2,657.5913999999761,176,,,,661.7378000000119,662.2366999999881,661.232300000012,661.7376000000238,658.5916999999881,661.2321000000238,662.2366999999881,662.7365,662.7366000000238,663.1886000000238,63,663.1886000000238,1,663.1888999999761,2,24,84,19,1,1.6,0.7,Time
,,730111,001,F,22,2025-06-01_19h32.23.697,Serial_Dependence_U,2023.2.3,Win32,144.9275362318917,,,,,,663.1893999999761,308,2,663.1896000000238,308,,,,667.1368000000119,667.6321000000238,666.6268000000119,667.1368000000119,664.1951000000238,666.6266999999881,667.6321999999881,668.132,668.132,677.5208999999761,1213,677.5208999999761,2,677.5211999999881,2,25,85,8,1,1.4,0.7,Time
,,730111,001,F,22,2025-06-01_19h32.23.697,Serial_Dependence_U,2023.2.3,Win32,144.9275362318917,,,,,,677.5213000000119,148,2,677.5213999999761,148,,,,681.7043999999762,682.1993999999762,681.1996999999881,681.7043000000119,678.5316000000238,681.1995,682.1993999999762,682.6953000000119,682.6953000000119,684.9633999999761,1565,684.9633999999761,3,684.9635,2,26,86,24,1,1.6,0.3,Time
,,730111,001,F,22,2025-06-01_19h32.23.697,Serial_Dependence_U,2023.2.3,Win32,144.9275362318917,,,,,,684.9636999999881,93,2,684.9636999999881,93,,,,689.1393999999761,689.636,688.6346000000239,689.139199999988,685.9676000000238,688.6343000000119,689.636,690.1365,690.1366999999881,692.4538000000119,1722,692.4538000000119,4,692.4541000000238,2,27,87,14,1,1.6,0.3,Time
,,730111,001,F,22,2025-06-01_19h32.23.697,Serial_Dependence_U,2023.2.3,Win32,144.9275362318917,,,,,,692.4543000000119,49,2,692.4543999999762,49,,,,696.4308999999762,696.9304999999999,695.9251999999881,696.4308000000119,693.4586999999881,695.9251000000238,696.9304999999999,697.4343999999761,697.4343999999761,699.0983000000119,1433,699.0983999999762,3,699.0988999999762,2,28,88,13,1,1.4,0.3,Time
,,730111,001,F,22,2025-06-01_19h32.23.697,Serial_Dependence_U,2023.2.3,Win32,144.9275362318917,,,,,,699.0993000000119,247,2,699.0993999999762,247,,,,702.635,703.1316000000238,702.129699999988,702.6348000000119,700.0983000000119,702.1295,703.1316999999881,703.6333000000119,703.6333000000119,704.8833000000119,868,704.8833999999762,2,704.8835,2,29,89,6,1,1,0.7,Time
,,730111,001,F,22,2025-06-01_19h32.23.697,Serial_Dependence_U,2023.2.3,Win32,144.9275362318917,,,,,,704.8838000000119,2,3,2259.467600000024,2,s,1554.5725,,2263.0238999999765,2263.523100000024,2262.5170000000003,2263.023800000012,2260.474600000024,2262.516800000012,2263.523100000024,2264.022600000024,2264.022600000024,2265.8423999999764,1145,2265.8423999999764,4,2265.842600000024,3,0,90,16,1,1,0.7,Time
,,730111,001,F,22,2025-06-01_19h32.23.697,Serial_Dependence_U,2023.2.3,Win32,144.9275362318917,,,,,,2265.842800000012,335,3,2265.8436000000243,335,,,,2269.3928000000124,2269.890699999988,2268.884199999988,2269.3926999999885,2266.8495000000003,2268.884199999988,2269.890699999988,2270.391,2270.391100000024,2272.331100000024,1273,2272.331100000024,4,2272.331300000012,3,1,91,6,1,1,0.7,Time
,,730111,001,F,22,2025-06-01_19h32.23.697,Serial_Dependence_U,2023.2.3,Win32,144.9275362318917,,,,,,2272.331600000024,118,3,2272.3316999999884,118,,,,2275.668800000012,2276.1685,2275.162100000024,2275.668600000024,2273.328800000012,2275.1620000000003,2276.1685,2276.6638999999764,2276.6638999999764,2278.224,958,2278.224,4,2278.2241999999883,3,2,92,5,1,0.8,0.7,Time
,,730111,001,F,22,2025-06-01_19h32.23.697,Serial_Dependence_U,2023.2.3,Win32,144.9275362318917,,,,,,2278.224300000012,263,3,2278.2243999999764,263,,,,2281.5691000000243,2282.0668000000123,2281.0646000000243,2281.5691000000243,2279.2328999999763,2281.0646000000243,2282.0668000000123,2282.5641999999884,2282.5641999999884,2284.432300000012,1224,2284.432300000012,5,2284.4323999999765,3,3,93,15,1,0.8,0.7,Time
,,730111,001,F,22,2025-06-01_19h32.23.697,Serial_Dependence_U,2023.2.3,Win32,144.9275362318917,,,,,,2284.432600000024,29,3,2284.432600000024,29,,,,2288.571399999976,2289.071100000024,2288.0645000000004,2288.571399999976,2285.4323999999765,2288.0643000000123,2289.071100000024,2289.5708999999765,2289.5708999999765,2292.7585000000004,1565,2292.758600000024,3,2292.7586999999885,3,4,94,29,1,1.6,0.7,Time
,,730111,001,F,22,2025-06-01_19h32.23.697,Serial_Dependence_U,2023.2.3,Win32,144.9275362318917,,,,,,2292.7588000000123,240,3,2292.758899999976,240,,,,2296.9343999999764,2297.4320000000002,2296.426800000012,2296.934300000012,2293.766100000024,2296.426600000024,2297.432100000024,2297.934,2297.934,2300.7653999999766,1955,2300.7655000000004,4,2300.765699999988,3,5,95,4,1,1.6,0.3,Time
,,730111,001,F,22,2025-06-01_19h32.23.697,Serial_Dependence_U,2023.2.3,Win32,144.9275362318917,,,,,,2300.765800000012,235,3,2300.766,235,,,,2304.911300000012,2305.410899999976,2304.4043999999762,2304.911300000012,2301.7725,2304.404300000012,2305.410899999976,2305.9136999999882,2305.913800000012,2308.4483000000123,1864,2308.4483999999766,4,2308.4485000000004,3,6,96,9,1,1.6,0.7,Time
,,730111,001,F,22,2025-06-01_19h32.23.697,Serial_Dependence_U,2023.2.3,Win32,144.9275362318917,,,,,,2308.448699999988,148,3,2308.448699999988,148,,,,2311.9946999999884,2312.494300000012,2311.4876999999883,2311.9946999999884,2309.4541999999883,2311.487600000024,2312.494300000012,2312.9945000000002,2312.9945000000002,2314.911,1265,2314.911,4,2314.911199999988,3,7,97,26,1,1,0.7,Time
,,730111,001,F,22,2025-06-01_19h32.23.697,Serial_Dependence_U,2023.2.3,Win32,144.9275362318917,,,,,,2314.9113999999763,308,3,2314.9113999999763,308,,,,2318.8833000000122,2319.383100000024,2318.3768000000123,2318.8833000000122,2315.9113999999763,2318.3766999999884,2319.3831999999884,2319.883100000024,2319.8831999999884,2321.9526999999885,1543,2321.9528000000123,4,2321.9530000000004,3,8,98,3,1,1.4,0.3,Time
,,730111,001,F,22,2025-06-01_19h32.23.697,Serial_Dependence_U,2023.2.3,Win32,144.9275362318917,,,,,,2321.953300000012,263,3,2321.953399999976,263,,,,2325.931600000024,2326.431600000024,2325.425100000024,2325.9315,2322.9615000000003,2325.425100000024,2326.431600000024,2326.932300000012,2326.932300000012,2328.8831999999884,1389,2328.8831999999884,3,2328.8835000000004,3,9,99,23,1,1.4,0.3,Time
,,730111,001,F,22,2025-06-01_19h32.23.697,Serial_Dependence_U,2023.2.3,Win32,144.9275362318917,,,,,,2328.883600000024,13,3,2328.8836999999885,13,,,,2332.8231999999884,2333.322300000012,2332.3208999999765,2332.8231999999884,2329.8833000000122,2332.3208000000122,2333.322300000012,2333.8205000000003,2333.8205000000003,2374.614,1276,2374.614,2,2374.614100000024,3,10,100,8,1,1.4,0.7,Time
,,730111,001,F,22,2025-06-01_19h32.23.697,Serial_Dependence_U,2023.2.3,Win32,144.9275362318917,,,,,,2374.614199999988,259,3,2374.614300000012,259,,,,2378.195100000024,2378.6945,2377.687800000012,2378.195,2375.622800000012,2377.687600000024,2378.6945,2379.1956999999884,2379.1956999999884,2381.5695,1465,2381.5695,5,2381.569600000024,3,11,101,11,1,1,0.3,Time
,,730111,001,F,22,2025-06-01_19h32.23.697,Serial_Dependence_U,2023.2.3,Win32,144.9275362318917,,,,,,2381.569800000012,342,3,2381.5698999999763,342,,,,2385.1433999999763,2385.6396999999884,2384.6345,2385.143199999988,2382.569800000012,2384.634300000012,2385.6396999999884,2386.136199999988,2386.136300000012,2387.722300000012,1012,2387.722300000012,3,2387.7223999999765,3,12,102,21,1,1,0.3,Time
,,730111,001,F,22,2025-06-01_19h32.23.697,Serial_Dependence_U,2023.2.3,Win32,144.9275362318917,,,,,,2387.7226999999884,146,3,2387.7228000000123,146,,,,2391.897399999976,2392.395699999988,2391.3903000000123,2391.8973000000124,2388.7223999999765,2391.3901999999885,2392.395699999988,2392.895600000024,2392.895600000024,2397.8748999999766,1558,2397.8748999999766,3,2397.875100000024,3,13,103,14,1,1.6,0.3,Time
,,730111,001,F,22,2025-06-01_19h32.23.697,Serial_Dependence_U,2023.2.3,Win32,144.9275362318917,,,,,,2397.875300000012,43,3,2397.875600000024,43,,,,2402.049800000012,2402.5485000000003,2401.5485000000003,2402.049699999988,2398.881699999988,2401.5483999999765,2402.5485000000003,2403.0488000000123,2403.0490000000004,2406.0816999999884,1929,2406.081800000012,4,2406.0820000000003,3,14,104,24,1,1.6,0.3,Time
,,730111,001,F,22,2025-06-01_19h32.23.697,Serial_Dependence_U,2023.2.3,Win32,144.9275362318917,,,,,,2406.0825000000004,294,3,2406.0826000000243,294,,,,2409.458100000024,2409.957699999988,2408.950899999976,2409.458,2407.09,2408.9508000000124,2409.957699999988,2410.457699999988,2410.457699999988,2411.5620000000004,763,2411.5620000000004,3,2411.562100000024,3,15,105,10,1,0.8,0.3,Time
,,730111,001,F,22,2025-06-01_19h32.23.697,Serial_Dependence_U,2023.2.3,Win32,144.9275362318917,,,,,,2411.5623000000123,196,3,2411.5623999999766,196,,,,2415.326600000024,2415.8295000000003,2414.825899999976,2415.3263999999763,2412.562100000024,2414.8258000000124,2415.829600000024,2416.326,2416.326,2417.971600000024,1064,2417.9716999999882,2,2417.9716999999882,3,16,106,2,1,1.2,0.3,Time
,,730111,001,F,22,2025-06-01_19h32.23.697,Serial_Dependence_U,2023.2.3,Win32,144.9275362318917,,,,,,2417.972,10,3,2417.972,10,,,,2421.951300000012,2422.450600000024,2421.444300000012,2421.951199999988,2418.9786999999883,2421.444199999988,2422.450600000024,2422.950899999976,2422.950899999976,2424.8048999999764,1102,2424.8048999999764,2,2424.8050000000003,3,17,107,13,1,1.4,0.3,Time
,,730111,001,F,22,2025-06-01_19h32.23.697,Serial_Dependence_U,2023.2.3,Win32,144.9275362318917,,,,,,2424.8051999999884,313,3,2424.8053000000123,313,,,,2428.3741999999884,2428.8738999999764,2427.867300000012,2428.374100000024,2425.8048999999764,2427.867300000012,2428.8740000000003,2429.3740000000003,2429.374100000024,2430.6313999999766,868,2430.6313999999766,2,2430.6316000000243,3,18,108,1,1,1,0.3,Time
,,730111,001,F,22,2025-06-01_19h32.23.697,Serial_Dependence_U,2023.2.3,Win32,144.9275362318917,,,,,,2430.631800000012,31,3,2430.631800000012,31,,,,2434.402300000012,2434.901899999976,2433.8951000000243,2434.402199999988,2431.6313999999766,2433.8950000000004,2434.901899999976,2435.3988999999765,2435.3990000000003,2437.693600000024,1544,2437.693600000024,4,2437.6938000000123,3,19,109,12,1,1.2,0.3,Time
,,730111,001,F,22,2025-06-01_19h32.23.697,Serial_Dependence_U,2023.2.3,Win32,144.9275362318917,,,,,,2437.6938999999766,121,3,2437.6940000000004,121,,,,2441.833199999988,2442.3320000000003,2441.332699999988,2441.833100000024,2438.700600000024,2441.3326000000243,2442.3320000000003,2442.8321999999885,2442.8321999999885,2445.2490000000003,1709,2445.2490000000003,4,2445.249100000024,3,20,110,19,1,1.6,0.7,Time
,,730111,001,F,22,2025-06-01_19h32.23.697,Serial_Dependence_U,2023.2.3,Win32,144.9275362318917,,,,,,2445.2491999999884,3,3,2445.2493999999765,3,,,,2448.9903999999765,2449.487,2448.4880000000003,2448.990300000012,2446.2560000000003,2448.4878999999764,2449.487,2449.9898999999764,2449.9900000000002,2452.6443999999765,1520,2452.6445000000003,4,2452.644600000024,3,21,111,17,1,1.2,0.7,Time
,,730111,001,F,22,2025-06-01_19h32.23.697,Serial_Dependence_U,2023.2.3,Win32,144.9275362318917,,,,,,2452.6446999999885,155,3,2452.6448000000123,155,,,,2455.985,2456.484699999988,2455.4783999999763,2455.9848999999763,2453.6448000000123,2455.478300000012,2456.484699999988,2456.984800000012,2456.9848999999763,2459.3770000000004,1339,2459.3770000000004,5,2459.377199999988,3,22,112,25,1,0.8,0.7,Time
,,730111,001,F,22,2025-06-01_19h32.23.697,Serial_Dependence_U,2023.2.3,Win32,144.9275362318917,,,,,,2459.377300000012,4,3,2459.377399999976,4,,,,2463.1445000000003,2463.6440000000002,2462.6375000000003,2463.1443999999765,2460.3740000000003,2462.6375000000003,2463.644100000024,2464.1443999999765,2464.1443999999765,2465.4776000000243,1144,2465.477699999988,3,2465.477800000012,3,23,113,22,1,1.2,0.3,Time
,,730111,001,F,22,2025-06-01_19h32.23.697,Serial_Dependence_U,2023.2.3,Win32,144.9275362318917,,,,,,2465.477899999976,170,3,2465.478100000024,170,,,,2469.422100000024,2469.922199999988,2468.915399999976,2469.422100000024,2466.4788999999764,2468.915300000012,2469.922199999988,2470.422,2470.422,2472.6743999999762,1596,2472.6743999999762,4,2472.6745,3,24,114,18,1,1.4,0.7,Time
,,730111,001,F,22,2025-06-01_19h32.23.697,Serial_Dependence_U,2023.2.3,Win32,144.9275362318917,,,,,,2472.674600000024,154,3,2472.674600000024,154,,,,2476.054199999988,2476.553800000012,2475.5508999999765,2476.054199999988,2473.684100000024,2475.5508000000123,2476.553800000012,2477.0548999999764,2477.0550000000003,2478.248300000012,1040,2478.248300000012,5,2478.2485,3,25,115,0,1,0.8,0.3,Time
,,730111,001,F,22,2025-06-01_19h32.23.697,Serial_Dependence_U,2023.2.3,Win32,144.9275362318917,,,,,,2478.248800000012,106,3,2478.248800000012,106,,,,2481.9983999999763,2482.4985,2481.4926999999884,2481.998300000012,2479.255300000012,2481.492600000024,2482.4985,2482.998199999988,2482.998199999988,2485.0216999999884,1157,2485.0218000000123,3,2485.0218999999765,3,26,116,27,1,1.2,0.7,Time
,,730111,001,F,22,2025-06-01_19h32.23.697,Serial_Dependence_U,2023.2.3,Win32,144.9275362318917,,,,,,2485.0221000000242,131,3,2485.0221999999885,131,,,,2488.388699999988,2488.8885,2487.8881999999885,2488.388600000024,2486.022699999988,2487.888100000024,2488.888600000024,2489.3848999999764,2489.3848999999764,2491.3758999999764,1218,2491.376,5,2491.376100000024,3,27,117,20,1,0.8,0.3,Time
,,730111,001,F,22,2025-06-01_19h32.23.697,Serial_Dependence_U,2023.2.3,Win32,144.9275362318917,,,,,,2491.376300000012,20,3,2491.376300000012,20,,,,2495.3245,2495.8243999999763,2494.8176999999882,2495.3243999999763,2492.3843999999763,2494.8176999999882,2495.8243999999763,2496.324199999988,2496.324300000012,2498.486699999988,1549,2498.486699999988,4,2498.486800000012,3,28,118,28,1,1.4,0.7,Time
,,730111,001,F,22,2025-06-01_19h32.23.697,Serial_Dependence_U,2023.2.3,Win32,144.9275362318917,,,,,,2498.487,169,3,2498.487100000024,169,,,,2502.2213999999763,2502.7295000000004,2501.720100000024,2502.221300000012,2499.4865000000004,2501.720100000024,2502.7295000000004,2503.226800000012,2503.226800000012,2504.726800000012,1117,2504.726800000012,2,2504.7268999999765,3,29,119,7,1,1.2,0.7,Time
,,730111,001,F,22,2025-06-01_19h32.23.697,Serial_Dependence_U,2023.2.3,Win32,144.9275362318917,,,,,,2504.7271999999884,57,4,4125.439899999976,57,s,1620.7046999999884,,4128.991,4129.488399999976,4128.485,4128.990899999976,4126.447199999988,4128.485,4129.488399999976,4129.988699999988,4129.988699999988,4132.3009999999995,1393,4132.301100000023,5,4132.301199999988,4,0,120,6,1,1,0.7,Time
,,730111,001,F,22,2025-06-01_19h32.23.697,Serial_Dependence_U,2023.2.3,Win32,144.9275362318917,,,,,,4132.301300000012,153,4,4132.302199999988,153,,,,4136.474600000023,4136.974300000012,4135.971199999988,4136.474600000023,4133.303699999988,4135.971100000023,4136.9743999999755,4137.469300000012,4137.469300000012,4139.960800000012,1776,4139.960800000012,4,4139.960999999999,4,1,121,24,1,1.6,0.3,Time
,,730111,001,F,22,2025-06-01_19h32.23.697,Serial_Dependence_U,2023.2.3,Win32,144.9275362318917,,,,,,4139.961100000023,133,4,4139.961199999988,133,,,,4143.335800000012,4143.8355,4142.828699999988,4143.335800000012,4140.967899999976,4142.8286000000235,4143.8355,4144.3355,4144.335600000024,4145.974499999999,1031,4145.974499999999,4,4145.974499999999,4,2,122,20,1,0.8,0.3,Time
,,730111,001,F,22,2025-06-01_19h32.23.697,Serial_Dependence_U,2023.2.3,Win32,144.9275362318917,,,,,,4145.974699999988,277,4,4145.974899999976,277,,,,4149.523300000012,4150.022899999976,4149.016199999988,4149.523199999988,4146.984800000012,4149.016199999988,4150.022899999976,4150.522800000012,4150.522800000012,4151.9675,1058,4151.9675,4,4151.967600000024,4,3,123,26,1,1,0.7,Time
,,730111,001,F,22,2025-06-01_19h32.23.697,Serial_Dependence_U,2023.2.3,Win32,144.9275362318917,,,,,,4151.967699999987,9,4,4151.967800000011,9,,,,4155.9343999999755,4156.439699999988,4155.432600000024,4155.934300000012,4152.967399999976,4155.432600000024,4156.439699999988,4156.939600000023,4156.939600000023,4158.363100000023,1108,4158.363199999988,2,4158.363199999988,4,4,124,13,1,1.4,0.3,Time
,,730111,001,F,22,2025-06-01_19h32.23.697,Serial_Dependence_U,2023.2.3,Win32,144.9275362318917,,,,,,4158.363300000012,52,4,4158.363399999976,52,,,,4161.731199999987,4162.231100000024,4161.224,4161.731199999987,4159.363300000012,4161.224,4162.231199999987,4162.731,4162.731,4164.6546000000235,1153,4164.654699999988,5,4164.654800000012,4,5,125,0,1,0.8,0.3,Time
,,730111,001,F,22,2025-06-01_19h32.23.697,Serial_Dependence_U,2023.2.3,Win32,144.9275362318917,,,,,,4164.655,157,4,4164.655,157,,,,4168.397699999988,4168.897699999988,4167.893199999988,4168.397600000024,4165.661600000024,4167.893100000024,4168.897699999988,4169.399100000023,4169.399100000023,4171.196600000024,1281,4171.196699999988,4,4171.196899999976,4,6,126,7,1,1.2,0.7,Time
,,730111,001,F,22,2025-06-01_19h32.23.697,Serial_Dependence_U,2023.2.3,Win32,144.9275362318917,,,,,,4171.197100000024,355,4,4171.197100000024,355,,,,4174.765600000023,4175.265699999988,4174.259,4174.765600000023,4172.196300000011,4174.258899999976,4175.265699999988,4175.7654999999995,4175.7654999999995,4179.1475,981,4179.1475,3,4179.147600000024,4,7,127,11,1,1,0.3,Time
,,730111,001,F,22,2025-06-01_19h32.23.697,Serial_Dependence_U,2023.2.3,Win32,144.9275362318917,,,,,,4179.147699999988,274,4,4179.147800000012,274,,,,4182.4946999999875,4182.9945,4181.987699999988,4182.4946999999875,4180.1545,4181.987600000024,4182.994600000024,4183.494600000024,4183.494600000024,4184.938999999999,1153,4184.938999999999,5,4184.939100000023,4,8,128,25,1,0.8,0.7,Time
,,730111,001,F,22,2025-06-01_19h32.23.697,Serial_Dependence_U,2023.2.3,Win32,144.9275362318917,,,,,,4184.939300000012,134,4,4184.939399999976,134,,,,4188.918300000012,4189.418899999976,4188.413,4188.918300000012,4185.947699999988,4188.412899999976,4189.419,4189.919399999976,4189.9195,4191.975600000023,1336,4191.975800000012,3,4191.975800000012,4,9,129,23,1,1.4,0.3,Time
,,730111,001,F,22,2025-06-01_19h32.23.697,Serial_Dependence_U,2023.2.3,Win32,144.9275362318917,,,,,,4191.976,287,4,4191.9761000000235,287,,,,4195.912699999988,4196.411,4195.404199999988,4195.912600000023,4192.973699999988,4195.404199999988,4196.411,4196.907,4196.907,4198.987300000012,1474,4198.987300000012,4,4198.987399999976,4,10,130,28,1,1.4,0.7,Time
,,730111,001,F,22,2025-06-01_19h32.23.697,Serial_Dependence_U,2023.2.3,Win32,144.9275362318917,,,,,,4198.987600000024,144,4,4198.987699999988,144,,,,4202.758100000024,4203.258100000024,4202.251199999988,4202.758,4199.987399999976,4202.251199999988,4203.258100000024,4203.7595,4203.7595,4205.557899999976,1157,4205.558,3,4205.558100000024,4,11,131,22,1,1.2,0.3,Time
,,730111,001,F,22,2025-06-01_19h32.23.697,Serial_Dependence_U,2023.2.3,Win32,144.9275362318917,,,,,,4205.558199999988,218,4,4205.5583000000115,218,,,,4208.905899999976,4209.403800000012,4208.396899999976,4208.905800000011,4206.563699999988,4208.396899999976,4209.403800000012,4209.906199999988,4209.906199999988,4211.6191000000235,986,4211.619199999988,4,4211.619300000012,4,12,132,5,1,0.8,0.7,Time
,,730111,001,F,22,2025-06-01_19h32.23.697,Serial_Dependence_U,2023.2.3,Win32,144.9275362318917,,,,,,4211.619399999976,157,4,4211.619399999976,157,,,,4215.1955,4215.695199999988,4214.6885,4215.195399999976,4212.626100000024,4214.6885,4215.695199999988,4216.1965,4216.1965,4217.764999999999,1012,4217.764999999999,3,4217.765100000023,4,13,133,1,1,1,0.3,Time
,,730111,001,F,22,2025-06-01_19h32.23.697,Serial_Dependence_U,2023.2.3,Win32,144.9275362318917,,,,,,4217.765399999976,168,4,4217.765399999976,168,,,,4221.702300000012,4222.203100000023,4221.197100000024,4221.702199999988,4218.764999999999,4221.197,4222.203100000023,4222.701999999999,4222.701999999999,4224.724999999999,1347,4224.724999999999,3,4224.725100000023,4,14,134,8,1,1.4,0.7,Time
,,730111,001,F,22,2025-06-01_19h32.23.697,Serial_Dependence_U,2023.2.3,Win32,144.9275362318917,,,,,,4224.725199999988,14,4,4224.725300000012,14,,,,4228.299399999976,4228.794399999976,4227.792399999976,4228.299399999976,4225.728199999988,4227.792399999976,4228.794399999976,4229.292399999976,4229.292399999976,4231.077100000023,1010,4231.077100000023,3,4231.077300000012,4,15,135,21,1,1,0.3,Time
,,730111,001,F,22,2025-06-01_19h32.23.697,Serial_Dependence_U,2023.2.3,Win32,144.9275362318917,,,,,,4231.077399999976,306,4,4231.077399999976,306,,,,4234.849699999988,4235.347899999976,4234.342699999987,4234.849699999988,4232.077399999976,4234.342699999987,4235.347899999976,4235.847899999976,4235.847899999976,4237.1825,1003,4237.182600000024,2,4237.182699999988,4,16,136,2,1,1.2,0.3,Time
,,730111,001,F,22,2025-06-01_19h32.23.697,Serial_Dependence_U,2023.2.3,Win32,144.9275362318917,,,,,,4237.182899999976,265,4,4237.182899999976,265,,,,4240.925899999976,4241.425499999999,4240.417199999988,4240.925800000012,4238.181699999988,4240.417100000023,4241.425499999999,4241.924,4241.924,4243.375600000024,1246,4243.375699999988,3,4243.375800000012,4,17,137,17,1,1.2,0.7,Time
,,730111,001,F,22,2025-06-01_19h32.23.697,Serial_Dependence_U,2023.2.3,Win32,144.9275362318917,,,,,,4243.375899999976,268,4,4243.376100000024,268,,,,4247.521399999976,4248.021100000024,4247.014300000012,4247.521300000011,4244.382600000024,4247.014199999988,4248.021199999987,4248.521,4248.521,4250.344300000012,1287,4250.344399999976,2,4250.344600000024,4,18,138,19,1,1.6,0.7,Time
,,730111,001,F,22,2025-06-01_19h32.23.697,Serial_Dependence_U,2023.2.3,Win32,144.9275362318917,,,,,,4250.3448999999755,76,4,4250.3448999999755,76,,,,4254.279100000023,4254.778100000023,4253.778199999988,4254.2789999999995,4251.340800000012,4253.778100000023,4254.778100000023,4255.277999999999,4255.277999999999,4257.1411000000235,1348,4257.1411000000235,3,4257.141199999988,4,19,139,18,1,1.4,0.7,Time
,,730111,001,F,22,2025-06-01_19h32.23.697,Serial_Dependence_U,2023.2.3,Win32,144.9275362318917,,,,,,4257.141399999976,303,4,4257.141399999976,303,,,,4261.284899999976,4261.785,4260.778100000023,4261.284899999976,4258.141,4260.777999999999,4261.785,4262.285100000024,4262.285100000024,4264.378199999988,1714,4264.378199999988,4,4264.378399999976,4,20,140,9,1,1.6,0.7,Time
,,730111,001,F,22,2025-06-01_19h32.23.697,Serial_Dependence_U,2023.2.3,Win32,144.9275362318917,,,,,,4264.3785,340,4,4264.378600000024,340,,,,4268.354399999976,4268.850600000023,4267.847300000011,4268.354199999988,4265.3821000000235,4267.847300000011,4268.850600000023,4269.347199999987,4269.347300000011,4271.166699999988,1468,4271.166699999988,3,4271.166800000012,4,21,141,3,1,1.4,0.3,Time
,,730111,001,F,22,2025-06-01_19h32.23.697,Serial_Dependence_U,2023.2.3,Win32,144.9275362318917,,,,,,4271.166899999976,127,4,4271.1669999999995,127,,,,4274.905100000024,4275.4028999999755,4274.402999999999,4274.905,4272.166800000012,4274.4028999999755,4275.4028999999755,4275.902600000024,4275.902699999988,4277.590199999988,1340,4277.590300000012,4,4277.5903999999755,4,22,142,27,1,1.2,0.7,Time
,,730111,001,F,22,2025-06-01_19h32.23.697,Serial_Dependence_U,2023.2.3,Win32,144.9275362318917,,,,,,4277.590499999999,11,4,4277.590600000023,11,,,,4280.934100000024,4281.432899999976,4280.423600000024,4280.934,4278.591899999976,4280.423600000024,4281.433,4281.930199999988,4281.930199999988,4283.603600000024,1104,4283.603600000024,5,4283.603800000012,4,23,143,15,1,0.8,0.7,Time
,,730111,001,F,22,2025-06-01_19h32.23.697,Serial_Dependence_U,2023.2.3,Win32,144.9275362318917,,,,,,4283.603999999999,144,4,4283.604100000023,144,,,,4287.736100000024,4288.24,4287.235899999976,4287.736100000024,4284.604100000023,4287.235800000011,4288.24,4288.735800000011,4288.735800000011,4290.562100000024,1235,4290.562100000024,2,4290.562300000011,4,24,144,29,1,1.6,0.7,Time
,,730111,001,F,22,2025-06-01_19h32.23.697,Serial_Dependence_U,2023.2.3,Win32,144.9275362318917,,,,,,4290.562399999976,96,4,4290.562399999976,96,,,,4294.730399999976,4295.230199999988,4294.2233000000115,4294.730300000012,4291.562399999976,4294.2233000000115,4295.230199999988,4295.730100000023,4295.730100000023,4298.117499999999,1771,4298.117600000023,4,4298.117699999988,4,25,145,14,1,1.6,0.3,Time
,,730111,001,F,22,2025-06-01_19h32.23.697,Serial_Dependence_U,2023.2.3,Win32,144.9275362318917,,,,,,4298.117899999976,17,4,4298.117899999976,17,,,,4302.299800000012,4302.800499999999,4301.792600000023,4302.299699999988,4299.124600000024,4301.792600000023,4302.800499999999,4303.3003999999755,4303.3003999999755,4305.133300000011,1354,4305.133399999976,2,4305.1335,4,26,146,4,1,1.6,0.3,Time
,,730111,001,F,22,2025-06-01_19h32.23.697,Serial_Dependence_U,2023.2.3,Win32,144.9275362318917,,,,,,4305.133699999988,208,4,4305.133800000011,208,,,,4308.5064999999995,4309.012600000024,4307.9995,4308.5064999999995,4306.138300000011,4307.9995,4309.012600000024,4309.513300000011,4309.513300000011,4311.582800000012,1334,4311.582800000012,5,4311.583,4,27,147,10,1,0.8,0.3,Time
,,730111,001,F,22,2025-06-01_19h32.23.697,Serial_Dependence_U,2023.2.3,Win32,144.9275362318917,,,,,,4311.5831000000235,162,4,4311.5831000000235,162,,,,4315.117699999988,4315.621300000012,4314.6173999999755,4315.117699999988,4312.584699999988,4314.617300000012,4315.621300000012,4316.117199999988,4316.117199999988,4317.6866999999875,1041,4317.6866999999875,3,4317.686800000011,4,28,148,16,1,1,0.7,Time
,,730111,001,F,22,2025-06-01_19h32.23.697,Serial_Dependence_U,2023.2.3,Win32,144.9275362318917,,,,,,4317.686899999976,228,4,4317.687,228,,,,4321.451899999976,4321.950399999976,4320.950699999988,4321.451800000012,4318.686899999976,4320.950600000024,4321.950399999976,4322.450699999988,4322.450699999988,4324.0755,1159,4324.0755,3,4324.075699999988,4,29,149,12,1,1.2,0.3,Time
,,730111,001,F,22,2025-06-01_19h32.23.697,Serial_Dependence_U,2023.2.3,Win32,144.9275362318917,,,,,,4324.075800000011,2,5,4327.346300000012,2,s,3.2568999999766675,,4331.492600000023,4331.993699999988,4330.986399999976,4331.492499999999,4328.353300000012,4330.986399999976,4331.993699999988,4332.493300000012,4332.493300000012,4334.894699999988,1754,4334.894699999988,4,4334.894699999988,5,0,150,9,1,1.6,0.7,Time
,,730111,001,F,22,2025-06-01_19h32.23.697,Serial_Dependence_U,2023.2.3,Win32,144.9275362318917,,,,,,4334.894899999976,223,5,4334.8956000000235,223,,,,4339.061300000012,4339.561199999988,4338.5571999999875,4339.061300000012,4335.8949999999995,4338.5571999999875,4339.561199999988,4340.061199999988,4340.061199999988,4342.380699999988,1691,4342.380800000012,4,4342.380899999976,5,1,151,4,1,1.6,0.3,Time
,,730111,001,F,22,2025-06-01_19h32.23.697,Serial_Dependence_U,2023.2.3,Win32,144.9275362318917,,,,,,4342.380999999999,228,5,4342.381100000023,228,,,,4345.9501999999875,4346.449899999976,4345.443399999976,4345.9501999999875,4343.382199999988,4345.443300000012,4346.45,4346.951399999976,4346.9515,4348.7905,1335,4348.7905,5,4348.790699999988,5,2,152,21,1,1,0.3,Time
,,730111,001,F,22,2025-06-01_19h32.23.697,Serial_Dependence_U,2023.2.3,Win32,144.9275362318917,,,,,,4348.790699999988,103,5,4348.790800000012,103,,,,4352.139199999988,4352.637600000024,4351.630800000012,4352.139199999988,4349.797300000012,4351.630800000012,4352.637600000024,4353.1375,4353.1375,4354.297199999988,987,4354.297199999988,4,4354.297399999976,5,3,153,25,1,0.8,0.7,Time
,,730111,001,F,22,2025-06-01_19h32.23.697,Serial_Dependence_U,2023.2.3,Win32,144.9275362318917,,,,,,4354.2975,346,5,4354.2975,346,,,,4358.068,4358.5696000000235,4357.561199999988,4358.068,4355.297300000012,4357.561199999988,4358.5696000000235,4359.067800000012,4359.067899999976,4361.165100000024,1468,4361.165100000024,4,4361.165199999988,5,4,154,22,1,1.2,0.3,Time
,,730111,001,F,22,2025-06-01_19h32.23.697,Serial_Dependence_U,2023.2.3,Win32,144.9275362318917,,,,,,4361.165399999976,68,5,4361.1655,68,,,,4365.109600000023,4365.609600000023,4364.6028000000115,4365.1095,4362.172,4364.6028000000115,4365.609699999988,4366.109300000012,4366.109300000012,4368.0644999999995,1727,4368.0644999999995,4,4368.064600000023,5,5,155,18,1,1.4,0.7,Time
,,730111,001,F,22,2025-06-01_19h32.23.697,Serial_Dependence_U,2023.2.3,Win32,144.9275362318917,,,,,,4368.064800000012,91,5,4368.064800000012,91,,,,4372.248399999976,4372.748100000023,4371.743199999988,4372.248199999988,4369.074899999976,4371.743199999988,4372.748199999988,4373.248100000023,4373.248100000023,4375.359199999988,1760,4375.359199999988,4,4375.359399999976,5,6,156,14,1,1.6,0.3,Time
,,730111,001,F,22,2025-06-01_19h32.23.697,Serial_Dependence_U,2023.2.3,Win32,144.9275362318917,,,,,,4375.359600000023,225,5,4375.359699999988,225,,,,4379.298399999976,4379.796699999988,4378.79,4379.298399999976,4376.359699999988,4378.789899999976,4379.796699999988,4380.296699999988,4380.296699999988,4382.387199999988,1565,4382.387300000011,4,4382.387399999976,5,7,157,28,1,1.4,0.7,Time
,,730111,001,F,22,2025-06-01_19h32.23.697,Serial_Dependence_U,2023.2.3,Win32,144.9275362318917,,,,,,4382.3875,317,5,4382.387600000024,317,,,,4385.935600000023,4386.435399999976,4385.4288000000115,4385.9355,4383.393999999999,4385.428699999988,4386.435399999976,4386.9355,4386.9355,4388.622899999976,1104,4388.622899999976,4,4388.623,5,8,158,16,1,1,0.7,Time
,,730111,001,F,22,2025-06-01_19h32.23.697,Serial_Dependence_U,2023.2.3,Win32,144.9275362318917,,,,,,4388.623199999988,119,5,4388.623199999988,119,,,,4391.998300000012,4392.497899999976,4391.491100000024,4391.998199999988,4389.630199999988,4391.490899999976,4392.497899999976,4392.993199999988,4392.993199999988,4394.944399999976,1110,4394.9445,5,4394.9445,5,9,159,0,1,0.8,0.3,Time
,,730111,001,F,22,2025-06-01_19h32.23.697,Serial_Dependence_U,2023.2.3,Win32,144.9275362318917,,,,,,4394.9446000000235,58,5,4394.944699999988,58,,,,4399.081300000012,4399.582600000023,4398.574399999976,4399.081300000012,4395.944100000023,4398.574399999976,4399.582600000023,4400.081199999988,4400.081199999988,4402.4423000000115,1812,4402.442399999976,4,4402.442399999976,5,10,160,19,1,1.6,0.7,Time
,,730111,001,F,22,2025-06-01_19h32.23.697,Serial_Dependence_U,2023.2.3,Win32,144.9275362318917,,,,,,4402.442600000024,185,5,4402.442600000024,185,,,,4406.414600000024,4406.914300000011,4405.909199999988,4406.414600000024,4403.442199999988,4405.909199999988,4406.914300000011,4407.418199999988,4407.418199999988,4409.9005,1830,4409.9005,5,4409.900600000024,5,11,161,3,1,1.4,0.3,Time
,,730111,001,F,22,2025-06-01_19h32.23.697,Serial_Dependence_U,2023.2.3,Win32,144.9275362318917,,,,,,4409.900800000011,139,5,4409.900800000011,139,,,,4413.6505,4414.1501000000235,4413.144199999988,4413.6505,4410.9073999999755,4413.143999999999,4414.150199999988,4414.6501000000235,4414.650199999988,4416.865699999988,1723,4416.865699999988,5,4416.865899999976,5,12,162,17,1,1.2,0.7,Time
,,730111,001,F,22,2025-06-01_19h32.23.697,Serial_Dependence_U,2023.2.3,Win32,144.9275362318917,,,,,,4416.866,200,5,4416.866100000024,200,,,,4420.837800000012,4421.341100000023,4420.330899999976,4420.837800000012,4417.865800000011,4420.330800000012,4421.341100000023,4421.836600000023,4421.836699999988,4424.263300000011,1743,4424.263300000011,4,4424.263399999976,5,13,163,13,1,1.4,0.3,Time
,,730111,001,F,22,2025-06-01_19h32.23.697,Serial_Dependence_U,2023.2.3,Win32,144.9275362318917,,,,,,4424.2635,278,5,4424.2635,278,,,,4428.435100000023,4428.934800000012,4427.928,4428.4349999999995,4425.264,4427.927899999976,4428.934800000012,4429.434699999988,4429.434699999988,4431.823800000012,1799,4431.823800000012,4,4431.823899999976,5,14,164,24,1,1.6,0.3,Time
,,730111,001,F,22,2025-06-01_19h32.23.697,Serial_Dependence_U,2023.2.3,Win32,144.9275362318917,,,,,,4431.824,197,5,4431.824,197,,,,4435.768,4436.268,4435.261300000012,4435.767899999976,4432.830699999988,4435.261199999988,4436.268,4436.767800000011,4436.767800000011,4439.149899999976,1897,4439.149899999976,5,4439.15,5,15,165,8,1,1.4,0.7,Time
,,730111,001,F,22,2025-06-01_19h32.23.697,Serial_Dependence_U,2023.2.3,Win32,144.9275362318917,,,,,,4439.1501000000235,143,5,4439.150199999988,143,,,,4442.497100000023,4442.997100000023,4441.990300000011,4442.496999999999,4440.158300000012,4441.990199999987,4442.997100000023,4443.4968999999755,4443.4968999999755,4445.367899999976,1197,4445.367899999976,5,4445.368100000023,5,16,166,15,1,0.8,0.7,Time
,,730111,001,F,22,2025-06-01_19h32.23.697,Serial_Dependence_U,2023.2.3,Win32,144.9275362318917,,,,,,4445.368199999988,320,5,4445.368300000012,320,,,,4449.136100000023,4449.635600000023,4448.629100000024,4449.135899999976,4446.365199999987,4448.629,4449.635600000023,4450.135800000012,4450.135800000012,4452.248399999976,1641,4452.248399999976,5,4452.2485,5,17,167,2,1,1.2,0.3,Time
,,730111,001,F,22,2025-06-01_19h32.23.697,Serial_Dependence_U,2023.2.3,Win32,144.9275362318917,,,,,,4452.2486000000235,111,5,4452.2486000000235,111,,,,4455.983300000012,4456.478300000012,4455.478800000012,4455.983300000012,4453.246999999999,4455.478699999988,4456.478300000012,4456.975800000012,4456.975800000012,4459.059199999988,1467,4459.059300000012,4,4459.059300000012,5,18,168,27,1,1.2,0.7,Time
,,730111,001,F,22,2025-06-01_19h32.23.697,Serial_Dependence_U,2023.2.3,Win32,144.9275362318917,,,,,,4459.059499999999,341,5,4459.059499999999,341,,,,4463.212100000023,4463.711899999976,4462.705800000012,4463.2119999999995,4460.0665,4462.705800000012,4463.711899999976,4464.211899999976,4464.211899999976,4466.357600000024,1375,4466.357600000024,2,4466.357699999988,5,19,169,29,1,1.6,0.7,Time
,,730111,001,F,22,2025-06-01_19h32.23.697,Serial_Dependence_U,2023.2.3,Win32,144.9275362318917,,,,,,4466.357899999976,176,5,4466.357899999976,176,,,,4470.107699999988,4470.607600000024,4469.600899999976,4470.107600000024,4467.367600000023,4469.600800000012,4470.607600000024,4471.107600000024,4471.107600000024,4473.094,1499,4473.094,4,4473.094100000024,5,20,170,7,1,1.2,0.7,Time
,,730111,001,F,22,2025-06-01_19h32.23.697,Serial_Dependence_U,2023.2.3,Win32,144.9275362318917,,,,,,4473.094300000012,14,5,4473.094399999976,14,,,,4476.468899999976,4476.968399999976,4475.966899999976,4476.4688000000115,4474.100899999976,4475.966800000012,4476.9685,4477.468600000024,4477.468600000024,4479.649100000023,1350,4479.649100000023,5,4479.649300000012,5,21,171,20,1,0.8,0.3,Time
,,730111,001,F,22,2025-06-01_19h32.23.697,Serial_Dependence_U,2023.2.3,Win32,144.9275362318917,,,,,,4479.649399999976,200,5,4479.6494999999995,200,,,,4483.192699999988,4483.690699999988,4482.686,4483.192600000024,4480.649399999976,4482.685899999976,4483.690699999988,4484.190899999976,4484.191,4486.871300000012,1822,4486.871300000012,5,4486.8715,5,22,172,26,1,1,0.7,Time
,,730111,001,F,22,2025-06-01_19h32.23.697,Serial_Dependence_U,2023.2.3,Win32,144.9275362318917,,,,,,4486.8715,290,5,4486.871699999988,290,,,,4490.413300000012,4490.912699999988,4489.906199999988,4490.413300000012,4487.871399999976,4489.906100000024,4490.912800000012,4491.4091000000235,4491.4091000000235,4493.669899999976,1454,4493.669899999976,5,4493.67,5,23,173,6,1,1,0.7,Time
,,730111,001,F,22,2025-06-01_19h32.23.697,Serial_Dependence_U,2023.2.3,Win32,144.9275362318917,,,,,,4493.670300000012,1,5,4493.670399999976,1,,,,4497.447699999988,4497.948899999976,4496.940699999988,4497.447600000023,4494.673800000011,4496.940699999988,4497.948899999976,4498.449,4498.449,4500.413800000012,1430,4500.413899999976,4,4500.414,5,24,174,12,1,1.2,0.3,Time
,,730111,001,F,22,2025-06-01_19h32.23.697,Serial_Dependence_U,2023.2.3,Win32,144.9275362318917,,,,,,4500.414100000024,143,5,4500.414100000024,143,,,,4503.989199999988,4504.489,4503.482100000024,4503.989100000023,4501.421300000012,4503.482100000024,4504.489,4504.988800000012,4504.988800000012,4506.711100000023,1208,4506.711100000023,4,4506.711199999988,5,25,175,1,1,1,0.3,Time
,,730111,001,F,22,2025-06-01_19h32.23.697,Serial_Dependence_U,2023.2.3,Win32,144.9275362318917,,,,,,4506.711399999976,183,5,4506.711399999976,183,,,,4510.086100000023,4510.586100000023,4509.580800000012,4510.086100000023,4507.7181999999875,4509.580699999988,4510.586100000023,4511.086199999988,4511.086199999988,4512.835999999999,1190,4512.835999999999,5,4512.836100000023,5,26,176,10,1,0.8,0.3,Time
,,730111,001,F,22,2025-06-01_19h32.23.697,Serial_Dependence_U,2023.2.3,Win32,144.9275362318917,,,,,,4512.836199999988,114,5,4512.836300000012,114,,,,4516.405600000024,4516.901300000011,4515.898800000012,4516.4055,4513.836100000023,4515.898600000023,4516.901300000011,4517.400800000011,4517.400899999976,4519.447199999988,1437,4519.447199999988,5,4519.447300000012,5,27,177,11,1,1,0.3,Time
,,730111,001,F,22,2025-06-01_19h32.23.697,Serial_Dependence_U,2023.2.3,Win32,144.9275362318917,,,,,,4519.447399999976,224,5,4519.4475,224,,,,4523.419300000011,4523.919100000024,4522.915,4523.4191999999875,4520.4491000000235,4522.914899999976,4523.9191999999875,4524.419100000024,4524.4191999999875,4526.6275,1618,4526.6275,4,4526.627600000023,5,28,178,23,1,1.4,0.3,Time
,,730111,001,F,22,2025-06-01_19h32.23.697,Serial_Dependence_U,2023.2.3,Win32,144.9275362318917,,,,,,4526.627699999988,297,5,4526.627800000012,297,,,,4529.974699999988,4530.474600000023,4529.467899999976,4529.974699999988,4527.634600000024,4529.467899999976,4530.474600000023,4530.974600000023,4530.974600000023,4533.6134999999995,1694,4533.6134999999995,5,4533.613699999988,5,29,179,5,1,0.8,0.7,Time
,,730111,001,F,22,2025-06-01_19h32.23.697,Serial_Dependence_U,2023.2.3,Win32,144.9275362318917,,,,,,4533.613899999976,35,6,4620.792699999988,35,s,87.16569999998774,,4624.973199999988,4625.473,4624.469199999988,4624.973199999988,4621.799600000024,4624.469100000024,4625.473,4625.973199999988,4625.973199999988,4627.861699999988,1416,4627.861699999988,2,4627.861899999976,6,0,180,14,1,1.6,0.3,Time
,,730111,001,F,22,2025-06-01_19h32.23.697,Serial_Dependence_U,2023.2.3,Win32,144.9275362318917,,,,,,4627.862,168,6,4627.8625,168,,,,4631.438399999976,4631.938300000012,4630.931699999988,4631.438399999976,4628.868899999976,4630.9315,4631.938399999976,4632.438399999976,4632.438399999976,4634.23,1090,4634.23,4,4634.230100000023,6,1,181,1,1,1,0.3,Time
,,730111,001,F,22,2025-06-01_19h32.23.697,Serial_Dependence_U,2023.2.3,Win32,144.9275362318917,,,,,,4634.230199999988,155,6,4634.230399999976,155,,,,4637.799399999976,4638.299199999988,4637.292300000012,4637.7993000000115,4635.230100000023,4637.292300000012,4638.299199999988,4638.796100000023,4638.796100000023,4640.806300000012,1265,4640.806300000012,4,4640.806399999976,6,2,182,11,1,1,0.3,Time
,,730111,001,F,22,2025-06-01_19h32.23.697,Serial_Dependence_U,2023.2.3,Win32,144.9275362318917,,,,,,4640.8065,81,6,4640.8066000000235,81,,,,4644.980100000023,4645.479800000012,4644.472899999976,4644.98,4641.806399999976,4644.472800000011,4645.479800000012,4645.979699999988,4645.979699999988,4648.4169999999995,1716,4648.4169999999995,4,4648.417100000023,6,3,183,24,1,1.6,0.3,Time
,,730111,001,F,22,2025-06-01_19h32.23.697,Serial_Dependence_U,2023.2.3,Win32,144.9275362318917,,,,,,4648.417300000012,49,6,4648.417399999976,49,,,,4651.792300000012,4652.2919999999995,4651.285300000011,4651.792300000012,4649.424199999988,4651.2851999999875,4652.2919999999995,4652.7919999999995,4652.7919999999995,4654.368399999976,1071,4654.368399999976,5,4654.3685,6,4,184,20,1,0.8,0.3,Time
,,730111,001,F,22,2025-06-01_19h32.23.697,Serial_Dependence_U,2023.2.3,Win32,144.9275362318917,,,,,,4654.368699999988,290,6,4654.368800000012,290,,,,4658.347899999976,4658.848600000024,4657.840699999988,4658.347899999976,4655.375699999988,4657.840699999988,4658.848600000024,4659.3475,4659.3475,4660.930699999988,1310,4660.930699999988,2,4660.930899999976,6,5,185,3,1,1.4,0.3,Time
,,730111,001,F,22,2025-06-01_19h32.23.697,Serial_Dependence_U,2023.2.3,Win32,144.9275362318917,,,,,,4660.931,24,6,4660.931100000023,24,,,,4665.072199999988,4665.5696000000235,4664.569800000012,4665.072199999988,4661.938,4664.569699999988,4665.5696000000235,4666.0696000000235,4666.0696000000235,4668.000199999988,1385,4668.000199999988,2,4668.0003000000115,6,6,186,9,1,1.6,0.7,Time
,,730111,001,F,22,2025-06-01_19h32.23.697,Serial_Dependence_U,2023.2.3,Win32,144.9275362318917,,,,,,4668.000399999976,142,6,4668.000399999976,142,,,,4672.146100000024,4672.645899999976,4671.639100000024,4672.146,4669.003800000011,4671.639100000024,4672.645899999976,4673.145800000012,4673.145800000012,4674.979199999988,1402,4674.979199999988,2,4674.979300000012,6,7,187,19,1,1.6,0.7,Time
,,730111,001,F,22,2025-06-01_19h32.23.697,Serial_Dependence_U,2023.2.3,Win32,144.9275362318917,,,,,,4674.9794999999995,258,6,4674.979600000023,258,,,,4679.118399999976,4679.618100000023,4678.611300000011,4679.118199999988,4675.979399999976,4678.611199999988,4679.618100000023,4680.1179999999995,4680.1179999999995,4682.2615,1504,4682.2616000000235,2,4682.261800000012,6,8,188,29,1,1.6,0.7,Time
,,730111,001,F,22,2025-06-01_19h32.23.697,Serial_Dependence_U,2023.2.3,Win32,144.9275362318917,,,,,,4682.261899999976,227,6,4682.262,227,,,,4686.208199999988,4686.7081000000235,4685.7013000000115,4686.208199999988,4683.270899999976,4685.7013000000115,4686.7081000000235,4687.208199999988,4687.208199999988,4689.347199999987,1474,4689.347199999987,4,4689.347300000011,6,9,189,18,1,1.4,0.7,Time
,,730111,001,F,22,2025-06-01_19h32.23.697,Serial_Dependence_U,2023.2.3,Win32,144.9275362318917,,,,,,4689.347399999976,107,6,4689.347399999976,107,,,,4693.291699999988,4693.791300000012,4692.784600000024,4693.291600000023,4690.354100000023,4692.7845,4693.7913999999755,4694.291499999999,4694.291499999999,4696.402399999976,1732,4696.4025,4,4696.4025,6,10,190,8,1,1.4,0.7,Time
,,730111,001,F,22,2025-06-01_19h32.23.697,Serial_Dependence_U,2023.2.3,Win32,144.9275362318917,,,,,,4696.402600000024,125,6,4696.402699999988,125,,,,4699.777699999988,4700.2775,4699.2706000000235,4699.777600000024,4697.409399999976,4699.2705,4700.2775,4700.777399999976,4700.777399999976,4703.200800000011,1775,4703.200899999976,5,4703.200899999976,6,11,191,10,1,0.8,0.3,Time
,,730111,001,F,22,2025-06-01_19h32.23.697,Serial_Dependence_U,2023.2.3,Win32,144.9275362318917,,,,,,4703.201100000024,104,6,4703.201100000024,104,,,,4706.742800000012,4707.242499999999,4706.235800000011,4706.742800000012,4704.201,4706.235699999987,4707.242499999999,4707.742600000023,4707.742600000023,4709.089699999988,1052,4709.089800000012,4,4709.089899999976,6,12,192,26,1,1,0.7,Time
,,730111,001,F,22,2025-06-01_19h32.23.697,Serial_Dependence_U,2023.2.3,Win32,144.9275362318917,,,,,,4709.09,357,6,4709.090100000024,357,,,,4712.860800000011,4713.3605,4712.353600000024,4712.860800000011,4710.089899999976,4712.353600000024,4713.3605,4713.8605,4713.860600000024,4715.874300000011,1529,4715.874399999976,4,4715.8745,6,13,193,12,1,1.2,0.3,Time
,,730111,001,F,22,2025-06-01_19h32.23.697,Serial_Dependence_U,2023.2.3,Win32,144.9275362318917,,,,,,4715.874699999988,93,6,4715.874800000011,93,,,,4719.8535,4720.354600000023,4719.346800000012,4719.853399999976,4716.881399999976,4719.346699999988,4720.354600000023,4720.853300000012,4720.853399999976,4722.728600000024,1437,4722.728699999988,3,4722.728800000012,6,14,194,23,1,1.4,0.3,Time
,,730111,001,F,22,2025-06-01_19h32.23.697,Serial_Dependence_U,2023.2.3,Win32,144.9275362318917,,,,,,4722.7288999999755,325,6,4722.728999999999,325,,,,4726.062199999988,4726.5616999999875,4725.561800000011,4726.062100000024,4723.7285,4725.561800000011,4726.5616999999875,4727.061600000024,4727.061600000024,4728.700600000024,1008,4728.700800000011,4,4728.700800000011,6,15,195,25,1,0.8,0.7,Time
,,730111,001,F,22,2025-06-01_19h32.23.697,Serial_Dependence_U,2023.2.3,Win32,144.9275362318917,,,,,,4728.701,105,6,4728.701100000024,105,,,,4732.450600000024,4732.950300000011,4731.943699999988,4732.450600000024,4729.707800000012,4731.943600000023,4732.950300000011,4733.450300000011,4733.450300000011,4735.026699999988,1162,4735.0268000000115,3,4735.026899999976,6,16,196,7,1,1.2,0.7,Time
,,730111,001,F,22,2025-06-01_19h32.23.697,Serial_Dependence_U,2023.2.3,Win32,144.9275362318917,,,,,,4735.027100000024,92,6,4735.027100000024,92,,,,4738.804699999988,4739.304800000012,4738.297800000012,4738.804699999988,4736.033800000012,4738.297800000012,4739.304800000012,4739.804600000024,4739.804600000024,4742.123800000012,1430,4742.123800000012,4,4742.124,6,17,197,22,1,1.2,0.3,Time
,,730111,001,F,22,2025-06-01_19h32.23.697,Serial_Dependence_U,2023.2.3,Win32,144.9275362318917,,,,,,4742.124100000024,169,6,4742.124100000024,169,,,,4745.867,4746.366899999976,4745.360199999988,4745.866899999976,4743.124100000024,4745.3601000000235,4746.366899999976,4746.866800000012,4746.866899999976,4748.644499999999,1401,4748.644499999999,4,4748.644600000023,6,18,198,27,1,1.2,0.7,Time
,,730111,001,F,22,2025-06-01_19h32.23.697,Serial_Dependence_U,2023.2.3,Win32,144.9275362318917,,,,,,4748.644800000012,257,6,4748.644800000012,257,,,,4751.992,4752.491699999988,4751.4851000000235,4751.992,4749.651699999988,4751.4851000000235,4752.491699999988,4752.992,4752.992,4754.387800000011,898,4754.387899999976,4,4754.387899999976,6,19,199,15,1,0.8,0.7,Time
,,730111,001,F,22,2025-06-01_19h32.23.697,Serial_Dependence_U,2023.2.3,Win32,144.9275362318917,,,,,,4754.388100000024,145,6,4754.388199999988,145,,,,4758.366899999976,4758.867199999988,4757.8601000000235,4758.366899999976,4755.394699999988,4757.8601000000235,4758.867199999988,4759.366600000024,4759.366600000024,4761.352699999988,1393,4761.352699999988,3,4761.3528000000115,6,20,200,13,1,1.4,0.3,Time
,,730111,001,F,22,2025-06-01_19h32.23.697,Serial_Dependence_U,2023.2.3,Win32,144.9275362318917,,,,,,4761.352899999976,297,6,4761.353,297,,,,4764.721100000023,4765.220699999988,4764.214199999988,4764.721,4762.3528000000115,4764.214100000024,4765.220699999988,4765.715899999976,4765.715899999976,4767.000800000012,982,4767.000899999976,4,4767.001,6,21,201,0,1,0.8,0.3,Time
,,730111,001,F,22,2025-06-01_19h32.23.697,Serial_Dependence_U,2023.2.3,Win32,144.9275362318917,,,,,,4767.001199999988,106,6,4767.001199999988,106,,,,4770.750399999976,4771.248399999976,4770.243399999976,4770.750399999976,4768.005699999988,4770.243300000012,4771.248399999976,4771.743899999976,4771.744,4773.407899999976,1147,4773.407999999999,3,4773.408100000023,6,22,202,17,1,1.2,0.7,Time
,,730111,001,F,22,2025-06-01_19h32.23.697,Serial_Dependence_U,2023.2.3,Win32,144.9275362318917,,,,,,4773.408300000012,109,6,4773.408300000012,109,,,,4776.9446000000235,4777.442600000024,4776.443699999988,4776.9446000000235,4774.41,4776.443600000023,4777.442600000024,4777.935699999988,4777.935800000012,4779.409699999987,888,4779.409699999987,2,4779.409800000011,6,23,203,6,1,1,0.7,Time
,,730111,001,F,22,2025-06-01_19h32.23.697,Serial_Dependence_U,2023.2.3,Win32,144.9275362318917,,,,,,4779.409899999976,175,6,4779.41,175,,,,4782.956800000012,4783.456600000023,4782.449899999976,4782.956699999988,4780.415399999976,4782.449899999976,4783.456600000023,4783.956499999999,4783.956499999999,4785.7503000000115,1069,4785.7503000000115,4,4785.750399999976,6,24,204,16,1,1,0.7,Time
,,730111,001,F,22,2025-06-01_19h32.23.697,Serial_Dependence_U,2023.2.3,Win32,144.9275362318917,,,,,,4785.750600000024,149,6,4785.750699999988,149,,,,4789.533199999988,4790.028199999988,4789.0278999999755,4789.533100000023,4786.755100000024,4789.0278999999755,4790.028199999988,4790.527300000012,4790.527300000012,4793.784899999976,1342,4793.784899999976,4,4793.785,6,25,205,2,1,1.2,0.3,Time
,,730111,001,F,22,2025-06-01_19h32.23.697,Serial_Dependence_U,2023.2.3,Win32,144.9275362318917,,,,,,4793.785100000024,246,6,4793.7851999999875,246,,,,4797.956600000023,4798.457899999976,4797.4513000000115,4797.956499999999,4794.7896999999875,4797.451199999988,4798.457899999976,4798.958,4798.9581000000235,4801.067399999976,1197,4801.067399999976,2,4801.067600000024,6,26,206,4,1,1.6,0.3,Time
,,730111,001,F,22,2025-06-01_19h32.23.697,Serial_Dependence_U,2023.2.3,Win32,144.9275362318917,,,,,,4801.067699999988,315,6,4801.067800000012,315,,,,4805.018800000012,4805.518600000024,4804.511699999988,4805.018800000012,4802.077199999988,4804.511699999988,4805.518600000024,4806.018699999988,4806.018800000012,4808.977,1267,4808.977,2,4808.977300000011,6,27,207,28,1,1.4,0.7,Time
,,730111,001,F,22,2025-06-01_19h32.23.697,Serial_Dependence_U,2023.2.3,Win32,144.9275362318917,,,,,,4808.977399999976,350,6,4808.9775,350,,,,4812.553600000024,4813.0535,4812.046300000012,4812.553600000024,4809.983899999976,4812.046199999988,4813.0535,4813.554800000012,4813.554800000012,4815.324,1085,4815.324,4,4815.324199999988,6,28,208,21,1,1,0.3,Time
,,730111,001,F,22,2025-06-01_19h32.23.697,Serial_Dependence_U,2023.2.3,Win32,144.9275362318917,,,,,,4815.324300000012,291,6,4815.324300000012,291,,,,4818.664600000024,4819.164300000011,4818.157499999999,4818.6645,4816.324199999988,4818.1573999999755,4819.164300000011,4819.660100000024,4819.660100000024,4822.004600000024,1395,4822.004699999988,5,4822.0048000000115,6,29,209,5,1,0.8,0.7,Time
,,730111,001,F,22,2025-06-01_19h32.23.697,Serial_Dependence_U,2023.2.3,Win32,144.9275362318917,,,,,,4822.004899999976,293,7,4843.594399999976,293,s,21.581999999999425,,4846.9626000000235,4847.463399999976,4846.455600000024,4846.9625,4844.594600000024,4846.455600000024,4847.463399999976,4847.962300000012,4847.962300000012,4849.4923999999755,882,4849.492499999999,4,4849.492499999999,7,0,210,0,1,0.8,0.3,Time
,,730111,001,F,22,2025-06-01_19h32.23.697,Serial_Dependence_U,2023.2.3,Win32,144.9275362318917,,,,,,4849.492699999988,254,7,4849.493199999988,254,,,,4853.4349999999995,4853.934600000023,4852.927699999987,4853.434899999976,4850.497199999988,4852.927699999987,4853.934600000023,4854.434499999999,4854.434499999999,4856.256100000023,1607,4856.256100000023,4,4856.256199999988,7,1,211,18,1,1.4,0.7,Time
,,730111,001,F,22,2025-06-01_19h32.23.697,Serial_Dependence_U,2023.2.3,Win32,144.9275362318917,,,,,,4856.256300000012,151,7,4856.256399999976,151,,,,4860.205300000011,4860.705100000024,4859.698600000023,4860.205199999988,4857.262600000024,4859.698399999976,4860.705100000024,4861.206499999999,4861.206499999999,4861.393,49,4861.393,1,4861.393,7,2,212,8,1,1.4,0.7,Time
,,730111,001,F,22,2025-06-01_19h32.23.697,Serial_Dependence_U,2023.2.3,Win32,144.9275362318917,,,,,,4861.393199999988,144,7,4861.393199999988,144,,,,4865.5661999999875,4866.066100000024,4865.060100000023,4865.5661999999875,4862.392800000011,4865.059899999976,4866.066100000024,4866.568100000024,4866.568100000024,4869.191100000024,1976,4869.191100000024,4,4869.191300000011,7,3,213,14,1,1.6,0.3,Time
,,730111,001,F,22,2025-06-01_19h32.23.697,Serial_Dependence_U,2023.2.3,Win32,144.9275362318917,,,,,,4869.191399999976,129,7,4869.1915,129,,,,4872.733,4873.237699999988,4872.2261000000235,4872.732899999976,4870.195100000024,4872.226,4873.237699999988,4873.736600000024,4873.736600000024,4875.4986000000235,1506,4875.4986000000235,5,4875.498699999988,7,4,214,16,1,1,0.7,Time
,,730111,001,F,22,2025-06-01_19h32.23.697,Serial_Dependence_U,2023.2.3,Win32,144.9275362318917,,,,,,4875.498899999976,101,7,4875.498899999976,101,,,,4878.843899999976,4879.343600000024,4878.336899999976,4878.8438000000115,4876.5036999999875,4878.336899999976,4879.343699999988,4879.843699999988,4879.8438000000115,4882.152999999999,1719,4882.152999999999,5,4882.152999999999,7,5,215,5,1,0.8,0.7,Time
,,730111,001,F,22,2025-06-01_19h32.23.697,Serial_Dependence_U,2023.2.3,Win32,144.9275362318917,,,,,,4882.153199999988,186,7,4882.153300000012,186,,,,4885.9001000000235,4886.399300000012,4885.394199999988,4885.9,4883.1565,4885.394199999988,4886.399300000012,4886.899300000012,4886.899300000012,4888.940899999976,1543,4888.941,4,4888.9411999999875,7,6,216,17,1,1.2,0.7,Time
,,730111,001,F,22,2025-06-01_19h32.23.697,Serial_Dependence_U,2023.2.3,Win32,144.9275362318917,,,,,,4888.941600000024,96,7,4888.941699999988,96,,,,4892.690800000012,4893.190699999988,4892.184100000024,4892.690800000012,4889.947999999999,4892.184100000024,4893.190699999988,4893.690600000024,4893.690600000024,4895.468399999976,1275,4895.4685,4,4895.468600000024,7,7,217,7,1,1.2,0.7,Time
,,730111,001,F,22,2025-06-01_19h32.23.697,Serial_Dependence_U,2023.2.3,Win32,144.9275362318917,,,,,,4895.4688000000115,77,7,4895.4688000000115,77,,,,4899.649199999988,4900.148899999976,4899.142300000011,4899.649199999988,4896.475800000012,4899.1421999999875,4900.148899999976,4900.649899999976,4900.649899999976,4902.9355,1638,4902.9355,3,4902.935600000023,7,8,218,24,1,1.6,0.3,Time
,,730111,001,F,22,2025-06-01_19h32.23.697,Serial_Dependence_U,2023.2.3,Win32,144.9275362318917,,,,,,4902.935800000012,306,7,4902.935800000012,306,,,,4906.906,4907.405899999976,4906.398999999999,4906.906,4903.935300000012,4906.398899999976,4907.405899999976,4907.9056999999875,4907.905800000011,4909.968300000011,1440,4909.968399999976,3,4909.9685,7,9,219,13,1,1.4,0.3,Time
,,730111,001,F,22,2025-06-01_19h32.23.697,Serial_Dependence_U,2023.2.3,Win32,144.9275362318917,,,,,,4909.968600000024,17,7,4909.968600000024,17,,,,4913.537699999988,4914.037600000023,4913.032499999999,4913.537699999988,4910.9685,4913.0323999999755,4914.037699999988,4914.537800000012,4914.537899999976,4916.475199999988,1515,4916.475199999988,5,4916.475300000012,7,10,220,1,1,1,0.3,Time
,,730111,001,F,22,2025-06-01_19h32.23.697,Serial_Dependence_U,2023.2.3,Win32,144.9275362318917,,,,,,4916.4755,190,7,4916.4755,190,,,,4920.452100000023,4920.947300000012,4919.9405,4920.451999999999,4917.475399999976,4919.940399999976,4920.947300000012,4921.447199999988,4921.447300000012,4923.650600000024,1703,4923.650699999987,4,4923.650899999976,7,11,221,3,1,1.4,0.3,Time
,,730111,001,F,22,2025-06-01_19h32.23.697,Serial_Dependence_U,2023.2.3,Win32,144.9275362318917,,,,,,4923.6511999999875,183,7,4923.651300000011,183,,,,4927.622399999976,4928.120899999976,4927.121,4927.622199999988,4924.655800000011,4927.120899999976,4928.120899999976,4928.6163000000115,4928.6163000000115,4930.962899999976,1646,4930.963,4,4930.963,7,12,222,23,1,1.4,0.3,Time
,,730111,001,F,22,2025-06-01_19h32.23.697,Serial_Dependence_U,2023.2.3,Win32,144.9275362318917,,,,,,4930.963199999987,210,7,4930.963199999987,210,,,,4935.099999999999,4935.592699999987,4934.593100000024,4935.099899999976,4931.961300000012,4934.593,4935.592800000011,4936.092800000011,4936.092899999976,4938.490899999976,1805,4938.491,4,4938.491,7,13,223,29,1,1.6,0.7,Time
,,730111,001,F,22,2025-06-01_19h32.23.697,Serial_Dependence_U,2023.2.3,Win32,144.9275362318917,,,,,,4938.491199999988,256,7,4938.491199999988,256,,,,4942.634600000024,4943.1343000000115,4942.1275,4942.634600000024,4939.490899999976,4942.127399999976,4943.1343000000115,4943.634399999976,4943.634399999976,4946.578699999988,2225,4946.578800000012,5,4946.578800000012,7,14,224,9,1,1.6,0.7,Time
,,730111,001,F,22,2025-06-01_19h32.23.697,Serial_Dependence_U,2023.2.3,Win32,144.9275362318917,,,,,,4946.579,309,7,4946.579,309,,,,4950.349499999999,4950.849499999999,4949.842800000011,4950.349499999999,4947.578899999976,4949.842800000011,4950.849600000023,4951.3493999999755,4951.3493999999755,4953.231600000024,1534,4953.231600000024,4,4953.231800000011,7,15,225,2,1,1.2,0.3,Time
,,730111,001,F,22,2025-06-01_19h32.23.697,Serial_Dependence_U,2023.2.3,Win32,144.9275362318917,,,,,,4953.231899999976,302,7,4953.232,302,,,,4956.981600000024,4957.481300000011,4956.4765,4956.981399999976,4954.2384999999995,4956.4765,4957.481300000011,4957.981199999987,4957.981199999987,4960.122199999988,1574,4960.122199999988,5,4960.122300000012,7,16,226,27,1,1.2,0.7,Time
,,730111,001,F,22,2025-06-01_19h32.23.697,Serial_Dependence_U,2023.2.3,Win32,144.9275362318917,,,,,,4960.122399999976,41,7,4960.1224999999995,41,,,,4963.668899999976,4964.168800000011,4963.1618999999755,4963.668800000011,4961.127199999988,4963.161800000012,4964.168800000011,4964.668699999987,4964.668699999987,4966.523,1538,4966.523,5,4966.523100000024,7,17,227,26,1,1,0.7,Time
,,730111,001,F,22,2025-06-01_19h32.23.697,Serial_Dependence_U,2023.2.3,Win32,144.9275362318917,,,,,,4966.523300000012,32,7,4966.523300000012,32,,,,4970.668800000011,4971.168800000011,4970.166,4970.668699999987,4967.530199999987,4970.165899999976,4971.168800000011,4971.6685,4971.6685,4973.828199999988,1566,4973.828199999988,3,4973.828399999976,7,18,228,19,1,1.6,0.7,Time
,,730111,001,F,22,2025-06-01_19h32.23.697,Serial_Dependence_U,2023.2.3,Win32,144.9275362318917,,,,,,4973.8285,278,7,4973.8285,278,,,,4977.175699999988,4977.675300000012,4976.668800000011,4977.175699999988,4974.8375,4976.668600000024,4977.6753999999755,4978.175600000023,4978.175600000023,4980.1475,1348,4980.1475,5,4980.147699999988,7,19,229,15,1,0.8,0.7,Time
,,730111,001,F,22,2025-06-01_19h32.23.697,Serial_Dependence_U,2023.2.3,Win32,144.9275362318917,,,,,,4980.147800000012,64,7,4980.147899999976,64,,,,4983.691800000011,4984.189100000023,4983.189300000012,4983.691800000011,4981.154800000012,4983.189300000012,4984.189100000023,4984.6821999999875,4984.6821999999875,4986.432300000011,1357,4986.432300000011,5,4986.432399999976,7,20,230,6,1,1,0.7,Time
,,730111,001,F,22,2025-06-01_19h32.23.697,Serial_Dependence_U,2023.2.3,Win32,144.9275362318917,,,,,,4986.4325,35,7,4986.4325,35,,,,4989.8075,4990.307100000024,4989.303,4989.807399999976,4987.439199999988,4989.302899999976,4990.307100000024,4990.8071999999875,4990.8071999999875,4992.751699999988,1433,4992.751699999988,5,4992.751899999976,7,21,231,20,1,0.8,0.3,Time
,,730111,001,F,22,2025-06-01_19h32.23.697,Serial_Dependence_U,2023.2.3,Win32,144.9275362318917,,,,,,4992.752100000023,118,7,4992.752100000023,118,,,,4996.3296999999875,4996.827899999976,4995.822999999999,4996.3296999999875,4993.7564999999995,4995.822800000012,4996.827899999976,4997.327800000012,4997.327800000012,4999.702800000012,1653,4999.702899999976,5,4999.7029999999995,7,22,232,11,1,1,0.3,Time
,,730111,001,F,22,2025-06-01_19h32.23.697,Serial_Dependence_U,2023.2.3,Win32,144.9275362318917,,,,,,4999.703199999988,41,7,4999.703199999988,41,,,,5003.473899999976,5003.9735,5002.966899999976,5003.473800000012,5000.704600000024,5002.966800000012,5003.9735,5004.473600000024,5004.473600000024,5006.820899999976,1874,5006.820899999976,5,5006.821100000024,7,23,233,12,1,1.2,0.3,Time
,,730111,001,F,22,2025-06-01_19h32.23.697,Serial_Dependence_U,2023.2.3,Win32,144.9275362318917,,,,,,5006.821199999988,247,7,5006.821300000011,247,,,,5010.1681000000235,5010.668,5009.661199999988,5010.1681000000235,5007.827800000012,5009.661100000024,5010.668,5011.169399999976,5011.169399999976,5013.5848000000115,1547,5013.584899999976,5,5013.585100000024,7,24,234,25,1,0.8,0.7,Time
,,730111,001,F,22,2025-06-01_19h32.23.697,Serial_Dependence_U,2023.2.3,Win32,144.9275362318917,,,,,,5013.585199999988,90,7,5013.585300000012,90,,,,5017.5289999999995,5018.0305,5017.022100000024,5017.5289999999995,5014.591699999988,5017.022,5018.0305,5018.528899999976,5018.5289999999995,5020.294399999976,1363,5020.294399999976,3,5020.2945,7,25,235,28,1,1.4,0.7,Time
,,730111,001,F,22,2025-06-01_19h32.23.697,Serial_Dependence_U,2023.2.3,Win32,144.9275362318917,,,,,,5020.294600000024,194,7,5020.294699999988,194,,,,5024.468699999988,5024.966399999976,5023.966800000012,5024.468699999988,5021.299899999976,5023.966699999988,5024.966399999976,5025.466300000012,5025.466300000012,5027.8155,1747,5027.815600000024,4,5027.815699999988,7,26,236,4,1,1.6,0.3,Time
,,730111,001,F,22,2025-06-01_19h32.23.697,Serial_Dependence_U,2023.2.3,Win32,144.9275362318917,,,,,,5027.815899999976,30,7,5027.815899999976,30,,,,5031.391699999987,5031.891600000024,5030.884100000024,5031.391600000024,5028.821899999976,5030.884100000024,5031.891699999987,5032.391399999976,5032.391399999976,5034.633,1431,5034.633,5,5034.633100000024,7,27,237,21,1,1,0.3,Time
,,730111,001,F,22,2025-06-01_19h32.23.697,Serial_Dependence_U,2023.2.3,Win32,144.9275362318917,,,,,,5034.633300000011,258,7,5034.633399999976,258,,,,5038.000899999976,5038.500600000024,5037.494,5038.000800000012,5035.633,5037.494,5038.500699999988,5039.002600000023,5039.002600000023,5040.590999999999,1130,5040.590999999999,5,5040.591199999988,7,28,238,10,1,0.8,0.3,Time
,,730111,001,F,22,2025-06-01_19h32.23.697,Serial_Dependence_U,2023.2.3,Win32,144.9275362318917,,,,,,5040.591399999976,239,7,5040.591399999976,239,,,,5044.369,5044.8685,5043.862199999988,5044.368899999976,5041.598199999988,5043.862100000024,5044.868600000023,5045.368899999976,5045.368899999976,5047.334,1474,5047.334,4,5047.3341999999875,7,29,239,22,1,1.2,0.3,Time
,,730111,001,F,22,2025-06-01_19h32.23.697,Serial_Dependence_U,2023.2.3,Win32,144.9275362318917,,,,,,5047.334300000011,288,8,5050.419699999988,288,s,3.077100000023165,,5054.590899999976,5055.090699999988,5054.084300000011,5054.590899999976,5051.417399999976,5054.0841999999875,5055.090699999988,5055.590699999988,5055.590699999988,5058.007800000012,1745,5058.007899999976,4,5058.008,8,0,240,24,1,1.6,0.3,Time
,,730111,001,F,22,2025-06-01_19h32.23.697,Serial_Dependence_U,2023.2.3,Win32,144.9275362318917,,,,,,5058.008100000024,225,8,5058.008699999988,225,,,,5061.7858000000115,5062.2851999999875,5061.278300000012,5061.7855,5059.014499999999,5061.278300000012,5062.285300000011,5062.7851999999875,5062.7851999999875,5065.035100000024,1543,5065.035100000024,4,5065.0351999999875,8,1,241,2,1,1.2,0.3,Time
,,730111,001,F,22,2025-06-01_19h32.23.697,Serial_Dependence_U,2023.2.3,Win32,144.9275362318917,,,,,,5065.035399999976,257,8,5065.035399999976,257,,,,5068.813,5069.3128000000115,5068.305899999976,5068.813,5066.042300000012,5068.305800000012,5069.3128000000115,5069.812699999988,5069.812699999988,5071.743100000023,1561,5071.743199999988,5,5071.743300000012,8,2,242,12,1,1.2,0.3,Time
,,730111,001,F,22,2025-06-01_19h32.23.697,Serial_Dependence_U,2023.2.3,Win32,144.9275362318917,,,,,,5071.7435,328,8,5071.7435,328,,,,5075.715800000012,5076.215499999999,5075.208699999987,5075.715699999988,5072.743399999976,5075.208699999987,5076.215499999999,5076.715600000023,5076.715600000023,5079.173800000011,1535,5079.173800000011,4,5079.173899999976,8,3,243,13,1,1.4,0.3,Time
,,730111,001,F,22,2025-06-01_19h32.23.697,Serial_Dependence_U,2023.2.3,Win32,144.9275362318917,,,,,,5079.174100000024,118,8,5079.174100000024,118,,,,5083.3196000000235,5083.8195,5082.813,5083.3195,5080.180699999988,5082.8128000000115,5083.8195,5084.3196000000235,5084.319699999988,5086.1179999999995,1467,5086.1179999999995,2,5086.118100000023,8,4,244,9,1,1.6,0.7,Time
,,730111,001,F,22,2025-06-01_19h32.23.697,Serial_Dependence_U,2023.2.3,Win32,144.9275362318917,,,,,,5086.118199999988,130,8,5086.118300000012,130,,,,5089.896,5090.395800000012,5089.389199999988,5089.896,5087.127399999976,5089.389,5090.395800000012,5090.895800000012,5090.895899999976,5093.131699999988,1603,5093.131800000012,5,5093.131899999976,8,5,245,22,1,1.2,0.3,Time
,,730111,001,F,22,2025-06-01_19h32.23.697,Serial_Dependence_U,2023.2.3,Win32,144.9275362318917,,,,,,5093.132,329,8,5093.132,329,,,,5096.472100000024,5096.972,5095.9653999999755,5096.472,5094.132199999988,5095.965300000012,5096.972,5097.472,5097.472,5099.666300000012,1590,5099.6663999999755,5,5099.666499999999,8,6,246,15,1,0.8,0.7,Time
,,730111,001,F,22,2025-06-01_19h32.23.697,Serial_Dependence_U,2023.2.3,Win32,144.9275362318917,,,,,,5099.666600000023,159,8,5099.666699999988,159,,,,5103.229100000023,5103.728800000012,5102.7288999999755,5103.228999999999,5100.666800000012,5102.7288999999755,5103.728800000012,5104.228800000012,5104.228800000012,5106.617699999988,1581,5106.617800000012,5,5106.617899999976,8,7,247,21,1,1,0.3,Time
,,730111,001,F,22,2025-06-01_19h32.23.697,Serial_Dependence_U,2023.2.3,Win32,144.9275362318917,,,,,,5106.6179999999995,326,8,5106.618100000023,326,,,,5110.596899999976,5111.096699999988,5110.090199999988,5110.596899999976,5107.624899999976,5110.090199999988,5111.096699999988,5111.596699999988,5111.596699999988,5113.8085,1749,5113.8085,4,5113.808600000024,8,8,248,3,1,1.4,0.3,Time
,,730111,001,F,22,2025-06-01_19h32.23.697,Serial_Dependence_U,2023.2.3,Win32,144.9275362318917,,,,,,5113.808800000012,138,8,5113.808800000012,138,,,,5117.548600000024,5118.049899999976,5117.041300000012,5117.5485,5114.805399999976,5117.041199999988,5118.049899999976,5118.547899999976,5118.547899999976,5120.263300000011,1364,5120.263399999976,4,5120.2635,8,9,249,7,1,1.2,0.7,Time
,,730111,001,F,22,2025-06-01_19h32.23.697,Serial_Dependence_U,2023.2.3,Win32,144.9275362318917,,,,,,5120.263600000024,48,8,5120.263699999988,48,,,,5124.409300000012,5124.908899999976,5123.902199999988,5124.409199999988,5121.270899999976,5123.902199999988,5124.908899999976,5125.408899999976,5125.408899999976,5127.290800000012,1699,5127.290899999976,4,5127.291,8,10,250,19,1,1.6,0.7,Time
,,730111,001,F,22,2025-06-01_19h32.23.697,Serial_Dependence_U,2023.2.3,Win32,144.9275362318917,,,,,,5127.291100000024,93,8,5127.291199999988,93,,,,5130.8673999999755,5131.367300000012,5130.360600000024,5130.867300000012,5128.298,5130.360399999976,5131.367300000012,5131.869800000011,5131.869800000011,5133.263199999988,1040,5133.263199999988,3,5133.263300000011,8,11,251,11,1,1,0.3,Time
,,730111,001,F,22,2025-06-01_19h32.23.697,Serial_Dependence_U,2023.2.3,Win32,144.9275362318917,,,,,,5133.263399999976,65,8,5133.2635,65,,,,5137.207699999988,5137.707399999976,5136.700699999988,5137.207600000023,5134.270100000023,5136.700600000024,5137.707399999976,5138.207600000023,5138.207600000023,5140.353300000012,1566,5140.353399999976,4,5140.353399999976,8,12,252,18,1,1.4,0.7,Time
,,730111,001,F,22,2025-06-01_19h32.23.697,Serial_Dependence_U,2023.2.3,Win32,144.9275362318917,,,,,,5140.353600000024,332,8,5140.353600000024,332,,,,5143.714600000024,5144.2145,5143.214399999976,5143.7145,5141.353699999988,5143.2143000000115,5144.2145,5144.714399999976,5144.7145,5146.165699999988,1049,5146.165699999988,5,5146.165800000012,8,13,253,10,1,0.8,0.3,Time
,,730111,001,F,22,2025-06-01_19h32.23.697,Serial_Dependence_U,2023.2.3,Win32,144.9275362318917,,,,,,5146.166,319,8,5146.166,319,,,,5149.513100000024,5150.0126999999875,5149.006100000023,5149.513,5147.172699999988,5149.006100000023,5150.0126999999875,5150.512899999976,5150.512899999976,5152.332100000023,1117,5152.332199999988,5,5152.332300000012,8,14,254,25,1,0.8,0.7,Time
,,730111,001,F,22,2025-06-01_19h32.23.697,Serial_Dependence_U,2023.2.3,Win32,144.9275362318917,,,,,,5152.332399999976,224,8,5152.332399999976,224,,,,5155.700300000011,5156.200300000011,5155.193300000012,5155.700300000011,5153.332399999976,5155.193199999988,5156.200300000011,5156.700100000024,5156.700100000024,5158.866800000012,1310,5158.866800000012,5,5158.867,8,15,255,20,1,0.8,0.3,Time
,,730111,001,F,22,2025-06-01_19h32.23.697,Serial_Dependence_U,2023.2.3,Win32,144.9275362318917,,,,,,5158.867100000024,255,8,5158.867300000012,255,,,,5162.408600000023,5162.908199999988,5161.901699999988,5162.408600000023,5159.867100000024,5161.901699999988,5162.908300000012,5163.408300000012,5163.408300000012,5165.255699999988,1236,5165.255699999988,4,5165.255800000012,8,16,256,26,1,1,0.7,Time
,,730111,001,F,22,2025-06-01_19h32.23.697,Serial_Dependence_U,2023.2.3,Win32,144.9275362318917,,,,,,5165.255999999999,337,8,5165.255999999999,337,,,,5169.193300000012,5169.697100000024,5168.686300000012,5169.193300000012,5166.255600000024,5168.686300000012,5169.697100000024,5170.192899999976,5170.192899999976,5172.345800000012,1716,5172.345899999976,4,5172.346,8,17,257,28,1,1.4,0.7,Time
,,730111,001,F,22,2025-06-01_19h32.23.697,Serial_Dependence_U,2023.2.3,Win32,144.9275362318917,,,,,,5172.346100000023,221,8,5172.346100000023,221,,,,5176.095800000012,5176.595600000023,5175.588800000011,5176.095800000012,5173.3528000000115,5175.588800000011,5176.595600000023,5177.095600000023,5177.095600000023,5178.901699999988,1393,5178.901699999988,4,5178.902,8,18,258,27,1,1.2,0.7,Time
