Scale_setup.started,Scale_setup.stopped,participant,session,sex,age,date,expName,psychopyVersion,OS,frameRate,Intro.started,Intro.stopped,key_resp_2.keys,key_resp_2.rt,key_resp_2.duration,block.started,direction,Block_id,block.stopped,trial_direction,Block_resp_2.keys,Block_resp_2.rt,Block_resp_2.duration,ITI.started,ITI.stopped,Mask_2.started,Mask_2.stopped,encoding.started,encoding.stopped,Cue.started,Cue.stopped,Response.started,Response.stopped,keyDuration,Feedback_Time.started,FeedbackID_T,Feedback_Time.stopped,trials.thisRepN,trials.thisTrialN,trials.thisN,trials.thisIndex,trials.ran,TimeDur,Coherence1,TrialType
0.00019999998806952135,0.0004999999999881766,743968,001,F,22,2025-06-01_20h45.43.692,Serial_Dependence_U,2023.2.3,Win32,60.24096385550618,,,,,,,,,,,,,,,,,,,,,,,,,,,,,,,,,,,
,,743968,001,F,22,2025-06-01_20h45.43.692,Serial_Dependence_U,2023.2.3,Win32,60.24096385550618,166.6135,484.3355999999643,space,317.6926999999881,,,,,,,,,,,,,,,,,,,,,,,,,,,,,,,
,,743968,001,F,22,2025-06-01_20h45.43.692,Serial_Dependence_U,2023.2.3,Win32,60.24096385550618,,,,,,484.3420000000001,219,0,491.1815999999643,219,s,6.810100000023795,,494.95000000000005,495.4515999999643,494.43169999998815,494.9498999999762,492.18669999998815,494.4315999999643,495.45189999997626,495.9505999999643,495.95069999998816,497.75200000000007,925,497.75209999996434,2,498.7501999999881,0,0,0,7,1,1.2,0.7,Time
,,743968,001,F,22,2025-06-01_20h45.43.692,Serial_Dependence_U,2023.2.3,Win32,60.24096385550618,,,,,,498.75080000001196,139,0,498.7521999999881,139,,,,502.50109999996425,502.99639999997623,501.99700000000007,502.5010000000001,499.7633999999762,501.9968999999762,502.99639999997623,503.4956999999881,503.4956999999881,505.6793999999762,1734,505.6793999999762,5,506.6793999999762,0,1,1,17,1,1.2,0.7,Time
,,743968,001,F,22,2025-06-01_20h45.43.692,Serial_Dependence_U,2023.2.3,Win32,60.24096385550618,,,,,,506.6796999999881,339,0,506.6798999999762,339,,,,510.0173999999762,510.51150000000007,509.5123999999762,510.0173000000119,507.6795000000001,509.5123000000119,510.51159999996423,511.01150000000007,511.01150000000007,512.779,1015,512.779,4,513.7783999999762,0,2,2,15,1,0.8,0.7,Time
,,743968,001,F,22,2025-06-01_20h45.43.692,Serial_Dependence_U,2023.2.3,Win32,60.24096385550618,,,,,,513.7786999999881,28,0,513.7788999999763,28,,,,517.9783000000119,518.4776999999881,517.4653999999762,517.9781999999881,514.7850000000001,517.465300000012,518.4776999999881,518.977300000012,518.9773999999762,521.0643000000119,1323,521.0643000000119,2,522.0605,0,3,3,24,1,1.6,0.3,Time
,,743968,001,F,22,2025-06-01_20h45.43.692,Serial_Dependence_U,2023.2.3,Win32,60.24096385550618,,,,,,522.0608999999762,244,0,522.061,244,,,,525.6265999999642,526.1268000000119,525.1133000000119,525.6265999999642,523.0635999999643,525.1131999999882,526.1268000000119,526.6286999999882,526.628800000012,528.5933999999762,1366,528.5933999999762,5,529.5925000000001,0,4,4,16,1,1,0.7,Time
,,743968,001,F,22,2025-06-01_20h45.43.692,Serial_Dependence_U,2023.2.3,Win32,60.24096385550618,,,,,,529.5928999999762,131,0,529.5930000000001,131,,,,533.575800000012,534.0755,533.0596999999881,533.5756999999882,530.5933000000119,533.0595000000001,534.0755999999643,534.575,534.5750999999643,536.875,1704,536.875,4,537.875800000012,0,5,5,3,1,1.4,0.3,Time
,,743968,001,F,22,2025-06-01_20h45.43.692,Serial_Dependence_U,2023.2.3,Win32,60.24096385550618,,,,,,537.8760000000001,97,0,537.8761999999881,97,,,,542.0415999999643,542.5408000000119,541.5246999999881,542.0415,538.8913999999762,541.5246999999881,542.5408000000119,543.0408000000119,543.0408000000119,545.4076999999882,1633,545.407800000012,3,546.4076999999882,0,6,6,19,1,1.6,0.7,Time
,,743968,001,F,22,2025-06-01_20h45.43.692,Serial_Dependence_U,2023.2.3,Win32,60.24096385550618,,,,,,546.4080999999643,313,0,546.408300000012,313,,,,550.5738999999762,551.0733999999762,550.062800000012,550.5738999999762,547.4238999999762,550.0626999999881,551.0733999999762,551.5733999999762,551.5733999999762,554.0061999999881,1676,554.0061999999881,3,555.0060000000001,0,7,7,9,1,1.6,0.7,Time
,,743968,001,F,22,2025-06-01_20h45.43.692,Serial_Dependence_U,2023.2.3,Win32,60.24096385550618,,,,,,555.006300000012,165,0,555.0063999999762,165,,,,558.755800000012,559.2560999999642,558.2411999999881,558.7556999999881,556.0061999999881,558.2411999999881,559.2560999999642,559.755300000012,559.755300000012,561.8220999999643,1319,561.8221999999881,4,562.8218999999762,0,8,8,27,1,1.2,0.7,Time
,,743968,001,F,22,2025-06-01_20h45.43.692,Serial_Dependence_U,2023.2.3,Win32,60.24096385550618,,,,,,562.8221999999881,39,0,562.822300000012,39,,,,566.807800000012,567.3076999999881,566.3050999999643,566.8076999999881,563.8386999999881,566.3050000000001,567.3076999999881,567.8041999999881,567.8041999999881,569.6878999999763,1377,569.6878999999763,3,570.6873999999763,0,9,9,23,1,1.4,0.3,Time
,,743968,001,F,22,2025-06-01_20h45.43.692,Serial_Dependence_U,2023.2.3,Win32,60.24096385550618,,,,,,570.6880000000001,210,0,570.6880999999643,210,,,,574.8705000000001,575.37,574.3568999999762,574.8703999999763,571.6898000000119,574.3568999999762,575.37,575.870800000012,575.8708999999762,577.775300000012,1400,577.775300000012,2,578.7695,0,10,10,4,1,1.6,0.3,Time
,,743968,001,F,22,2025-06-01_20h45.43.692,Serial_Dependence_U,2023.2.3,Win32,60.24096385550618,,,,,,578.7698999999762,140,0,578.7698999999762,140,,,,582.1363999999762,582.635800000012,581.6196999999881,582.1363000000119,579.7861999999882,581.6196999999881,582.635800000012,583.1353999999762,583.1355000000001,584.4855999999643,676,584.4855999999643,2,585.4883000000119,0,11,11,25,1,0.8,0.7,Time
,,743968,001,F,22,2025-06-01_20h45.43.692,Serial_Dependence_U,2023.2.3,Win32,60.24096385550618,,,,,,585.4886999999882,261,0,585.4888999999762,261,,,,589.0855999999643,589.5848999999762,588.5688999999762,589.0855,586.5065000000001,588.568800000012,589.5848999999762,590.0848999999762,590.085,592.0370999999643,1376,592.0371999999882,5,593.0343999999762,0,12,12,21,1,1,0.3,Time
,,743968,001,F,22,2025-06-01_20h45.43.692,Serial_Dependence_U,2023.2.3,Win32,60.24096385550618,,,,,,593.0345999999643,264,0,593.034800000012,264,,,,597.0173999999762,597.5173000000119,596.5040999999643,597.0171999999882,594.0380999999643,596.504,597.5173000000119,598.0170999999643,598.0170999999643,599.8048999999762,1159,599.8048999999762,2,600.8000000000001,0,13,13,13,1,1.4,0.3,Time
,,743968,001,F,22,2025-06-01_20h45.43.692,Serial_Dependence_U,2023.2.3,Win32,60.24096385550618,,,,,,600.8003999999762,280,0,600.8005,280,,,,604.3860999999642,604.8863999999762,603.8671999999881,604.3860000000001,601.8200999999643,603.8670999999642,604.8865000000001,605.3825,605.3825,607.4331999999881,1453,607.433300000012,5,608.4321999999881,0,14,14,26,1,1,0.7,Time
,,743968,001,F,22,2025-06-01_20h45.43.692,Serial_Dependence_U,2023.2.3,Win32,60.24096385550618,,,,,,608.4323999999762,174,0,608.4325,174,,,,612.619,613.1145999999643,612.0991999999882,612.619,609.4351999999882,612.0990999999643,613.1145999999643,613.6150999999643,613.6150999999643,615.7980999999643,1425,615.7980999999643,2,616.7983999999763,0,15,15,14,1,1.6,0.3,Time
,,743968,001,F,22,2025-06-01_20h45.43.692,Serial_Dependence_U,2023.2.3,Win32,60.24096385550618,,,,,,616.7985999999643,326,0,616.7986999999881,326,,,,620.7475999999643,621.2470999999642,620.231,620.7475999999643,617.798800000012,620.231,621.2470999999642,621.7470999999642,621.7470999999642,624.1490999999643,1499,624.1491999999881,4,625.1465999999643,0,16,16,8,1,1.4,0.7,Time
,,743968,001,F,22,2025-06-01_20h45.43.692,Serial_Dependence_U,2023.2.3,Win32,60.24096385550618,,,,,,625.1468999999762,17,0,625.1470999999643,17,,,,628.7301999999881,629.2295999999643,628.2133000000119,628.7301999999881,626.1473999999762,628.2133000000119,629.2296999999882,629.729300000012,629.729300000012,631.8798999999763,1260,631.8800999999643,4,632.879800000012,0,17,17,11,1,1,0.3,Time
,,743968,001,F,22,2025-06-01_20h45.43.692,Serial_Dependence_U,2023.2.3,Win32,60.24096385550618,,,,,,632.8800999999643,97,0,632.8801999999881,97,,,,636.2455999999643,636.745300000012,635.7288999999762,636.2455999999643,633.883800000012,635.7288000000119,636.745300000012,637.2453999999763,637.2453999999763,639.1281999999882,1045,639.1281999999882,5,640.128300000012,0,18,18,5,1,0.8,0.7,Time
,,743968,001,F,22,2025-06-01_20h45.43.692,Serial_Dependence_U,2023.2.3,Win32,60.24096385550618,,,,,,640.1285999999643,87,0,640.1286999999882,87,,,,643.5328999999762,644.0276999999882,643.0113999999762,643.532800000012,641.1450999999643,643.0113999999762,644.0276999999882,644.5273999999762,644.5275,646.0608999999762,916,646.0608999999762,4,647.0603999999762,0,19,19,0,1,0.8,0.3,Time
,,743968,001,F,22,2025-06-01_20h45.43.692,Serial_Dependence_U,2023.2.3,Win32,60.24096385550618,,,,,,647.060800000012,241,0,647.061,241,,,,650.431,650.931300000012,649.928800000012,650.431,648.0643000000119,649.9286999999881,650.9313999999762,651.4268999999762,651.4268999999762,653.293300000012,1036,653.2933999999763,4,654.293,0,20,20,20,1,0.8,0.3,Time
,,743968,001,F,22,2025-06-01_20h45.43.692,Serial_Dependence_U,2023.2.3,Win32,60.24096385550618,,,,,,654.2935,302,0,654.2936999999881,302,,,,657.8763999999762,658.3795999999643,657.3595999999643,657.8763999999762,655.2930999999643,657.3595999999643,658.3795999999643,658.8756999999881,658.875800000012,660.7086999999881,1038,660.7088000000119,3,661.7103999999762,0,21,21,1,1,1,0.3,Time
,,743968,001,F,22,2025-06-01_20h45.43.692,Serial_Dependence_U,2023.2.3,Win32,60.24096385550618,,,,,,661.7105999999643,148,0,661.7106999999882,148,,,,665.6748999999762,666.1745000000001,665.158300000012,665.6748999999762,662.7250999999643,665.158300000012,666.1745000000001,666.6746999999881,666.6748000000119,668.9770000000001,1536,668.9770000000001,4,669.974300000012,0,22,22,18,1,1.4,0.7,Time
,,743968,001,F,22,2025-06-01_20h45.43.692,Serial_Dependence_U,2023.2.3,Win32,60.24096385550618,,,,,,669.9745999999643,256,0,669.9746999999882,256,,,,673.7591999999881,674.258800000012,673.2410999999643,673.7591999999881,670.9750999999643,673.2410000000001,674.258800000012,674.7566999999881,674.7566999999881,676.9233999999763,1309,676.9235000000001,4,677.926800000012,0,23,23,12,1,1.2,0.3,Time
,,743968,001,F,22,2025-06-01_20h45.43.692,Serial_Dependence_U,2023.2.3,Win32,60.24096385550618,,,,,,677.927300000012,339,0,677.927300000012,339,,,,681.7083999999762,682.205800000012,681.1915,681.7083999999762,678.926300000012,681.1915,682.205800000012,682.7060999999643,682.7061999999881,684.972300000012,1407,684.972300000012,4,685.9720000000001,0,24,24,2,1,1.2,0.3,Time
,,743968,001,F,22,2025-06-01_20h45.43.692,Serial_Dependence_U,2023.2.3,Win32,60.24096385550618,,,,,,685.9723999999762,19,0,685.9725999999642,19,,,,690.1258999999762,690.6215000000001,689.6253999999763,690.1258999999762,686.9896999999881,689.625300000012,690.6215000000001,691.121300000012,691.121300000012,693.4733999999762,1666,693.4733999999762,3,694.4715000000001,0,25,25,29,1,1.6,0.7,Time
,,743968,001,F,22,2025-06-01_20h45.43.692,Serial_Dependence_U,2023.2.3,Win32,60.24096385550618,,,,,,694.4720000000001,225,0,694.4720999999643,225,,,,697.8545999999643,698.354,697.3393999999762,697.8545999999643,695.472800000012,697.3393999999762,698.3540999999643,698.8555,698.8555,700.4878999999762,947,700.4878999999762,4,701.4870999999642,0,26,26,10,1,0.8,0.3,Time
,,743968,001,F,22,2025-06-01_20h45.43.692,Serial_Dependence_U,2023.2.3,Win32,60.24096385550618,,,,,,701.4875000000001,218,0,701.4875999999642,218,,,,705.4368999999762,705.9375,704.9218999999762,705.4366999999882,702.4896999999881,704.9218999999762,705.9375,706.4361999999882,706.4361999999882,708.6028000000119,1488,708.6028999999762,4,709.5913999999763,0,27,27,28,1,1.4,0.7,Time
,,743968,001,F,22,2025-06-01_20h45.43.692,Serial_Dependence_U,2023.2.3,Win32,60.24096385550618,,,,,,709.591800000012,44,0,709.5918999999762,44,,,,713.3690999999643,713.8686999999882,712.8540999999643,713.369,710.587800000012,712.854,713.8686999999882,714.3681999999882,714.3681999999882,716.4543999999762,1334,716.4543999999762,4,717.4513999999762,0,28,28,22,1,1.2,0.3,Time
,,743968,001,F,22,2025-06-01_20h45.43.692,Serial_Dependence_U,2023.2.3,Win32,60.24096385550618,,,,,,717.4516999999881,342,0,717.4518999999763,342,,,,721.0025999999643,721.5036999999882,720.4848999999762,721.0025999999643,718.4526999999881,720.4848999999762,721.5036999999882,722.0008999999762,722.0008999999762,724.2010999999643,1153,724.2011999999881,4,725.2000999999643,0,29,29,6,1,1,0.7,Time
,,743968,001,F,22,2025-06-01_20h45.43.692,Serial_Dependence_U,2023.2.3,Win32,60.24096385550618,,,,,,725.2003999999762,91,1,729.9415999999643,91,s,4.707100000023843,,734.1200999999643,734.6160999999643,733.601,734.12,730.9346999999881,733.6008999999763,734.6160999999643,735.1178000000119,735.1178000000119,736.999,1162,736.9990999999643,2,737.0055000000001,1,0,30,14,1,1.6,0.3,Time
,,743968,001,F,22,2025-06-01_20h45.43.692,Serial_Dependence_U,2023.2.3,Win32,60.24096385550618,,,,,,737.0056999999881,245,1,737.006300000012,245,,,,740.7983999999763,741.298300000012,740.2863000000119,740.798300000012,738.017800000012,740.2861999999882,741.298300000012,741.7980999999643,741.7980999999643,743.798800000012,1242,743.798800000012,3,743.804300000012,1,1,31,22,1,1.2,0.3,Time
,,743968,001,F,22,2025-06-01_20h45.43.692,Serial_Dependence_U,2023.2.3,Win32,60.24096385550618,,,,,,743.8045000000001,333,1,743.8045999999642,333,,,,747.1980999999643,747.6975999999643,746.682800000012,747.1980000000001,744.8206999999882,746.682800000012,747.6975999999643,748.1975000000001,748.1975000000001,749.8160999999643,750,749.8160999999643,2,749.8215,1,2,32,10,1,0.8,0.3,Time
,,743968,001,F,22,2025-06-01_20h45.43.692,Serial_Dependence_U,2023.2.3,Win32,60.24096385550618,,,,,,749.8216999999881,251,1,749.821800000012,251,,,,753.813800000012,754.3135999999643,753.3038999999762,753.8136999999881,750.8311999999881,753.303800000012,754.3135999999643,754.8128999999763,754.8130000000001,756.9986999999882,1387,756.9986999999882,3,757.0048999999763,1,3,33,3,1,1.4,0.3,Time
,,743968,001,F,22,2025-06-01_20h45.43.692,Serial_Dependence_U,2023.2.3,Win32,60.24096385550618,,,,,,757.005,37,1,757.0051999999881,37,,,,760.3308999999762,760.8290000000001,759.8296999999882,760.3308999999762,757.9973000000119,759.8295999999643,760.8290000000001,761.3286999999881,761.3286999999881,762.9310999999643,700,762.9310999999643,2,762.9365,1,4,34,25,1,0.8,0.7,Time
,,743968,001,F,22,2025-06-01_20h45.43.692,Serial_Dependence_U,2023.2.3,Win32,60.24096385550618,,,,,,762.936800000012,270,1,762.9368999999762,270,,,,766.6645999999643,767.1615999999643,766.1640000000001,766.6645999999643,763.9318999999762,766.1638999999763,767.1615999999643,767.661800000012,767.661800000012,769.980300000012,1133,769.9803999999762,2,769.9860000000001,1,5,35,27,1,1.2,0.7,Time
,,743968,001,F,22,2025-06-01_20h45.43.692,Serial_Dependence_U,2023.2.3,Win32,60.24096385550618,,,,,,769.986300000012,89,1,769.986300000012,89,,,,774.1280999999643,774.6273000000119,773.6171999999881,774.1280999999643,770.9805,773.6170999999642,774.6273000000119,775.1306999999881,775.130800000012,777.5793999999762,1333,777.5795,2,777.5853999999762,1,6,36,9,1,1.6,0.7,Time
,,743968,001,F,22,2025-06-01_20h45.43.692,Serial_Dependence_U,2023.2.3,Win32,60.24096385550618,,,,,,777.5855999999643,101,1,777.5856999999882,101,,,,781.144800000012,781.6446999999881,780.628300000012,781.144800000012,778.5961999999881,780.628300000012,781.644800000012,782.1475,782.1475,784.1260999999643,1180,784.1260999999643,4,784.1315999999642,1,7,37,6,1,1,0.7,Time
,,743968,001,F,22,2025-06-01_20h45.43.692,Serial_Dependence_U,2023.2.3,Win32,60.24096385550618,,,,,,784.1318999999762,197,1,784.1318999999762,197,,,,788.2758999999762,788.7755000000001,787.7610000000001,788.2758000000119,785.1275999999643,787.7610000000001,788.7755000000001,789.275300000012,789.275300000012,791.8253999999762,1594,791.8255,3,791.832300000012,1,8,38,29,1,1.6,0.7,Time
,,743968,001,F,22,2025-06-01_20h45.43.692,Serial_Dependence_U,2023.2.3,Win32,60.24096385550618,,,,,,791.8325000000001,48,1,791.8325000000001,48,,,,795.7915,796.2910999999643,795.2748999999762,795.7913999999762,792.8431999999881,795.274800000012,796.2910999999643,796.791,796.7910999999643,799.0933999999762,1371,799.0935000000001,3,799.0988000000119,1,9,39,18,1,1.4,0.7,Time
,,743968,001,F,22,2025-06-01_20h45.43.692,Serial_Dependence_U,2023.2.3,Win32,60.24096385550618,,,,,,799.099,35,1,799.0990999999643,35,,,,803.0425,803.5400999999642,802.5275,803.0423999999762,800.0920999999643,802.5273999999762,803.5400999999642,804.0400000000001,804.0400000000001,806.2235000000001,1335,806.2235000000001,3,806.2293999999762,1,10,40,8,1,1.4,0.7,Time
,,743968,001,F,22,2025-06-01_20h45.43.692,Serial_Dependence_U,2023.2.3,Win32,60.24096385550618,,,,,,806.2295999999643,304,1,806.2296999999882,304,,,,809.7788999999763,810.272300000012,809.2576999999882,809.778800000012,807.2236999999882,809.2576999999882,810.272300000012,810.7731999999882,810.7731999999882,812.6065999999643,1205,812.6065999999643,4,812.6120999999642,1,11,41,16,1,1,0.7,Time
,,743968,001,F,22,2025-06-01_20h45.43.692,Serial_Dependence_U,2023.2.3,Win32,60.24096385550618,,,,,,812.6123999999762,208,1,812.6123999999762,208,,,,816.207,816.7046999999882,815.6901999999882,816.206800000012,813.6238999999762,815.6900999999643,816.7048000000119,817.2061999999881,817.2061999999881,819.6548999999762,1342,819.6548999999762,5,819.6606999999881,1,12,42,21,1,1,0.3,Time
,,743968,001,F,22,2025-06-01_20h45.43.692,Serial_Dependence_U,2023.2.3,Win32,60.24096385550618,,,,,,819.6608999999762,84,1,819.6610000000001,84,,,,823.2046999999882,823.7041999999881,822.6928999999762,823.2046999999882,820.655300000012,822.692800000012,823.7043000000119,824.2043999999762,824.2043999999762,825.9895999999643,1167,825.989800000012,4,825.995,1,13,43,26,1,1,0.7,Time
,,743968,001,F,22,2025-06-01_20h45.43.692,Serial_Dependence_U,2023.2.3,Win32,60.24096385550618,,,,,,825.995300000012,358,1,825.995300000012,358,,,,829.3875999999643,829.8868999999762,828.8705999999643,829.3875999999643,827.0041999999881,828.8705999999643,829.8870000000001,830.3863999999762,830.3863999999762,831.9553999999762,590,831.9553999999762,2,831.9615999999643,1,14,44,20,1,0.8,0.3,Time
,,743968,001,F,22,2025-06-01_20h45.43.692,Serial_Dependence_U,2023.2.3,Win32,60.24096385550618,,,,,,831.9618999999763,102,1,831.9618999999763,102,,,,835.3366999999881,835.8383000000119,834.8215,835.3366999999881,832.9535999999642,834.8215,835.8383000000119,836.3361999999881,836.3361999999881,838.421,1069,838.4210999999643,5,838.4265,1,15,45,0,1,0.8,0.3,Time
,,743968,001,F,22,2025-06-01_20h45.43.692,Serial_Dependence_U,2023.2.3,Win32,60.24096385550618,,,,,,838.4266999999882,33,1,838.426800000012,33,,,,842.5871999999881,843.0875999999643,842.0855,842.5871999999881,839.4191999999881,842.0853999999762,843.0875999999643,843.5888999999762,843.5888999999762,845.7678999999762,1080,845.768,1,845.7735,1,16,46,4,1,1.6,0.3,Time
,,743968,001,F,22,2025-06-01_20h45.43.692,Serial_Dependence_U,2023.2.3,Win32,60.24096385550618,,,,,,845.773800000012,122,1,845.7738999999762,122,,,,849.7708999999762,850.2670999999643,849.2568999999762,849.7708999999762,846.7888999999763,849.2568999999762,850.2671999999882,850.7668999999762,850.767,852.9171999999882,1578,852.9173999999762,4,852.923300000012,1,17,47,23,1,1.4,0.3,Time
,,743968,001,F,22,2025-06-01_20h45.43.692,Serial_Dependence_U,2023.2.3,Win32,60.24096385550618,,,,,,852.9235999999643,328,1,852.9235999999643,328,,,,856.7005999999643,857.202800000012,856.1853999999762,856.7005999999643,853.9175,856.1853000000119,857.202800000012,857.7030000000001,857.7030000000001,859.3688999999762,1221,859.3688999999762,3,859.3751999999881,1,18,48,12,1,1.2,0.3,Time
,,743968,001,F,22,2025-06-01_20h45.43.692,Serial_Dependence_U,2023.2.3,Win32,60.24096385550618,,,,,,859.3755000000001,182,1,859.3755999999643,182,,,,862.9543999999762,863.452300000012,862.4325,862.9543000000119,860.369300000012,862.4323999999762,863.452300000012,863.9521999999881,863.9521999999881,865.519800000012,741,865.519800000012,2,865.5253999999762,1,19,49,1,1,1,0.3,Time
,,743968,001,F,22,2025-06-01_20h45.43.692,Serial_Dependence_U,2023.2.3,Win32,60.24096385550618,,,,,,865.5255999999642,298,1,865.5256999999881,298,,,,869.4873999999762,869.981300000012,868.9836999999882,869.4873000000119,866.5170999999643,868.9836999999882,869.9813999999762,870.4813999999762,870.4813999999762,872.3813999999762,1283,872.3813999999762,2,872.3875999999643,1,20,50,13,1,1.4,0.3,Time
,,743968,001,F,22,2025-06-01_20h45.43.692,Serial_Dependence_U,2023.2.3,Win32,60.24096385550618,,,,,,872.3878999999762,230,1,872.3878999999762,230,,,,875.7313999999761,876.230800000012,875.2145000000002,875.7313000000121,873.3835,875.2145000000002,876.2308999999763,876.7320999999644,876.7320999999644,878.2666999999882,864,878.2666999999882,4,878.272,1,21,51,15,1,0.8,0.7,Time
,,743968,001,F,22,2025-06-01_20h45.43.692,Serial_Dependence_U,2023.2.3,Win32,60.24096385550618,,,,,,878.2721999999882,147,1,878.272300000012,147,,,,882.4493000000119,882.9493999999762,881.9315999999643,882.4491999999881,879.263699999988,881.9315999999643,882.9495000000001,883.4478000000121,883.4478000000121,885.4666999999882,1276,885.4666999999882,2,885.4725,1,22,52,24,1,1.6,0.3,Time
,,743968,001,F,22,2025-06-01_20h45.43.692,Serial_Dependence_U,2023.2.3,Win32,60.24096385550618,,,,,,885.4726999999881,189,1,885.472800000012,189,,,,889.214300000012,889.7120000000001,888.6978000000121,889.214300000012,886.4630000000001,888.6978000000121,889.7120000000001,890.2120999999644,890.2120999999644,891.912199999988,1228,891.9123000000119,3,891.9181999999881,1,23,53,17,1,1.2,0.7,Time
,,743968,001,F,22,2025-06-01_20h45.43.692,Serial_Dependence_U,2023.2.3,Win32,60.24096385550618,,,,,,891.9183999999763,77,1,891.9185000000001,77,,,,895.495,896.000800000012,894.9820000000001,895.4948999999762,892.9125,894.9818999999762,896.000800000012,896.494699999988,896.4948000000119,898.5781999999882,1361,898.5783000000121,5,898.5838999999761,1,24,54,11,1,1,0.3,Time
,,743968,001,F,22,2025-06-01_20h45.43.692,Serial_Dependence_U,2023.2.3,Win32,60.24096385550618,,,,,,898.5840999999642,2,1,898.5843000000119,2,,,,902.3628999999763,902.8605000000001,901.861,902.362800000012,899.5960000000001,901.8608000000119,902.8605999999644,903.3600999999643,903.3600999999643,904.977,1007,904.9770999999643,2,904.9828999999762,1,25,55,2,1,1.2,0.3,Time
,,743968,001,F,22,2025-06-01_20h45.43.692,Serial_Dependence_U,2023.2.3,Win32,60.24096385550618,,,,,,904.983300000012,99,1,904.983300000012,99,,,,908.927,909.4258999999762,908.4115999999643,908.9268999999762,905.9786999999882,908.4115999999643,909.4258999999762,909.927699999988,909.927699999988,912.0265999999643,1407,912.0265999999643,3,912.032300000012,1,26,56,28,1,1.4,0.7,Time
,,743968,001,F,22,2025-06-01_20h45.43.692,Serial_Dependence_U,2023.2.3,Win32,60.24096385550618,,,,,,912.0325000000001,216,1,912.0325000000001,216,,,,915.3605999999644,915.8588999999762,914.8595999999642,915.3605999999644,913.0263999999762,914.8595000000001,915.8588999999762,916.3475999999642,916.3475999999642,917.9278999999761,991,917.9278999999761,4,917.9335,1,27,57,5,1,0.8,0.7,Time
,,743968,001,F,22,2025-06-01_20h45.43.692,Serial_Dependence_U,2023.2.3,Win32,60.24096385550618,,,,,,917.9336999999881,111,1,917.9336999999881,111,,,,921.6931999999882,922.1953999999763,921.1768999999762,921.6931999999882,918.9416999999881,921.1768000000119,922.1953999999763,922.6906999999882,922.6906999999882,924.4941999999882,1206,924.4941999999882,3,924.4995999999643,1,28,58,7,1,1.2,0.7,Time
,,743968,001,F,22,2025-06-01_20h45.43.692,Serial_Dependence_U,2023.2.3,Win32,60.24096385550618,,,,,,924.499800000012,357,1,924.4998999999763,357,,,,928.6260000000001,929.1250999999644,928.124199999988,928.6260000000001,925.4918999999762,928.1240999999642,929.1250999999644,929.6263000000121,929.6263000000121,932.023699999988,1476,932.0238000000119,2,932.0293999999761,1,29,59,19,1,1.6,0.7,Time
,,743968,001,F,22,2025-06-01_20h45.43.692,Serial_Dependence_U,2023.2.3,Win32,60.24096385550618,,,,,,932.0296999999881,111,2,1150.537199999988,111,s,218.4743000000119,,1154.0946999999883,1154.593800000012,1153.5798000000118,1154.0945999999644,1151.532699999988,1153.579699999988,1154.593800000012,1155.093800000012,1155.0938999999762,1156.88,1143,1156.8800999999644,4,1156.8858999999761,2,0,60,16,1,1,0.7,Time
,,743968,001,F,22,2025-06-01_20h45.43.692,Serial_Dependence_U,2023.2.3,Win32,60.24096385550618,,,,,,1156.8860999999642,153,2,1156.886800000012,153,,,,1161.0811999999883,1161.5760999999643,1160.562,1161.0810999999644,1157.8963000000122,1160.561899999976,1161.5761999999881,1162.0761999999881,1162.076300000012,1163.978300000012,1566,1163.978300000012,3,1163.9838000000118,2,1,61,14,1,1.6,0.3,Time
,,743968,001,F,22,2025-06-01_20h45.43.692,Serial_Dependence_U,2023.2.3,Win32,60.24096385550618,,,,,,1163.983899999976,49,2,1163.9840999999642,49,,,,1167.3610999999642,1167.8620999999644,1166.842899999976,1167.3609999999999,1164.996899999976,1166.8428000000122,1167.8620999999644,1168.358599999964,1168.358599999964,1170.1590999999644,1195,1170.1590999999644,5,1170.1644999999999,2,2,62,5,1,0.8,0.7,Time
,,743968,001,F,22,2025-06-01_20h45.43.692,Serial_Dependence_U,2023.2.3,Win32,60.24096385550618,,,,,,1170.1645999999641,80,2,1170.1648000000118,80,,,,1173.9253000000122,1174.4243999999762,1173.4116999999883,1173.9253000000122,1171.177300000012,1173.4116999999883,1174.4243999999762,1174.926,1174.926,1176.5458999999764,1037,1176.5460000000003,2,1176.5513999999762,2,3,63,7,1,1.2,0.7,Time
,,743968,001,F,22,2025-06-01_20h45.43.692,Serial_Dependence_U,2023.2.3,Win32,60.24096385550618,,,,,,1176.5515999999643,143,2,1176.5515999999643,143,,,,1180.5265999999642,1181.0271999999882,1180.0096999999882,1180.5265999999642,1177.541599999964,1180.0095000000001,1181.027300000012,1181.5273999999763,1181.5273999999763,1183.6585999999643,1426,1183.6586999999881,3,1183.6643000000122,2,4,64,13,1,1.4,0.3,Time
,,743968,001,F,22,2025-06-01_20h45.43.692,Serial_Dependence_U,2023.2.3,Win32,60.24096385550618,,,,,,1183.6644999999999,272,2,1183.6645999999641,272,,,,1187.0430000000001,1187.5411999999883,1186.5255999999645,1187.0430000000001,1184.6570000000002,1186.5255999999645,1187.5411999999883,1188.0435999999645,1188.0435999999645,1189.4903000000118,724,1189.490399999976,2,1189.495800000012,2,5,65,20,1,0.8,0.3,Time
,,743968,001,F,22,2025-06-01_20h45.43.692,Serial_Dependence_U,2023.2.3,Win32,60.24096385550618,,,,,,1189.4960999999644,258,2,1189.4961999999882,258,,,,1193.0745999999644,1193.571800000012,1192.5733999999761,1193.0745000000002,1190.5078999999764,1192.5733000000118,1193.5718999999763,1194.0720999999644,1194.0720999999644,1195.6910000000003,984,1195.6910000000003,3,1195.6965,2,6,66,1,1,1,0.3,Time
,,743968,001,F,22,2025-06-01_20h45.43.692,Serial_Dependence_U,2023.2.3,Win32,60.24096385550618,,,,,,1195.696800000012,73,2,1195.696800000012,73,,,,1199.671800000012,1200.1710000000003,1199.155899999976,1199.671800000012,1196.6905000000002,1199.1558000000118,1200.1710000000003,1200.6710000000003,1200.6710000000003,1202.7725999999643,1488,1202.7726999999882,4,1202.778099999964,2,7,67,23,1,1.4,0.3,Time
,,743968,001,F,22,2025-06-01_20h45.43.692,Serial_Dependence_U,2023.2.3,Win32,60.24096385550618,,,,,,1202.778399999976,187,2,1202.778399999976,187,,,,1206.9205999999645,1207.4083999999762,1206.4068999999763,1206.9205000000002,1203.7750999999644,1206.406800000012,1207.4083999999762,1207.9075000000003,1207.9075000000003,1210.238699999988,1626,1210.238800000012,3,1210.2443999999764,2,8,68,19,1,1.6,0.7,Time
,,743968,001,F,22,2025-06-01_20h45.43.692,Serial_Dependence_U,2023.2.3,Win32,60.24096385550618,,,,,,1210.244699999988,241,2,1210.244699999988,241,,,,1213.8383000000122,1214.3358999999764,1213.3215,1213.8381999999883,1211.2538000000118,1213.3213999999762,1214.3358999999764,1214.836099999964,1214.836099999964,1216.4383999999764,976,1216.4383999999764,3,1216.4438000000118,2,9,69,21,1,1,0.3,Time
,,743968,001,F,22,2025-06-01_20h45.43.692,Serial_Dependence_U,2023.2.3,Win32,60.24096385550618,,,,,,1216.444,27,2,1216.444,27,,,,1220.219300000012,1220.718199999988,1219.7043000000122,1220.2191999999882,1217.437800000012,1219.7043000000122,1220.7183000000118,1221.2223000000122,1221.2223000000122,1223.1193999999764,1219,1223.1193999999764,3,1223.1256999999882,2,10,70,2,1,1.2,0.3,Time
,,743968,001,F,22,2025-06-01_20h45.43.692,Serial_Dependence_U,2023.2.3,Win32,60.24096385550618,,,,,,1223.1258999999764,272,2,1223.1260999999645,272,,,,1227.0851999999882,1227.5883000000122,1226.5698999999763,1227.085,1224.1365,1226.569800000012,1227.5883000000122,1228.084399999976,1228.0845,1230.0378000000119,1326,1230.0378000000119,2,1230.0431999999882,2,11,71,8,1,1.4,0.7,Time
,,743968,001,F,22,2025-06-01_20h45.43.692,Serial_Dependence_U,2023.2.3,Win32,60.24096385550618,,,,,,1230.043300000012,187,2,1230.0433999999764,187,,,,1233.5843000000118,1234.0845999999642,1233.069,1233.584099999964,1231.036,1233.068899999976,1234.084699999988,1234.5868000000119,1234.5868999999761,1236.6193000000121,1234,1236.6193999999764,4,1236.624699999988,2,12,72,6,1,1,0.7,Time
,,743968,001,F,22,2025-06-01_20h45.43.692,Serial_Dependence_U,2023.2.3,Win32,60.24096385550618,,,,,,1236.6248999999762,43,2,1236.625,43,,,,1240.370800000012,1240.865699999988,1239.8680999999642,1240.3706999999881,1237.6358999999761,1239.8680999999642,1240.865699999988,1241.3671999999883,1241.3671999999883,1243.219300000012,1165,1243.219300000012,3,1243.224899999976,2,13,73,17,1,1.2,0.7,Time
,,743968,001,F,22,2025-06-01_20h45.43.692,Serial_Dependence_U,2023.2.3,Win32,60.24096385550618,,,,,,1243.225,241,2,1243.225199999988,241,,,,1247.4021999999882,1247.902,1246.883800000012,1247.4021999999882,1244.2173999999764,1246.883800000012,1247.902,1248.3995,1248.3995,1250.5500999999645,1466,1250.5501999999883,2,1250.5555,2,14,74,24,1,1.6,0.3,Time
,,743968,001,F,22,2025-06-01_20h45.43.692,Serial_Dependence_U,2023.2.3,Win32,60.24096385550618,,,,,,1250.555699999988,355,2,1250.555699999988,355,,,,1254.7495,1255.2488999999764,1254.232800000012,1254.749399999976,1251.5676999999882,1254.2326999999882,1255.2488999999764,1255.7475999999642,1255.7475999999642,1258.082800000012,1704,1258.083,4,1258.0895999999643,2,15,75,4,1,1.6,0.3,Time
,,743968,001,F,22,2025-06-01_20h45.43.692,Serial_Dependence_U,2023.2.3,Win32,60.24096385550618,,,,,,1258.089800000012,162,2,1258.089800000012,162,,,,1262.0504999999998,1262.546099999964,1261.5484999999999,1262.0504999999998,1259.100199999988,1261.5484999999999,1262.546099999964,1263.0465999999642,1263.046699999988,1265.0155999999643,1480,1265.015699999988,4,1265.0213000000122,2,16,76,28,1,1.4,0.7,Time
,,743968,001,F,22,2025-06-01_20h45.43.692,Serial_Dependence_U,2023.2.3,Win32,60.24096385550618,,,,,,1265.0214999999998,106,2,1265.0214999999998,106,,,,1269.1628000000119,1269.6618999999764,1268.6475,1269.1625999999642,1266.0166999999883,1268.6475,1269.6618999999764,1270.1618999999764,1270.1618999999764,1272.1673999999762,1113,1272.1675,1,1272.1738000000119,2,17,77,29,1,1.6,0.7,Time
,,743968,001,F,22,2025-06-01_20h45.43.692,Serial_Dependence_U,2023.2.3,Win32,60.24096385550618,,,,,,1272.174,251,2,1272.174199999988,251,,,,1276.1450999999643,1276.644699999988,1275.6303999999764,1276.145,1273.1640999999645,1275.6303999999764,1276.6448000000119,1277.1448000000119,1277.1448000000119,1278.9443999999762,1293,1278.9443999999762,2,1278.9500000000003,2,18,78,3,1,1.4,0.3,Time
,,743968,001,F,22,2025-06-01_20h45.43.692,Serial_Dependence_U,2023.2.3,Win32,60.24096385550618,,,,,,1278.9503000000118,330,2,1278.950399999976,330,,,,1282.3461999999881,1282.843699999988,1281.8294999999998,1282.3460999999643,1279.962800000012,1281.8293999999764,1282.843800000012,1283.343800000012,1283.343800000012,1284.7441999999883,882,1284.7441999999883,4,1284.749699999988,2,19,79,0,1,0.8,0.3,Time
,,743968,001,F,22,2025-06-01_20h45.43.692,Serial_Dependence_U,2023.2.3,Win32,60.24096385550618,,,,,,1284.7498999999762,272,2,1284.75,272,,,,1288.4981999999882,1288.997699999988,1287.9938999999763,1288.4981999999882,1285.7501999999881,1287.993800000012,1288.997800000012,1289.4938999999763,1289.4938999999763,1291.110300000012,1167,1291.1103999999764,3,1291.1160999999643,2,20,80,27,1,1.2,0.7,Time
,,743968,001,F,22,2025-06-01_20h45.43.692,Serial_Dependence_U,2023.2.3,Win32,60.24096385550618,,,,,,1291.116300000012,27,2,1291.1163999999762,27,,,,1294.4933999999762,1294.9938999999763,1293.9775,1294.493300000012,1292.1135,1293.9775,1294.9938999999763,1295.493800000012,1295.493800000012,1296.8113000000121,858,1296.8113000000121,4,1296.816699999988,2,21,81,10,1,0.8,0.3,Time
,,743968,001,F,22,2025-06-01_20h45.43.692,Serial_Dependence_U,2023.2.3,Win32,60.24096385550618,,,,,,1296.817,105,2,1296.817,105,,,,1300.594300000012,1301.0925999999645,1300.0935999999642,1300.594300000012,1297.828800000012,1300.0935,1301.0925999999645,1301.5910999999642,1301.591199999988,1303.3270999999645,1150,1303.3270999999645,3,1303.332699999988,2,22,82,22,1,1.2,0.3,Time
,,743968,001,F,22,2025-06-01_20h45.43.692,Serial_Dependence_U,2023.2.3,Win32,60.24096385550618,,,,,,1303.333,312,2,1303.333,312,,,,1306.8760999999645,1307.3736999999883,1306.3578999999763,1306.8760999999645,1304.325199999988,1306.357800000012,1307.3738000000121,1307.8738000000121,1307.8738000000121,1309.5115999999643,1024,1309.5115999999643,3,1309.5169999999998,2,23,83,26,1,1,0.7,Time
,,743968,001,F,22,2025-06-01_20h45.43.692,Serial_Dependence_U,2023.2.3,Win32,60.24096385550618,,,,,,1309.517199999988,193,2,1309.517199999988,193,,,,1312.8738000000121,1313.3730999999643,1312.3625999999645,1312.8736999999883,1310.523899999976,1312.3625999999645,1313.3730999999643,1313.8728999999762,1313.873,1315.1918999999762,850,1315.1918999999762,4,1315.1975000000002,2,24,84,25,1,0.8,0.7,Time
,,743968,001,F,22,2025-06-01_20h45.43.692,Serial_Dependence_U,2023.2.3,Win32,60.24096385550618,,,,,,1315.1976999999883,153,2,1315.1976999999883,153,,,,1318.557199999988,1319.0565999999644,1318.0413000000121,1318.557099999964,1316.207800000012,1318.0413000000121,1319.0565999999644,1319.555800000012,1319.5558999999762,1321.0395999999641,899,1321.039699999988,4,1321.045,2,25,85,15,1,0.8,0.7,Time
,,743968,001,F,22,2025-06-01_20h45.43.692,Serial_Dependence_U,2023.2.3,Win32,60.24096385550618,,,,,,1321.0451999999882,19,2,1321.0451999999882,19,,,,1324.8220000000001,1325.3253000000118,1324.306300000012,1324.8218999999763,1322.040300000012,1324.3061999999882,1325.3253000000118,1325.8229999999999,1325.8229999999999,1327.9908999999761,1108,1327.991,2,1327.997199999988,2,26,86,12,1,1.2,0.3,Time
,,743968,001,F,22,2025-06-01_20h45.43.692,Serial_Dependence_U,2023.2.3,Win32,60.24096385550618,,,,,,1327.997399999976,342,2,1327.9975,342,,,,1331.572899999976,1332.070599999964,1331.0570000000002,1331.5728000000122,1328.9885,1331.0568000000121,1332.070599999964,1332.5703999999764,1332.5703999999764,1334.3563000000122,1056,1334.356399999976,4,1334.361800000012,2,27,87,11,1,1,0.3,Time
,,743968,001,F,22,2025-06-01_20h45.43.692,Serial_Dependence_U,2023.2.3,Win32,60.24096385550618,,,,,,1334.3620999999644,69,2,1334.3620999999644,69,,,,1338.5203999999762,1339.020300000012,1338.0088999999762,1338.520300000012,1335.3705999999643,1338.008800000012,1339.020300000012,1339.5225999999643,1339.5225999999643,1341.5050999999644,1333,1341.5051999999882,2,1341.5108999999761,2,28,88,9,1,1.6,0.7,Time
,,743968,001,F,22,2025-06-01_20h45.43.692,Serial_Dependence_U,2023.2.3,Win32,60.24096385550618,,,,,,1341.511199999988,77,2,1341.511300000012,77,,,,1345.438,1345.935199999988,1344.935800000012,1345.4378999999763,1342.5030000000002,1344.9356999999882,1345.935199999988,1346.4350999999642,1346.4350999999642,1348.2706999999882,1307,1348.2706999999882,2,1348.2760999999641,2,29,89,18,1,1.4,0.7,Time
,,743968,001,F,22,2025-06-01_20h45.43.692,Serial_Dependence_U,2023.2.3,Win32,60.24096385550618,,,,,,1348.2763000000118,261,3,1644.0521999999883,261,s,295.74580000001197,,1648.2133000000122,1648.7120999999643,1647.6991999999882,1648.2133000000122,1645.0503999999764,1647.6991999999882,1648.7120999999643,1649.212300000012,1649.212300000012,1651.2478999999762,1583,1651.248,3,1651.253599999964,3,0,90,29,1,1.6,0.7,Time
,,743968,001,F,22,2025-06-01_20h45.43.692,Serial_Dependence_U,2023.2.3,Win32,60.24096385550618,,,,,,1651.253899999976,356,3,1651.2545999999643,356,,,,1655.0136999999881,1655.5113999999762,1654.4970999999641,1655.0135999999643,1652.2645000000002,1654.4969999999998,1655.5113999999762,1656.011199999988,1656.011199999988,1657.580300000012,1075,1657.580300000012,2,1657.5858999999764,3,1,91,7,1,1.2,0.7,Time
,,743968,001,F,22,2025-06-01_20h45.43.692,Serial_Dependence_U,2023.2.3,Win32,60.24096385550618,,,,,,1657.5860000000002,126,3,1657.586099999964,126,,,,1661.1445999999642,1661.6320999999643,1660.6295999999643,1661.144399999976,1658.595199999988,1660.6295,1661.6320999999643,1662.1309999999999,1662.1309999999999,1663.7165,1067,1663.7165,4,1663.7221999999883,3,2,92,26,1,1,0.7,Time
,,743968,001,F,22,2025-06-01_20h45.43.692,Serial_Dependence_U,2023.2.3,Win32,60.24096385550618,,,,,,1663.7224999999999,303,3,1663.7225999999641,303,,,,1667.879,1668.3765999999641,1667.362300000012,1667.878899999976,1664.7288999999764,1667.3621999999882,1668.3765999999641,1668.8764999999999,1668.8764999999999,1670.8095999999641,1311,1670.8095999999641,2,1670.8155999999644,3,3,93,19,1,1.6,0.7,Time
,,743968,001,F,22,2025-06-01_20h45.43.692,Serial_Dependence_U,2023.2.3,Win32,60.24096385550618,,,,,,1670.8158000000121,311,3,1670.8158999999764,311,,,,1674.411,1674.909,1673.8928999999762,1674.4108999999762,1671.828,1673.8928999999762,1674.909,1675.409,1675.4090999999644,1677.0775999999641,1047,1677.0775999999641,3,1677.0828999999762,3,4,94,1,1,1,0.3,Time
,,743968,001,F,22,2025-06-01_20h45.43.692,Serial_Dependence_U,2023.2.3,Win32,60.24096385550618,,,,,,1677.0830999999644,354,3,1677.0830999999644,354,,,,1680.859,1681.3578999999763,1680.343699999988,1680.858899999976,1678.0773000000117,1680.3435999999642,1681.3578999999763,1681.8576999999882,1681.857800000012,1683.625300000012,1095,1683.6253999999763,2,1683.630899999976,3,5,95,2,1,1.2,0.3,Time
,,743968,001,F,22,2025-06-01_20h45.43.692,Serial_Dependence_U,2023.2.3,Win32,60.24096385550618,,,,,,1683.631199999988,292,3,1683.631199999988,292,,,,1687.0271999999882,1687.5263000000118,1686.5076999999883,1687.0270999999643,1684.6415000000002,1686.5076999999883,1687.5263000000118,1688.027300000012,1688.027300000012,1689.492699999988,837,1689.492699999988,3,1689.4980999999643,3,6,96,0,1,0.8,0.3,Time
,,743968,001,F,22,2025-06-01_20h45.43.692,Serial_Dependence_U,2023.2.3,Win32,60.24096385550618,,,,,,1689.498300000012,215,3,1689.4983999999763,215,,,,1692.8403000000121,1693.3415,1692.3271999999884,1692.8401999999883,1690.4938999999763,1692.3270999999645,1693.3415,1693.8396999999882,1693.839800000012,1695.3085999999644,900,1695.3086999999882,4,1695.314199999988,3,7,97,15,1,0.8,0.7,Time
,,743968,001,F,22,2025-06-01_20h45.43.692,Serial_Dependence_U,2023.2.3,Win32,60.24096385550618,,,,,,1695.314399999976,126,3,1695.314399999976,126,,,,1699.0560999999643,1699.5573000000118,1698.5398999999761,1699.056,1696.3068000000121,1698.5398999999761,1699.5573000000118,1700.0583999999762,1700.0583999999762,1701.7055,1125,1701.7055,2,1701.711099999964,3,8,98,27,1,1.2,0.7,Time
,,743968,001,F,22,2025-06-01_20h45.43.692,Serial_Dependence_U,2023.2.3,Win32,60.24096385550618,,,,,,1701.711399999976,32,3,1701.711399999976,32,,,,1705.306,1705.8049999999998,1704.7905999999643,1705.3058999999762,1702.7243000000121,1704.7905,1705.8049999999998,1706.3045000000002,1706.3045000000002,1706.872399999976,135,1706.8725,1,1706.8788000000118,3,9,99,21,1,1,0.3,Time
,,743968,001,F,22,2025-06-01_20h45.43.692,Serial_Dependence_U,2023.2.3,Win32,60.24096385550618,,,,,,1706.878899999976,218,3,1706.879,218,,,,1710.2580000000003,1710.7545,1709.7396999999883,1710.2578999999764,1707.8733999999763,1709.7395999999644,1710.7545999999643,1711.2583000000118,1711.2583000000118,1713.006399999976,1138,1713.0065,5,1713.0118999999763,3,10,100,10,1,0.8,0.3,Time
,,743968,001,F,22,2025-06-01_20h45.43.692,Serial_Dependence_U,2023.2.3,Win32,60.24096385550618,,,,,,1713.0120999999644,324,3,1713.0121999999883,324,,,,1716.354099999964,1716.8535999999644,1715.837800000012,1716.3538999999764,1714.0043999999762,1715.8376999999882,1716.8536999999883,1717.3533999999763,1717.3533999999763,1719.104099999964,1175,1719.104099999964,5,1719.109800000012,3,11,101,25,1,0.8,0.7,Time
,,743968,001,F,22,2025-06-01_20h45.43.692,Serial_Dependence_U,2023.2.3,Win32,60.24096385550618,,,,,,1719.1100000000001,283,3,1719.1100999999644,283,,,,1723.2545,1723.7525999999643,1722.7385,1723.2543999999762,1720.105,1722.738399999976,1723.7525999999643,1724.252800000012,1724.2528999999763,1726.1695,1296,1726.1695,2,1726.1750999999645,3,12,102,9,1,1.6,0.7,Time
,,743968,001,F,22,2025-06-01_20h45.43.692,Serial_Dependence_U,2023.2.3,Win32,60.24096385550618,,,,,,1726.1753000000122,142,3,1726.1753000000122,142,,,,1729.5190000000002,1730.0065,1729.0023999999762,1729.518800000012,1727.1708999999764,1729.0023999999762,1730.0065999999642,1730.501399999976,1730.501399999976,1731.9685,871,1731.9685999999642,4,1731.9741999999883,3,13,103,5,1,0.8,0.7,Time
,,743968,001,F,22,2025-06-01_20h45.43.692,Serial_Dependence_U,2023.2.3,Win32,60.24096385550618,,,,,,1731.9743999999764,169,3,1731.9745000000003,169,,,,1736.1515,1736.6508000000122,1735.636300000012,1736.151399999976,1732.970099999964,1735.636199999988,1736.6508000000122,1737.1505999999645,1737.1505999999645,1739.0835999999645,1307,1739.0835999999645,2,1739.0895,3,14,104,14,1,1.6,0.3,Time
,,743968,001,F,22,2025-06-01_20h45.43.692,Serial_Dependence_U,2023.2.3,Win32,60.24096385550618,,,,,,1739.089800000012,206,3,1739.0898999999763,206,,,,1743.0523999999764,1743.5503000000122,1742.5355999999642,1743.052300000012,1740.1011999999882,1742.5355999999642,1743.5503000000122,1744.049800000012,1744.0498999999763,1746.0500000000002,1291,1746.0500000000002,2,1746.056,3,15,105,8,1,1.4,0.7,Time
,,743968,001,F,22,2025-06-01_20h45.43.692,Serial_Dependence_U,2023.2.3,Win32,60.24096385550618,,,,,,1746.056300000012,76,3,1746.056300000012,76,,,,1749.4345999999641,1749.9325999999642,1748.921699999988,1749.4345999999641,1747.052899999976,1748.921699999988,1749.9325999999642,1750.432099999964,1750.432099999964,1751.884800000012,934,1751.8848999999764,4,1751.8915000000002,3,16,106,20,1,0.8,0.3,Time
,,743968,001,F,22,2025-06-01_20h45.43.692,Serial_Dependence_U,2023.2.3,Win32,60.24096385550618,,,,,,1751.8918000000122,242,3,1751.8918999999764,242,,,,1755.8335999999645,1756.3315000000002,1755.3158000000121,1755.8335999999645,1752.8828999999764,1755.3156999999883,1756.3315000000002,1756.8358999999764,1756.8360000000002,1758.6673999999762,1339,1758.6673999999762,3,1758.6730000000002,3,17,107,28,1,1.4,0.7,Time
,,743968,001,F,22,2025-06-01_20h45.43.692,Serial_Dependence_U,2023.2.3,Win32,60.24096385550618,,,,,,1758.6731999999884,228,3,1758.6733000000117,228,,,,1762.4480999999641,1762.9488999999762,1761.9310999999643,1762.4479999999999,1759.6665000000003,1761.931,1762.9488999999762,1763.447300000012,1763.447300000012,1765.363699999988,1172,1765.363699999988,3,1765.369699999988,3,18,108,12,1,1.2,0.3,Time
,,743968,001,F,22,2025-06-01_20h45.43.692,Serial_Dependence_U,2023.2.3,Win32,60.24096385550618,,,,,,1765.369899999976,148,3,1765.37,148,,,,1769.334699999988,1769.8305999999643,1768.8305,1769.3345999999642,1766.3670000000002,1768.8305,1769.8305999999643,1770.329899999976,1770.329899999976,1772.363199999988,1364,1772.363199999988,3,1772.369899999976,3,19,109,13,1,1.4,0.3,Time
,,743968,001,F,22,2025-06-01_20h45.43.692,Serial_Dependence_U,2023.2.3,Win32,60.24096385550618,,,,,,1772.3700999999642,304,3,1772.3700999999642,304,,,,1776.5645,1777.062,1776.047800000012,1776.564399999976,1773.3796999999881,1776.0476999999883,1777.062,1777.5510999999642,1777.5510999999642,1779.7975000000001,1466,1779.7975000000001,2,1779.803199999988,3,20,110,4,1,1.6,0.3,Time
,,743968,001,F,22,2025-06-01_20h45.43.692,Serial_Dependence_U,2023.2.3,Win32,60.24096385550618,,,,,,1779.8033999999761,158,3,1779.8035,158,,,,1783.381199999988,1783.878699999988,1782.878599999964,1783.3810999999641,1780.813899999976,1782.878599999964,1783.878699999988,1784.3778999999763,1784.3778999999763,1785.7804999999998,881,1785.7804999999998,2,1785.785800000012,3,21,111,11,1,1,0.3,Time
,,743968,001,F,22,2025-06-01_20h45.43.692,Serial_Dependence_U,2023.2.3,Win32,60.24096385550618,,,,,,1785.7858999999762,310,3,1785.7860999999643,310,,,,1789.7628000000118,1790.2605999999641,1789.246,1789.762699999988,1786.7800000000002,1789.246,1790.2605999999641,1790.760699999988,1790.760699999988,1792.930399999976,1496,1792.9305,4,1792.9363000000121,3,22,112,3,1,1.4,0.3,Time
,,743968,001,F,22,2025-06-01_20h45.43.692,Serial_Dependence_U,2023.2.3,Win32,60.24096385550618,,,,,,1792.9365000000003,326,3,1792.936599999964,326,,,,1796.8976999999882,1797.3983000000121,1796.3785000000003,1796.8976999999882,1793.943699999988,1796.3783999999764,1797.3983000000121,1797.896899999976,1797.896899999976,1799.7456999999881,1561,1799.745800000012,4,1799.7514999999999,3,23,113,18,1,1.4,0.7,Time
,,743968,001,F,22,2025-06-01_20h45.43.692,Serial_Dependence_U,2023.2.3,Win32,60.24096385550618,,,,,,1799.751699999988,207,3,1799.7518000000118,207,,,,1803.929,1804.4298000000122,1803.4123000000118,1803.9288999999762,1800.7440999999644,1803.4123000000118,1804.429899999976,1804.929300000012,1804.9293999999763,1807.3288999999763,1733,1807.3290000000002,4,1807.3388000000118,3,24,114,24,1,1.6,0.3,Time
,,743968,001,F,22,2025-06-01_20h45.43.692,Serial_Dependence_U,2023.2.3,Win32,60.24096385550618,,,,,,1807.339199999988,164,3,1807.3393999999762,164,,,,1810.8919999999998,1811.3908999999762,1810.3790999999642,1810.8918999999764,1808.3446999999883,1810.3790999999642,1811.3908999999762,1811.8961999999883,1811.8961999999883,1813.7746999999881,1312,1813.774800000012,5,1813.7836999999881,3,25,115,16,1,1,0.7,Time
,,743968,001,F,22,2025-06-01_20h45.43.692,Serial_Dependence_U,2023.2.3,Win32,60.24096385550618,,,,,,1813.784,311,3,1813.7841999999882,311,,,,1817.3410999999642,1817.8400000000001,1816.8240999999643,1817.341,1814.791599999964,1816.8240999999643,1817.8400000000001,1818.3401999999883,1818.3401999999883,1820.2938000000122,1117,1820.2938000000122,4,1820.2995,3,26,116,6,1,1,0.7,Time
,,743968,001,F,22,2025-06-01_20h45.43.692,Serial_Dependence_U,2023.2.3,Win32,60.24096385550618,,,,,,1820.2996999999882,107,3,1820.299800000012,107,,,,1824.0900000000001,1824.589,1823.5763999999763,1824.0898999999763,1821.307199999988,1823.576300000012,1824.589,1825.089,1825.089,1826.776699999988,1000,1826.776699999988,2,1826.7821999999883,3,27,117,22,1,1.2,0.3,Time
,,743968,001,F,22,2025-06-01_20h45.43.692,Serial_Dependence_U,2023.2.3,Win32,60.24096385550618,,,,,,1826.7823999999764,111,3,1826.7825000000003,111,,,,1830.5093999999763,1831.012599999964,1830.0085,1830.509300000012,1827.775899999976,1830.008399999976,1831.012699999988,1831.5141999999883,1831.5141999999883,1833.259800000012,1237,1833.259800000012,3,1833.2738000000118,3,28,118,17,1,1.2,0.7,Time
,,743968,001,F,22,2025-06-01_20h45.43.692,Serial_Dependence_U,2023.2.3,Win32,60.24096385550618,,,,,,1833.274199999988,284,3,1833.2743000000119,284,,,,1837.2743999999761,1837.7731999999883,1836.758800000012,1837.2743999999761,1834.2890999999645,1836.758800000012,1837.7731999999883,1838.2733000000121,1838.2733000000121,1840.325399999976,1500,1840.325399999976,4,1840.3398999999763,3,29,119,23,1,1.4,0.3,Time
,,743968,001,F,22,2025-06-01_20h45.43.692,Serial_Dependence_U,2023.2.3,Win32,60.24096385550618,,,,,,1840.3403999999764,333,4,2217.414599999964,333,s,377.03849999999966,,2221.590599999964,2222.090099999964,2221.0876999999878,2221.5905,2218.4244999999996,2221.087599999964,2222.090199999988,2222.586699999988,2222.586699999988,2224.787099999964,1524,2224.787300000012,3,2224.7933000000116,4,0,120,4,1,1.6,0.3,Time
,,743968,001,F,22,2025-06-01_20h45.43.692,Serial_Dependence_U,2023.2.3,Win32,60.24096385550618,,,,,,2224.793599999964,32,4,2224.7943999999757,32,,,,2228.556699999988,2229.053,2228.0533000000114,2228.556599999964,2225.790099999964,2228.053099999964,2229.053,2229.562,2229.5620999999637,2231.6073000000115,1317,2231.6073999999758,4,2231.622,4,1,121,22,1,1.2,0.3,Time
,,743968,001,F,22,2025-06-01_20h45.43.692,Serial_Dependence_U,2023.2.3,Win32,60.24096385550618,,,,,,2231.622300000012,23,4,2231.6224999999995,23,,,,2235.1966999999877,2235.688199999988,2234.6896999999876,2235.1966999999877,2232.6485,2234.689599999964,2235.688199999988,2236.1853000000115,2236.1853000000115,2238.074099999964,1200,2238.074099999964,4,2238.088199999988,4,2,122,6,1,1,0.7,Time
,,743968,001,F,22,2025-06-01_20h45.43.692,Serial_Dependence_U,2023.2.3,Win32,60.24096385550618,,,,,,2238.088699999988,44,4,2238.088800000012,44,,,,2241.838399999976,2242.3369999999995,2241.322199999988,2241.8383000000117,2239.088899999976,2241.322199999988,2242.3369999999995,2242.8369999999995,2242.8371999999877,2244.5883000000117,1183,2244.588399999976,3,2244.5935999999638,4,3,123,17,1,1.2,0.7,Time
,,743968,001,F,22,2025-06-01_20h45.43.692,Serial_Dependence_U,2023.2.3,Win32,60.24096385550618,,,,,,2244.5938999999757,151,4,2244.5939999999996,151,,,,2247.971099999964,2248.469399999976,2247.457199999988,2247.9709999999995,2245.588099999964,2247.457199999988,2248.469399999976,2248.9698000000117,2248.9698000000117,2250.47,915,2250.470099999964,4,2250.483899999976,4,4,124,20,1,0.8,0.3,Time
,,743968,001,F,22,2025-06-01_20h45.43.692,Serial_Dependence_U,2023.2.3,Win32,60.24096385550618,,,,,,2250.4844999999996,99,4,2250.484599999964,99,,,,2254.6363999999758,2255.132599999964,2254.120099999964,2254.6363999999758,2251.4874999999997,2254.12,2255.132599999964,2255.6358999999757,2255.6358999999757,2257.832599999964,1479,2257.8326999999877,2,2257.841599999964,4,5,125,29,1,1.6,0.7,Time
,,743968,001,F,22,2025-06-01_20h45.43.692,Serial_Dependence_U,2023.2.3,Win32,60.24096385550618,,,,,,2257.8419999999996,68,4,2257.8419999999996,68,,,,2261.7863000000116,2262.285199999988,2261.2746999999877,2261.7861999999877,2258.836599999964,2261.274599999964,2262.285199999988,2262.784199999988,2262.784199999988,2264.719399999976,1400,2264.719399999976,3,2264.727599999964,4,6,126,28,1,1.4,0.7,Time
,,743968,001,F,22,2025-06-01_20h45.43.692,Serial_Dependence_U,2023.2.3,Win32,60.24096385550618,,,,,,2264.7278999999758,257,4,2264.7279999999996,257,,,,2268.6853999999757,2269.1773000000117,2268.1715,2268.6853000000115,2265.736300000012,2268.1715,2269.1773000000117,2269.6741999999876,2269.6741999999876,2271.567899999976,1433,2271.567899999976,3,2271.576099999964,4,7,127,18,1,1.4,0.7,Time
,,743968,001,F,22,2025-06-01_20h45.43.692,Serial_Dependence_U,2023.2.3,Win32,60.24096385550618,,,,,,2271.576399999976,325,4,2271.5764999999997,325,,,,2275.1834999999996,2275.679599999964,2274.666899999976,2275.1833000000115,2272.601099999964,2274.666899999976,2275.679599999964,2276.1674999999996,2276.1674999999996,2278.084199999988,1137,2278.084300000012,4,2278.090399999976,4,8,128,11,1,1,0.3,Time
,,743968,001,F,22,2025-06-01_20h45.43.692,Serial_Dependence_U,2023.2.3,Win32,60.24096385550618,,,,,,2278.090599999964,341,4,2278.090699999988,341,,,,2281.6633000000115,2282.162099999964,2281.1501999999878,2281.663099999964,2279.099899999976,2281.150099999964,2282.162099999964,2282.662199999988,2282.662199999988,2284.4325,1150,2284.432599999964,4,2284.439199999988,4,9,129,26,1,1,0.7,Time
,,743968,001,F,22,2025-06-01_20h45.43.692,Serial_Dependence_U,2023.2.3,Win32,60.24096385550618,,,,,,2284.4393999999756,77,4,2284.4393999999756,77,,,,2287.7848000000117,2288.279399999976,2287.2825,2287.784699999988,2285.447599999964,2287.282399999976,2288.2794999999996,2288.7794999999996,2288.7794999999996,2290.195800000012,930,2290.195800000012,4,2290.204199999988,4,10,130,5,1,0.8,0.7,Time
,,743968,001,F,22,2025-06-01_20h45.43.692,Serial_Dependence_U,2023.2.3,Win32,60.24096385550618,,,,,,2290.2045,92,4,2290.204599999964,92,,,,2293.981599999964,2294.479399999976,2293.466,2293.9813000000117,2291.1991999999877,2293.4658000000118,2294.479399999976,2294.9849999999997,2294.9849999999997,2296.9543000000117,1139,2296.9543000000117,2,2296.968099999964,4,11,131,12,1,1.2,0.3,Time
,,743968,001,F,22,2025-06-01_20h45.43.692,Serial_Dependence_U,2023.2.3,Win32,60.24096385550618,,,,,,2296.9685999999638,115,4,2296.9686999999876,115,,,,2300.337399999976,2300.8273000000117,2299.8143999999756,2300.337399999976,2297.9799999999996,2299.814300000012,2300.8273000000117,2301.3171999999877,2301.3171999999877,2303.063599999964,916,2303.063699999988,4,2303.071899999976,4,12,132,25,1,0.8,0.7,Time
,,743968,001,F,22,2025-06-01_20h45.43.692,Serial_Dependence_U,2023.2.3,Win32,60.24096385550618,,,,,,2303.072199999988,130,4,2303.0723000000116,130,,,,2306.6449999999995,2307.142300000012,2306.1434999999997,2306.6449999999995,2304.097399999976,2306.143399999976,2307.142399999976,2307.646399999976,2307.646399999976,2309.2633999999757,1084,2309.263599999964,4,2309.270399999976,4,13,133,16,1,1,0.7,Time
,,743968,001,F,22,2025-06-01_20h45.43.692,Serial_Dependence_U,2023.2.3,Win32,60.24096385550618,,,,,,2309.2704999999996,4,4,2309.270599999964,4,,,,2312.6426999999876,2313.132599999964,2312.1293000000114,2312.6425999999637,2310.261599999964,2312.1290999999637,2313.132599999964,2313.6276999999877,2313.6276999999877,2315.4293000000116,1133,2315.429399999976,5,2315.4388000000117,4,14,134,0,1,0.8,0.3,Time
,,743968,001,F,22,2025-06-01_20h45.43.692,Serial_Dependence_U,2023.2.3,Win32,60.24096385550618,,,,,,2315.439099999964,202,4,2315.439300000012,202,,,,2319.0448999999758,2319.541399999976,2318.530699999988,2319.0448000000115,2316.464899999976,2318.530599999964,2319.541399999976,2320.041199999988,2320.0413000000117,2321.861099999964,1119,2321.861199999988,4,2321.875599999964,4,15,135,1,1,1,0.3,Time
,,743968,001,F,22,2025-06-01_20h45.43.692,Serial_Dependence_U,2023.2.3,Win32,60.24096385550618,,,,,,2321.876099999964,90,4,2321.876199999988,90,,,,2325.2445,2325.740399999976,2324.7298999999757,2325.244399999976,2322.894199999988,2324.7298000000114,2325.740399999976,2326.24,2326.24,2327.8948999999757,1069,2327.8948999999757,5,2327.909099999964,4,16,136,15,1,0.8,0.7,Time
,,743968,001,F,22,2025-06-01_20h45.43.692,Serial_Dependence_U,2023.2.3,Win32,60.24096385550618,,,,,,2327.9094999999998,202,4,2327.909699999988,202,,,,2332.0758000000114,2332.563699999988,2331.5603000000115,2332.0756999999876,2328.921300000012,2331.5601999999876,2332.5638000000117,2333.0563000000116,2333.056399999976,2335.2436999999877,1483,2335.2438000000116,2,2335.2523999999758,4,17,137,9,1,1.6,0.7,Time
,,743968,001,F,22,2025-06-01_20h45.43.692,Serial_Dependence_U,2023.2.3,Win32,60.24096385550618,,,,,,2335.252599999964,218,4,2335.2526999999877,218,,,,2339.442699999988,2339.9408000000117,2338.925699999988,2339.442599999964,2336.262899999976,2338.925699999988,2339.940899999976,2340.440699999988,2340.440699999988,2342.16,1183,2342.160199999988,2,2342.174399999976,4,18,138,14,1,1.6,0.3,Time
,,743968,001,F,22,2025-06-01_20h45.43.692,Serial_Dependence_U,2023.2.3,Win32,60.24096385550618,,,,,,2342.174899999976,327,4,2342.1749999999997,327,,,,2346.341899999976,2346.840599999964,2345.8308000000115,2346.3418000000115,2343.1961999999876,2345.8304999999996,2346.840599999964,2347.344099999964,2347.3441999999877,2349.7414999999996,1483,2349.7414999999996,2,2349.7504999999996,4,19,139,19,1,1.6,0.7,Time
,,743968,001,F,22,2025-06-01_20h45.43.692,Serial_Dependence_U,2023.2.3,Win32,60.24096385550618,,,,,,2349.750699999988,209,4,2349.7508000000116,209,,,,2353.5223000000115,2354.0224999999996,2353.0066999999876,2353.5221999999876,2350.742699999988,2353.006199999988,2354.0224999999996,2354.515099999964,2354.515099999964,2356.3038000000115,1122,2356.3038000000115,2,2356.3179999999998,4,20,140,2,1,1.2,0.3,Time
,,743968,001,F,22,2025-06-01_20h45.43.692,Serial_Dependence_U,2023.2.3,Win32,60.24096385550618,,,,,,2356.318399999976,272,4,2356.318599999964,272,,,,2359.903199999988,2360.4093000000116,2359.39,2359.903099999964,2357.323199999988,2359.389899999976,2360.4093000000116,2360.9021999999877,2360.9023000000116,2362.523599999964,1101,2362.523699999988,4,2362.532199999988,4,21,141,21,1,1,0.3,Time
,,743968,001,F,22,2025-06-01_20h45.43.692,Serial_Dependence_U,2023.2.3,Win32,60.24096385550618,,,,,,2362.532399999976,226,4,2362.5325,226,,,,2366.5215,2367.0179999999996,2366.005699999988,2366.5215,2363.538899999976,2366.005699999988,2367.0179999999996,2367.5246999999877,2367.5246999999877,2369.488399999976,1467,2369.488399999976,3,2369.494699999988,4,22,142,3,1,1.4,0.3,Time
,,743968,001,F,22,2025-06-01_20h45.43.692,Serial_Dependence_U,2023.2.3,Win32,60.24096385550618,,,,,,2369.494899999976,309,4,2369.494899999976,309,,,,2373.2543000000114,2373.750899999976,2372.7378000000117,2373.2541999999876,2370.4954999999995,2372.7378000000117,2373.750899999976,2374.2563999999757,2374.2564999999995,2376.423199999988,1334,2376.4233000000117,4,2376.4378000000115,4,23,143,27,1,1.2,0.7,Time
,,743968,001,F,22,2025-06-01_20h45.43.692,Serial_Dependence_U,2023.2.3,Win32,60.24096385550618,,,,,,2376.4383000000116,157,4,2376.438399999976,157,,,,2379.8243000000116,2380.3196999999877,2379.317599999964,2379.8241999999877,2377.451399999976,2379.317599999964,2380.3196999999877,2380.8329999999996,2380.8329999999996,2382.5499999999997,879,2382.550099999964,4,2382.5644999999995,4,24,144,10,1,0.8,0.3,Time
,,743968,001,F,22,2025-06-01_20h45.43.692,Serial_Dependence_U,2023.2.3,Win32,60.24096385550618,,,,,,2382.5648999999758,236,4,2382.5649999999996,236,,,,2386.553199999988,2387.0516999999877,2386.037,2386.553099999964,2383.5671999999877,2386.037,2387.0516999999877,2387.5575,2387.557599999964,2389.702800000012,1238,2389.7028999999757,2,2389.7113000000118,4,25,145,13,1,1.4,0.3,Time
,,743968,001,F,22,2025-06-01_20h45.43.692,Serial_Dependence_U,2023.2.3,Win32,60.24096385550618,,,,,,2389.711599999964,298,4,2389.711699999988,298,,,,2393.8880999999637,2394.3873000000117,2393.386599999964,2393.888,2390.7188000000115,2393.386599999964,2394.3873000000117,2394.881300000012,2394.8813999999757,2397.0983000000115,1676,2397.0983000000115,3,2397.1135,4,26,146,24,1,1.6,0.3,Time
,,743968,001,F,22,2025-06-01_20h45.43.692,Serial_Dependence_U,2023.2.3,Win32,60.24096385550618,,,,,,2397.1139999999996,75,4,2397.114099999964,75,,,,2401.086199999988,2401.58,2400.5678000000116,2401.086099999964,2398.1344999999997,2400.5678000000116,2401.58,2402.0868000000114,2402.0868000000114,2403.9858000000117,1401,2403.9858000000117,3,2403.9995999999637,4,27,147,8,1,1.4,0.7,Time
,,743968,001,F,22,2025-06-01_20h45.43.692,Serial_Dependence_U,2023.2.3,Win32,60.24096385550618,,,,,,2403.9998999999757,257,4,2403.9999999999995,257,,,,2407.767099999964,2408.265300000012,2407.2501999999877,2407.767099999964,2405.0054999999998,2407.250099999964,2408.265300000012,2408.755699999988,2408.7558000000117,2410.600899999976,1234,2410.600899999976,3,2410.6091999999876,4,28,148,7,1,1.2,0.7,Time
,,743968,001,F,22,2025-06-01_20h45.43.692,Serial_Dependence_U,2023.2.3,Win32,60.24096385550618,,,,,,2410.609599999964,311,4,2410.609599999964,311,,,,2414.5876999999878,2415.0848999999757,2414.083599999964,2414.587599999964,2411.619099999964,2414.083599999964,2415.0849999999996,2415.5809999999997,2415.5809999999997,2417.4828000000116,1417,2417.482899999976,3,2417.491399999976,4,29,149,23,1,1.4,0.3,Time
,,743968,001,F,22,2025-06-01_20h45.43.692,Serial_Dependence_U,2023.2.3,Win32,60.24096385550618,,,,,,2417.4916999999878,70,5,2662.135199999988,70,s,244.61980000001222,,2665.8993000000114,2666.3958000000116,2665.396199999988,2665.8993000000114,2663.132399999976,2665.396099999964,2666.3958000000116,2666.902699999988,2666.902699999988,2668.5829999999996,1267,2668.5829999999996,4,2668.5883000000117,5,0,150,2,1,1.2,0.3,Time
,,743968,001,F,22,2025-06-01_20h45.43.692,Serial_Dependence_U,2023.2.3,Win32,60.24096385550618,,,,,,2668.5885,336,5,2668.5891999999876,336,,,,2671.9374999999995,2672.4305999999638,2671.426599999964,2671.9373999999757,2669.581899999976,2671.426599999964,2672.4306999999876,2672.9356999999877,2672.9356999999877,2674.416899999976,993,2674.416899999976,4,2674.4308000000115,5,1,151,25,1,0.8,0.7,Time
,,743968,001,F,22,2025-06-01_20h45.43.692,Serial_Dependence_U,2023.2.3,Win32,60.24096385550618,,,,,,2674.4311999999877,170,5,2674.431399999976,170,,,,2677.9648000000116,2678.4629999999997,2677.462099999964,2677.9648000000116,2675.428899999976,2677.4618000000114,2678.4629999999997,2678.9629999999997,2678.9629999999997,2680.415099999964,950,2680.415099999964,2,2680.4288000000115,5,2,152,16,1,1,0.7,Time
,,743968,001,F,22,2025-06-01_20h45.43.692,Serial_Dependence_U,2023.2.3,Win32,60.24096385550618,,,,,,2680.4291999999878,45,5,2680.429399999976,45,,,,2684.379599999964,2684.876599999964,2683.878800000012,2684.3794999999996,2681.4441999999876,2683.878699999988,2684.876599999964,2685.376399999976,2685.376399999976,2687.3268000000116,1294,2687.326899999976,2,2687.340599999964,5,3,153,8,1,1.4,0.7,Time
,,743968,001,F,22,2025-06-01_20h45.43.692,Serial_Dependence_U,2023.2.3,Win32,60.24096385550618,,,,,,2687.340899999976,21,5,2687.341099999964,21,,,,2691.0964999999997,2691.594699999988,2690.5891999999876,2691.0964999999997,2688.346699999988,2690.5890999999638,2691.594699999988,2692.094599999964,2692.094699999988,2693.7819999999997,1186,2693.782099999964,3,2693.790599999964,5,4,154,17,1,1.2,0.7,Time
,,743968,001,F,22,2025-06-01_20h45.43.692,Serial_Dependence_U,2023.2.3,Win32,60.24096385550618,,,,,,2693.7908000000116,351,5,2693.7909999999997,351,,,,2697.195599999964,2697.696899999976,2696.6784999999995,2697.1955,2694.8123000000114,2696.6783999999757,2697.696899999976,2698.1939999999995,2698.194099999964,2699.631099999964,916,2699.631099999964,4,2699.6449999999995,5,5,155,10,1,0.8,0.3,Time
,,743968,001,F,22,2025-06-01_20h45.43.692,Serial_Dependence_U,2023.2.3,Win32,60.24096385550618,,,,,,2699.645399999976,37,5,2699.6454999999996,37,,,,2703.815399999976,2704.3101999999876,2703.311099999964,2703.8153000000116,2700.661699999988,2703.310899999976,2704.3101999999876,2704.813599999964,2704.813599999964,2706.9283000000114,1400,2706.9284999999995,2,2706.937,5,6,156,9,1,1.6,0.7,Time
,,743968,001,F,22,2025-06-01_20h45.43.692,Serial_Dependence_U,2023.2.3,Win32,60.24096385550618,,,,,,2706.9373000000114,190,5,2706.9373000000114,190,,,,2711.1118000000115,2711.6099999999997,2710.5989999999997,2711.1118000000115,2707.928,2710.598899999976,2711.6099999999997,2712.1094999999996,2712.1094999999996,2714.4145,1650,2714.4145,3,2714.4235,5,7,157,14,1,1.6,0.3,Time
,,743968,001,F,22,2025-06-01_20h45.43.692,Serial_Dependence_U,2023.2.3,Win32,60.24096385550618,,,,,,2714.423800000012,97,5,2714.4238999999757,97,,,,2718.025899999976,2718.521800000012,2717.509099999964,2718.0258000000117,2715.429099999964,2717.509099999964,2718.521800000012,2719.022,2719.022,2720.7768000000115,1184,2720.7768999999757,4,2720.791199999988,5,8,158,21,1,1,0.3,Time
,,743968,001,F,22,2025-06-01_20h45.43.692,Serial_Dependence_U,2023.2.3,Win32,60.24096385550618,,,,,,2720.791699999988,305,5,2720.792,305,,,,2724.791199999988,2725.287300000012,2724.275899999976,2724.791199999988,2721.809099999964,2724.275899999976,2725.287300000012,2725.790599999964,2725.790599999964,2727.5409999999997,1300,2727.541099999964,2,2727.548199999988,5,9,159,3,1,1.4,0.3,Time
,,743968,001,F,22,2025-06-01_20h45.43.692,Serial_Dependence_U,2023.2.3,Win32,60.24096385550618,,,,,,2727.548599999964,311,5,2727.548800000012,311,,,,2731.1008000000115,2731.589899999976,2730.593300000012,2731.1008000000115,2728.5578999999757,2730.593199999988,2731.589899999976,2732.087099999964,2732.087099999964,2733.824099999964,1188,2733.8241999999877,4,2733.838399999976,5,10,160,26,1,1,0.7,Time
,,743968,001,F,22,2025-06-01_20h45.43.692,Serial_Dependence_U,2023.2.3,Win32,60.24096385550618,,,,,,2733.838899999976,234,5,2733.8389999999995,234,,,,2737.787,2738.2773000000116,2737.273699999988,2737.786899999976,2734.840099999964,2737.2735,2738.2773000000116,2738.7698999999757,2738.7698999999757,2740.9399999999996,1499,2740.940099999964,4,2740.9488999999758,5,11,161,18,1,1.4,0.7,Time
,,743968,001,F,22,2025-06-01_20h45.43.692,Serial_Dependence_U,2023.2.3,Win32,60.24096385550618,,,,,,2740.949099999964,209,5,2740.9491999999877,209,,,,2745.137599999964,2745.642399999976,2744.6369999999997,2745.137599999964,2741.9691999999877,2744.6366999999877,2745.6425,2746.1478000000116,2746.1478000000116,2748.1694999999995,1446,2748.1694999999995,2,2748.183399999976,5,12,162,4,1,1.6,0.3,Time
,,743968,001,F,22,2025-06-01_20h45.43.692,Serial_Dependence_U,2023.2.3,Win32,60.24096385550618,,,,,,2748.1838000000116,52,5,2748.1839999999997,52,,,,2752.1743000000115,2752.6678000000115,2751.672399999976,2752.1741999999876,2749.193699999988,2751.6723000000115,2752.6678000000115,2753.173,2753.173,2754.8378000000116,1088,2754.8378000000116,2,2754.846599999964,5,13,163,23,1,1.4,0.3,Time
,,743968,001,F,22,2025-06-01_20h45.43.692,Serial_Dependence_U,2023.2.3,Win32,60.24096385550618,,,,,,2754.846899999976,33,5,2754.8469999999998,33,,,,2758.4383000000116,2758.9393999999756,2757.921,2758.4383000000116,2755.875599999964,2757.9208000000117,2758.9393999999756,2759.439199999988,2759.439199999988,2761.2005999999637,1157,2761.2005999999637,4,2761.2098999999757,5,14,164,6,1,1,0.7,Time
,,743968,001,F,22,2025-06-01_20h45.43.692,Serial_Dependence_U,2023.2.3,Win32,60.24096385550618,,,,,,2761.2101999999877,318,5,2761.2103000000116,318,,,,2765.1538999999757,2765.658899999976,2764.6499999999996,2765.1536999999876,2762.2083000000116,2764.6499999999996,2765.658899999976,2766.1566999999877,2766.1568000000116,2768.3354999999997,1590,2768.335599999964,4,2768.3439999999996,5,15,165,28,1,1.4,0.7,Time
,,743968,001,F,22,2025-06-01_20h45.43.692,Serial_Dependence_U,2023.2.3,Win32,60.24096385550618,,,,,,2768.3443000000116,22,5,2768.344399999976,22,,,,2772.5204999999996,2773.024899999976,2772.001699999988,2772.5204999999996,2769.354099999964,2772.001599999964,2773.024899999976,2773.5153999999757,2773.5154999999995,2775.6856999999877,1466,2775.6856999999877,2,2775.6943999999758,5,16,166,29,1,1.6,0.7,Time
,,743968,001,F,22,2025-06-01_20h45.43.692,Serial_Dependence_U,2023.2.3,Win32,60.24096385550618,,,,,,2775.6946999999877,190,5,2775.6948000000116,190,,,,2779.4671999999878,2779.9639999999995,2778.951099999964,2779.4671999999878,2776.705599999964,2778.9509999999996,2779.9639999999995,2780.4664999999995,2780.4664999999995,2782.101199999988,1066,2782.1013000000116,2,2782.1094999999996,5,17,167,7,1,1.2,0.7,Time
,,743968,001,F,22,2025-06-01_20h45.43.692,Serial_Dependence_U,2023.2.3,Win32,60.24096385550618,,,,,,2782.109899999976,263,5,2782.1099999999997,263,,,,2786.313199999988,2786.8129999999996,2785.801,2786.313199999988,2783.1336999999876,2785.800899999976,2786.813099999964,2787.3146999999876,2787.3148000000115,2789.4055,1272,2789.405599999964,2,2789.4199999999996,5,18,168,24,1,1.6,0.3,Time
,,743968,001,F,22,2025-06-01_20h45.43.692,Serial_Dependence_U,2023.2.3,Win32,60.24096385550618,,,,,,2789.4203000000116,275,5,2789.420399999976,275,,,,2793.2006999999876,2793.704699999988,2792.682099999964,2793.2006999999876,2790.4204999999997,2792.682099999964,2793.704699999988,2794.2005,2794.2005,2795.546,961,2795.546099999964,2,2795.554599999964,5,19,169,22,1,1.2,0.3,Time
,,743968,001,F,22,2025-06-01_20h45.43.692,Serial_Dependence_U,2023.2.3,Win32,60.24096385550618,,,,,,2795.555,97,5,2795.555,97,,,,2799.1321999999877,2799.627599999964,2798.617399999976,2799.132099999964,2796.547599999964,2798.6173000000117,2799.627599999964,2800.1276999999877,2800.127899999976,2801.2796999999878,697,2801.2798000000116,1,2801.2938000000117,5,20,170,11,1,1,0.3,Time
,,743968,001,F,22,2025-06-01_20h45.43.692,Serial_Dependence_U,2023.2.3,Win32,60.24096385550618,,,,,,2801.294300000012,158,5,2801.2944999999995,158,,,,2804.6663000000117,2805.160599999964,2804.1648999999757,2804.666199999988,2802.2953000000116,2804.164800000012,2805.1606999999876,2805.660300000012,2805.6603999999757,2806.896199999988,760,2806.8963000000117,2,2806.9083000000114,5,21,171,0,1,0.8,0.3,Time
,,743968,001,F,22,2025-06-01_20h45.43.692,Serial_Dependence_U,2023.2.3,Win32,60.24096385550618,,,,,,2806.908599999964,280,5,2806.9086999999877,280,,,,2810.7164999999995,2811.213599999964,2810.197199999988,2810.7163999999757,2807.934199999988,2810.197099999964,2811.213699999988,2811.716899999976,2811.7169999999996,2813.4473000000116,1249,2813.4473000000116,3,2813.462599999964,5,22,172,12,1,1.2,0.3,Time
,,743968,001,F,22,2025-06-01_20h45.43.692,Serial_Dependence_U,2023.2.3,Win32,60.24096385550618,,,,,,2813.4629999999997,63,5,2813.463099999964,63,,,,2816.809699999988,2817.312,2816.301,2816.8095,2814.4621999999877,2816.301,2817.312,2817.8089999999997,2817.809099999964,2818.996899999976,786,2818.997,3,2819.005399999976,5,23,173,15,1,0.8,0.7,Time
,,743968,001,F,22,2025-06-01_20h45.43.692,Serial_Dependence_U,2023.2.3,Win32,60.24096385550618,,,,,,2819.005699999988,279,5,2819.0058000000117,279,,,,2822.404099999964,2822.9015999999638,2821.8791999999876,2822.4039999999995,2820.0176999999876,2821.8791999999876,2822.9015999999638,2823.394399999976,2823.394399999976,2824.896599999964,767,2824.896599999964,3,2824.904899999976,5,24,174,20,1,0.8,0.3,Time
,,743968,001,F,22,2025-06-01_20h45.43.692,Serial_Dependence_U,2023.2.3,Win32,60.24096385550618,,,,,,2824.905199999988,358,5,2824.9053000000117,358,,,,2828.2478000000115,2828.746599999964,2827.745,2828.2478000000115,2825.911399999976,2827.744899999976,2828.746599999964,2829.2451999999876,2829.2451999999876,2830.394800000012,750,2830.3948999999757,2,2830.403,5,25,175,5,1,0.8,0.7,Time
,,743968,001,F,22,2025-06-01_20h45.43.692,Serial_Dependence_U,2023.2.3,Win32,60.24096385550618,,,,,,2830.4033000000118,16,5,2830.403399999976,16,,,,2834.1411999999877,2834.639899999976,2833.6278000000116,2834.141099999964,2831.3945,2833.6276999999877,2834.64,2835.145899999976,2835.145899999976,2836.957,1247,2836.957099999964,3,2836.9706999999876,5,26,176,27,1,1.2,0.7,Time
,,743968,001,F,22,2025-06-01_20h45.43.692,Serial_Dependence_U,2023.2.3,Win32,60.24096385550618,,,,,,2836.9711999999877,71,5,2836.9713000000115,71,,,,2841.1105,2841.611,2840.6096999999877,2841.110399999976,2837.976699999988,2840.609599999964,2841.611,2842.110899999976,2842.111,2844.0609999999997,1433,2844.061099999964,2,2844.0698000000116,5,27,177,19,1,1.6,0.7,Time
,,743968,001,F,22,2025-06-01_20h45.43.692,Serial_Dependence_U,2023.2.3,Win32,60.24096385550618,,,,,,2844.070099999964,302,5,2844.070199999988,302,,,,2847.644199999988,2848.137899999976,2847.141899999976,2847.644099999964,2845.0755,2847.1418000000117,2848.138,2848.637899999976,2848.637899999976,2849.9714999999997,1042,2849.971599999964,3,2849.9774999999995,5,28,178,1,1,1,0.3,Time
,,743968,001,F,22,2025-06-01_20h45.43.692,Serial_Dependence_U,2023.2.3,Win32,60.24096385550618,,,,,,2849.9776999999876,137,5,2849.9778000000115,137,,,,2853.9604999999997,2854.462899999976,2853.4550999999637,2853.960399999976,2850.991899999976,2853.4550999999637,2854.462899999976,2854.955,2854.955,2856.6915,1344,2856.6915,3,2856.700099999964,5,29,179,13,1,1.4,0.3,Time
,,743968,001,F,22,2025-06-01_20h45.43.692,Serial_Dependence_U,2023.2.3,Win32,60.24096385550618,,,,,,2856.700399999976,197,6,2950.6394999999998,197,s,93.90980000001218,,2954.379,2954.8808000000117,2953.878399999976,2954.379,2951.6454999999996,2953.8783000000117,2954.880899999976,2955.377899999976,2955.377899999976,2957.012399999976,1250,2957.0125,3,2957.021099999964,6,0,180,7,1,1.2,0.7,Time
,,743968,001,F,22,2025-06-01_20h45.43.692,Serial_Dependence_U,2023.2.3,Win32,60.24096385550618,,,,,,2957.0215,103,6,2957.0228000000116,103,,,,2961.0274999999997,2961.5249999999996,2960.511099999964,2961.0274999999997,2958.0443999999757,2960.5109999999995,2961.5249999999996,2962.023099999964,2962.023099999964,2964.173099999964,1292,2964.173199999988,2,2964.181099999964,6,1,181,23,1,1.4,0.3,Time
,,743968,001,F,22,2025-06-01_20h45.43.692,Serial_Dependence_U,2023.2.3,Win32,60.24096385550618,,,,,,2964.1813000000116,331,6,2964.1814999999997,331,,,,2967.5226999999877,2968.010699999988,2967.011099999964,2967.522599999964,2965.1769999999997,2967.011099999964,2968.010699999988,2968.505599999964,2968.505699999988,2969.875699999988,816,2969.875699999988,3,2969.881599999964,6,2,182,5,1,0.8,0.7,Time
,,743968,001,F,22,2025-06-01_20h45.43.692,Serial_Dependence_U,2023.2.3,Win32,60.24096385550618,,,,,,2969.8818000000115,311,6,2969.8818000000115,311,,,,2973.842699999988,2974.341099999964,2973.3393999999757,2973.842599999964,2970.8751999999877,2973.3393999999757,2974.3411999999876,2974.840899999976,2974.840899999976,2976.9098000000117,1368,2976.9098000000117,3,2976.918399999976,6,3,183,3,1,1.4,0.3,Time
,,743968,001,F,22,2025-06-01_20h45.43.692,Serial_Dependence_U,2023.2.3,Win32,60.24096385550618,,,,,,2976.918599999964,300,6,2976.918699999988,300,,,,2980.4948000000118,2980.9961999999878,2979.981800000012,2980.4948000000118,2977.915599999964,2979.981699999988,2980.9961999999878,2981.490099999964,2981.490199999988,2983.2543000000114,862,2983.2543999999757,2,2983.262800000012,6,4,184,1,1,1,0.3,Time
,,743968,001,F,22,2025-06-01_20h45.43.692,Serial_Dependence_U,2023.2.3,Win32,60.24096385550618,,,,,,2983.2630999999637,219,6,2983.2630999999637,219,,,,2987.259399999976,2987.7591999999877,2986.742599999964,2987.259399999976,2984.2713000000117,2986.7425,2987.7591999999877,2988.2533000000117,2988.253399999976,2989.741599999964,1084,2989.7416999999878,2,2989.7498000000114,6,5,185,13,1,1.4,0.3,Time
,,743968,001,F,22,2025-06-01_20h45.43.692,Serial_Dependence_U,2023.2.3,Win32,60.24096385550618,,,,,,2989.750099999964,129,6,2989.7501999999877,129,,,,2993.520099999964,2994.021099999964,2993.007899999976,2993.520099999964,2990.7614999999996,2993.0078000000117,2994.021099999964,2994.5220999999638,2994.5220999999638,2996.485699999988,1094,2996.485899999976,2,2996.4998000000114,6,6,186,27,1,1.2,0.7,Time
,,743968,001,F,22,2025-06-01_20h45.43.692,Serial_Dependence_U,2023.2.3,Win32,60.24096385550618,,,,,,2996.500099999964,67,6,2996.5003000000115,67,,,,3000.6703000000116,3001.173399999976,3000.1696999999876,3000.6701999999877,2997.5071999999877,3000.1693999999757,3001.173399999976,3001.6715,3001.6715,3003.844899999976,1622,3003.845,3,3003.8593999999757,6,7,187,4,1,1.6,0.3,Time
,,743968,001,F,22,2025-06-01_20h45.43.692,Serial_Dependence_U,2023.2.3,Win32,60.24096385550618,,,,,,3003.859899999976,280,6,3003.8599999999997,280,,,,3007.218099999964,3007.719899999976,3006.706599999964,3007.218,3004.858800000012,3006.706599999964,3007.719899999976,3008.220300000012,3008.220399999976,3009.8558000000116,885,3009.855899999976,4,3009.864099999964,6,8,188,15,1,0.8,0.7,Time
,,743968,001,F,22,2025-06-01_20h45.43.692,Serial_Dependence_U,2023.2.3,Win32,60.24096385550618,,,,,,3009.8643000000116,313,6,3009.864399999976,313,,,,3013.4371999999876,3013.9408000000117,3012.9345,3013.4370999999637,3010.867199999988,3012.9343000000117,3013.9408000000117,3014.4326999999876,3014.4328000000114,3016.5224999999996,1335,3016.5224999999996,5,3016.5364999999997,6,9,189,21,1,1,0.3,Time
,,743968,001,F,22,2025-06-01_20h45.43.692,Serial_Dependence_U,2023.2.3,Win32,60.24096385550618,,,,,,3016.536899999976,172,6,3016.537099999964,172,,,,3020.3269999999998,3020.819599999964,3019.8193999999758,3020.326899999976,3017.552399999976,3019.8193999999758,3020.8196999999877,3021.322699999988,3021.322899999976,3023.0533999999757,1200,3023.0533999999757,3,3023.062,6,10,190,12,1,1.2,0.3,Time
,,743968,001,F,22,2025-06-01_20h45.43.692,Serial_Dependence_U,2023.2.3,Win32,60.24096385550618,,,,,,3023.0623000000114,331,6,3023.0623000000114,331,,,,3026.6183999999757,3027.117599999964,3026.1048000000114,3026.6183999999757,3024.0685,3026.1048000000114,3027.117599999964,3027.6173000000117,3027.6173000000117,3029.251800000012,1133,3029.251800000012,4,3029.257899999976,6,11,191,6,1,1,0.7,Time
,,743968,001,F,22,2025-06-01_20h45.43.692,Serial_Dependence_U,2023.2.3,Win32,60.24096385550618,,,,,,3029.258,318,6,3029.258199999988,318,,,,3032.6263000000117,3033.124399999976,3032.1213000000116,3032.6263000000117,3030.251599999964,3032.1211999999878,3033.1245,3033.6141999999877,3033.6143000000116,3035.0309999999995,819,3035.0310999999638,3,3035.0401999999876,6,12,192,20,1,0.8,0.3,Time
,,743968,001,F,22,2025-06-01_20h45.43.692,Serial_Dependence_U,2023.2.3,Win32,60.24096385550618,,,,,,3035.0404999999996,223,6,3035.040599999964,223,,,,3038.3909999999996,3038.880599999964,3037.8839999999996,3038.3908999999758,3036.050800000012,3037.8838999999757,3038.880599999964,3039.3803000000116,3039.3803000000116,3040.529599999964,699,3040.529599999964,2,3040.5379999999996,6,13,193,25,1,0.8,0.7,Time
,,743968,001,F,22,2025-06-01_20h45.43.692,Serial_Dependence_U,2023.2.3,Win32,60.24096385550618,,,,,,3040.538399999976,256,6,3040.538399999976,256,,,,3044.7205,3045.215099999964,3044.200199999988,3044.720399999976,3041.554099999964,3044.200199999988,3045.215099999964,3045.719899999976,3045.72,3048.213199999988,1506,3048.213199999988,2,3048.2283000000116,6,14,194,9,1,1.6,0.7,Time
,,743968,001,F,22,2025-06-01_20h45.43.692,Serial_Dependence_U,2023.2.3,Win32,60.24096385550618,,,,,,3048.228899999976,210,6,3048.229099999964,210,,,,3051.823099999964,3052.3115,3051.299099999964,3051.823099999964,3049.230599999964,3051.299099999964,3052.3115,3052.8118000000118,3052.811899999976,3054.1670999999637,806,3054.1671999999876,2,3054.1809999999996,6,15,195,11,1,1,0.3,Time
,,743968,001,F,22,2025-06-01_20h45.43.692,Serial_Dependence_U,2023.2.3,Win32,60.24096385550618,,,,,,3054.181399999976,120,6,3054.181599999964,120,,,,3057.599199999988,3058.0943000000116,3057.0846999999876,3057.599199999988,3055.207099999964,3057.0845,3058.094399999976,3058.598099999964,3058.598099999964,3060.0646999999876,766,3060.0648999999758,3,3060.073099999964,6,16,196,10,1,0.8,0.3,Time
,,743968,001,F,22,2025-06-01_20h45.43.692,Serial_Dependence_U,2023.2.3,Win32,60.24096385550618,,,,,,3060.0733999999757,153,6,3060.073599999964,153,,,,3064.2789999999995,3064.7768999999757,3063.775399999976,3064.2789999999995,3061.097199999988,3063.7753000000116,3064.7769999999996,3065.2793000000115,3065.2793000000115,3067.4318000000117,1444,3067.431899999976,2,3067.446599999964,6,17,197,24,1,1.6,0.3,Time
,,743968,001,F,22,2025-06-01_20h45.43.692,Serial_Dependence_U,2023.2.3,Win32,60.24096385550618,,,,,,3067.4469999999997,233,6,3067.447099999964,233,,,,3071.229199999988,3071.7253000000114,3070.713199999988,3071.229199999988,3068.4469999999997,3070.713099999964,3071.7253000000114,3072.2253000000114,3072.2253999999757,3074.0158999999758,924,3074.0159999999996,2,3074.0298000000116,6,18,198,2,1,1.2,0.3,Time
,,743968,001,F,22,2025-06-01_20h45.43.692,Serial_Dependence_U,2023.2.3,Win32,60.24096385550618,,,,,,3074.030199999988,116,6,3074.030399999976,116,,,,3077.9803000000115,3078.482099999964,3077.4663999999757,3077.9801999999877,3075.033599999964,3077.4663999999757,3078.482099999964,3078.9778000000115,3078.9778999999758,3080.967699999988,1255,3080.9678000000117,2,3080.976199999988,6,19,199,28,1,1.4,0.7,Time
,,743968,001,F,22,2025-06-01_20h45.43.692,Serial_Dependence_U,2023.2.3,Win32,60.24096385550618,,,,,,3080.9764999999998,284,6,3080.976599999964,284,,,,3084.5109999999995,3085.012699999988,3084.007899999976,3084.510800000012,3081.976199999988,3084.007699999988,3085.012800000012,3085.5068000000115,3085.5068000000115,3087.344699999988,1284,3087.344699999988,4,3087.3500999999637,6,20,200,16,1,1,0.7,Time
,,743968,001,F,22,2025-06-01_20h45.43.692,Serial_Dependence_U,2023.2.3,Win32,60.24096385550618,,,,,,3087.3503000000114,17,6,3087.3503999999757,17,,,,3090.7101999999877,3091.2065,3090.2095999999638,3090.710099999964,3088.3436999999876,3090.2095999999638,3091.2065,3091.693800000012,3091.693800000012,3092.8099999999995,732,3092.8100999999638,2,3092.8191999999876,6,21,201,0,1,0.8,0.3,Time
,,743968,001,F,22,2025-06-01_20h45.43.692,Serial_Dependence_U,2023.2.3,Win32,60.24096385550618,,,,,,3092.8193999999758,193,6,3092.819599999964,193,,,,3096.3793000000114,3096.872099999964,3095.8585,3096.3793000000114,3093.8234999999995,3095.8585,3096.872099999964,3097.372,3097.372,3098.806099999964,804,3098.806099999964,2,3098.8134999999997,6,22,202,26,1,1,0.7,Time
,,743968,001,F,22,2025-06-01_20h45.43.692,Serial_Dependence_U,2023.2.3,Win32,60.24096385550618,,,,,,3098.8138000000117,356,6,3098.813899999976,356,,,,3102.542,3103.0378000000114,3102.0415,3102.541899999976,3099.8083000000115,3102.0415,3103.0378000000114,3103.540899999976,3103.540899999976,3105.2744999999995,1049,3105.2744999999995,2,3105.2799999999997,6,23,203,17,1,1.2,0.7,Time
,,743968,001,F,22,2025-06-01_20h45.43.692,Serial_Dependence_U,2023.2.3,Win32,60.24096385550618,,,,,,3105.280199999988,133,6,3105.2803000000117,133,,,,3109.0573000000118,3109.5544999999997,3108.5406999999877,3109.0573000000118,3106.2743999999757,3108.540599999964,3109.554599999964,3110.0534999999995,3110.0534999999995,3111.7958000000117,1200,3111.795899999976,3,3111.805199999988,6,24,204,22,1,1.2,0.3,Time
,,743968,001,F,22,2025-06-01_20h45.43.692,Serial_Dependence_U,2023.2.3,Win32,60.24096385550618,,,,,,3111.8054999999995,63,6,3111.8055999999638,63,,,,3115.9751999999876,3116.4698000000117,3115.457199999988,3115.9751999999876,3112.8210999999637,3115.457199999988,3116.4698000000117,3116.972099999964,3116.972199999988,3119.1904999999997,1608,3119.190699999988,3,3119.199099999964,6,25,205,19,1,1.6,0.7,Time
,,743968,001,F,22,2025-06-01_20h45.43.692,Serial_Dependence_U,2023.2.3,Win32,60.24096385550618,,,,,,3119.1993000000116,16,6,3119.199399999976,16,,,,3123.3624999999997,3123.852,3122.861199999988,3123.362399999976,3120.207,3122.861199999988,3123.852,3124.352,3124.352,3126.4068000000116,1518,3126.4068000000116,2,3126.421,6,26,206,29,1,1.6,0.7,Time
,,743968,001,F,22,2025-06-01_20h45.43.692,Serial_Dependence_U,2023.2.3,Win32,60.24096385550618,,,,,,3126.421399999976,204,6,3126.4215,204,,,,3130.6214999999997,3131.1179999999995,3130.109899999976,3130.621399999976,3127.4365,3130.1098000000115,3131.1179999999995,3131.6175,3131.6175,3133.5053000000116,1404,3133.5053000000116,2,3133.5136999999877,6,27,207,14,1,1.6,0.3,Time
,,743968,001,F,22,2025-06-01_20h45.43.692,Serial_Dependence_U,2023.2.3,Win32,60.24096385550618,,,,,,3133.5139999999997,268,6,3133.514099999964,268,,,,3137.490599999964,3137.9916999999878,3136.9705,3137.4905,3134.520399999976,3136.970399999976,3137.9916999999878,3138.485899999976,3138.486,3140.6001999999876,1350,3140.6003000000114,3,3140.6153000000118,6,28,208,8,1,1.4,0.7,Time
,,743968,001,F,22,2025-06-01_20h45.43.692,Serial_Dependence_U,2023.2.3,Win32,60.24096385550618,,,,,,3140.615699999988,150,6,3140.6158000000114,150,,,,3144.553,3145.050899999976,3144.051899999976,3144.553,3141.619899999976,3144.0518000000116,3145.050899999976,3145.548800000012,3145.5488999999757,3147.4173999999757,1347,3147.4173999999757,3,3147.422699999988,6,29,209,18,1,1.4,0.7,Time
,,743968,001,F,22,2025-06-01_20h45.43.692,Serial_Dependence_U,2023.2.3,Win32,60.24096385550618,,,,,,3147.422899999976,304,7,3397.9903000000118,304,s,250.54949999999963,,3401.550899999976,3402.048599999964,3401.0330999999637,3401.550899999976,3399.001599999964,3401.033,3402.048699999988,3402.551,3402.5510999999638,3404.5184999999997,1401,3404.518599999964,5,3404.523899999976,7,0,210,16,1,1,0.7,Time
,,743968,001,F,22,2025-06-01_20h45.43.692,Serial_Dependence_U,2023.2.3,Win32,60.24096385550618,,,,,,3404.524099999964,286,7,3404.525399999976,286,,,,3408.7163999999757,3409.2161999999876,3408.200300000012,3408.7163999999757,3405.532099999964,3408.200300000012,3409.2161999999876,3409.7164999999995,3409.7164999999995,3411.8475,1526,3411.847599999964,3,3411.853099999964,7,1,211,24,1,1.6,0.3,Time
,,743968,001,F,22,2025-06-01_20h45.43.692,Serial_Dependence_U,2023.2.3,Win32,60.24096385550618,,,,,,3411.8533000000116,23,7,3411.853399999976,23,,,,3415.231199999988,3415.730699999988,3414.718099999964,3415.231199999988,3412.8483000000115,3414.718099999964,3415.730699999988,3416.2301999999877,3416.2303000000115,3417.633199999988,900,3417.633199999988,4,3417.6386999999877,7,2,212,10,1,0.8,0.3,Time
,,743968,001,F,22,2025-06-01_20h45.43.692,Serial_Dependence_U,2023.2.3,Win32,60.24096385550618,,,,,,3417.638899999976,261,7,3417.639099999964,261,,,,3421.7985,3422.295699999988,3421.2965,3421.798399999976,3418.632899999976,3421.296399999976,3422.295699999988,3422.797599999964,3422.797599999964,3424.782800000012,1299,3424.782899999976,2,3424.7888000000116,7,3,213,14,1,1.6,0.3,Time
,,743968,001,F,22,2025-06-01_20h45.43.692,Serial_Dependence_U,2023.2.3,Win32,60.24096385550618,,,,,,3424.7889999999998,332,7,3424.789099999964,332,,,,3428.580899999976,3429.079099999964,3428.065599999964,3428.580899999976,3425.796300000012,3428.065599999964,3429.079099999964,3429.5809999999997,3429.5809999999997,3431.1116999999876,1113,3431.1116999999876,2,3431.1180999999638,7,4,214,2,1,1.2,0.3,Time
,,743968,001,F,22,2025-06-01_20h45.43.692,Serial_Dependence_U,2023.2.3,Win32,60.24096385550618,,,,,,3431.1183000000115,313,7,3431.1183999999757,313,,,,3435.0496999999878,3435.5444999999995,3434.5468000000114,3435.0496999999878,3432.1136999999876,3434.5468000000114,3435.5444999999995,3436.045899999976,3436.045899999976,3437.878399999976,1326,3437.878599999964,2,3437.8841999999877,7,5,215,18,1,1.4,0.7,Time
,,743968,001,F,22,2025-06-01_20h45.43.692,Serial_Dependence_U,2023.2.3,Win32,60.24096385550618,,,,,,3437.8843000000115,96,7,3437.884399999976,96,,,,3441.245899999976,3441.7434999999996,3440.7298000000114,3441.245899999976,3438.880699999988,3440.7298000000114,3441.7434999999996,3442.244399999976,3442.244399999976,3443.645899999976,817,3443.6459999999997,3,3443.651399999976,7,6,216,25,1,0.8,0.7,Time
,,743968,001,F,22,2025-06-01_20h45.43.692,Serial_Dependence_U,2023.2.3,Win32,60.24096385550618,,,,,,3443.6514999999995,217,7,3443.6515999999638,217,,,,3447.2099999999996,3447.7118999999757,3446.6935,3447.2098999999757,3444.645899999976,3446.693399999976,3447.7118999999757,3448.209,3448.209,3449.8951999999877,933,3449.8951999999877,2,3449.9004999999997,7,7,217,26,1,1,0.7,Time
,,743968,001,F,22,2025-06-01_20h45.43.692,Serial_Dependence_U,2023.2.3,Win32,60.24096385550618,,,,,,3449.9008000000117,30,7,3449.900899999976,30,,,,3453.6631999999877,3454.1588000000115,3453.1445,3453.663099999964,3450.8954999999996,3453.144399999976,3454.158899999976,3454.6588000000115,3454.6588000000115,3456.4113000000116,1244,3456.411399999976,3,3456.417,7,8,218,7,1,1.2,0.7,Time
,,743968,001,F,22,2025-06-01_20h45.43.692,Serial_Dependence_U,2023.2.3,Win32,60.24096385550618,,,,,,3456.4173000000114,45,7,3456.4173000000114,45,,,,3460.543699999988,3461.0426999999877,3460.041599999964,3460.543699999988,3457.4103999999757,3460.0415,3461.0426999999877,3461.544199999988,3461.544199999988,3463.3075,1311,3463.3075,2,3463.313599999964,7,9,219,19,1,1.6,0.7,Time
,,743968,001,F,22,2025-06-01_20h45.43.692,Serial_Dependence_U,2023.2.3,Win32,60.24096385550618,,,,,,3463.3138000000117,53,7,3463.313899999976,53,,,,3466.691,3467.193399999976,3466.176,3466.6908000000117,3464.308099999964,3466.176,3467.193399999976,3467.692699999988,3467.692699999988,3469.457,1237,3469.457099999964,5,3469.4624999999996,7,10,220,20,1,0.8,0.3,Time
,,743968,001,F,22,2025-06-01_20h45.43.692,Serial_Dependence_U,2023.2.3,Win32,60.24096385550618,,,,,,3469.4628000000116,123,7,3469.462899999976,123,,,,3473.439599999964,3473.939199999988,3472.926899999976,3473.4394999999995,3470.457099999964,3472.926899999976,3473.939300000012,3474.4388000000117,3474.4388000000117,3476.122300000012,1196,3476.122300000012,2,3476.127899999976,7,11,221,13,1,1.4,0.3,Time
,,743968,001,F,22,2025-06-01_20h45.43.692,Serial_Dependence_U,2023.2.3,Win32,60.24096385550618,,,,,,3476.1279999999997,280,7,3476.128199999988,280,,,,3480.288899999976,3480.7883000000115,3479.774099999964,3480.288899999976,3477.1398000000117,3479.774,3480.788399999976,3481.2884999999997,3481.288599999964,3483.1381999999876,1341,3483.1381999999876,2,3483.144599999964,7,12,222,29,1,1.6,0.7,Time
,,743968,001,F,22,2025-06-01_20h45.43.692,Serial_Dependence_U,2023.2.3,Win32,60.24096385550618,,,,,,3483.144699999988,91,7,3483.1448999999757,91,,,,3487.091599999964,3487.5893000000115,3486.5908000000118,3487.0914999999995,3484.1566999999877,3486.590599999964,3487.5893000000115,3488.0911999999876,3488.0911999999876,3489.803899999976,1294,3489.8039999999996,2,3489.809599999964,7,13,223,8,1,1.4,0.7,Time
,,743968,001,F,22,2025-06-01_20h45.43.692,Serial_Dependence_U,2023.2.3,Win32,60.24096385550618,,,,,,3489.809800000012,151,7,3489.809800000012,151,,,,3493.5413000000117,3494.0401999999876,3493.0399999999995,3493.5413000000117,3490.804699999988,3493.0398999999757,3494.0401999999876,3494.536399999976,3494.5364999999997,3496.236599999964,1089,3496.2368000000115,2,3496.242800000012,7,14,224,17,1,1.2,0.7,Time
,,743968,001,F,22,2025-06-01_20h45.43.692,Serial_Dependence_U,2023.2.3,Win32,60.24096385550618,,,,,,3496.2429999999995,117,7,3496.2430999999638,117,,,,3500.1868000000118,3500.686199999988,3499.6716999999876,3500.1868000000118,3497.24,3499.6716999999876,3500.686199999988,3501.185599999964,3501.1856999999877,3502.6383999999757,906,3502.6384999999996,1,3502.644199999988,7,15,225,28,1,1.4,0.7,Time
,,743968,001,F,22,2025-06-01_20h45.43.692,Serial_Dependence_U,2023.2.3,Win32,60.24096385550618,,,,,,3502.6443000000118,74,7,3502.644399999976,74,,,,3505.9869999999996,3506.4866999999876,3505.4711999999877,3505.9869999999996,3503.638,3505.4709999999995,3506.4866999999876,3506.9893000000116,3506.9893000000116,3508.668699999988,1115,3508.6688000000117,5,3508.674399999976,7,16,226,15,1,0.8,0.7,Time
,,743968,001,F,22,2025-06-01_20h45.43.692,Serial_Dependence_U,2023.2.3,Win32,60.24096385550618,,,,,,3508.674599999964,200,7,3508.674599999964,200,,,,3512.8028000000118,3513.300699999988,3512.3011999999876,3512.8028000000118,3509.668399999976,3512.301,3513.300699999988,3513.800899999976,3513.800899999976,3515.718099999964,1435,3515.718099999964,2,3515.7234999999996,7,17,227,9,1,1.6,0.7,Time
,,743968,001,F,22,2025-06-01_20h45.43.692,Serial_Dependence_U,2023.2.3,Win32,60.24096385550618,,,,,,3515.7236999999877,273,7,3515.723899999976,273,,,,3519.0871999999877,3519.583399999976,3518.584300000012,3519.0871999999877,3516.721699999988,3518.584199999988,3519.583399999976,3520.083099999964,3520.083099999964,3521.4505,824,3521.4505999999637,3,3521.456199999988,7,18,228,0,1,0.8,0.3,Time
,,743968,001,F,22,2025-06-01_20h45.43.692,Serial_Dependence_U,2023.2.3,Win32,60.24096385550618,,,,,,3521.4565,217,7,3521.456599999964,217,,,,3525.184599999964,3525.682599999964,3524.6826999999876,3525.1845,3522.451899999976,3524.6826999999876,3525.6826999999876,3526.182399999976,3526.1825,3527.685599999964,1029,3527.685599999964,2,3527.691099999964,7,19,229,27,1,1.2,0.7,Time
,,743968,001,F,22,2025-06-01_20h45.43.692,Serial_Dependence_U,2023.2.3,Win32,60.24096385550618,,,,,,3527.691399999976,197,7,3527.691399999976,197,,,,3531.465699999988,3531.965099999964,3530.951899999976,3531.465599999964,3528.6826999999876,3530.951899999976,3531.965099999964,3532.4646999999877,3532.4646999999877,3533.9649999999997,972,3533.965099999964,2,3533.9706999999876,7,20,230,12,1,1.2,0.3,Time
,,743968,001,F,22,2025-06-01_20h45.43.692,Serial_Dependence_U,2023.2.3,Win32,60.24096385550618,,,,,,3533.9708999999757,217,7,3533.9709999999995,217,,,,3537.551899999976,3538.0505,3537.0336999999877,3537.551899999976,3534.965399999976,3537.033599999964,3538.0505,3538.5493000000115,3538.549399999976,3540.166899999976,923,3540.166899999976,2,3540.1721999999877,7,21,231,11,1,1,0.3,Time
,,743968,001,F,22,2025-06-01_20h45.43.692,Serial_Dependence_U,2023.2.3,Win32,60.24096385550618,,,,,,3540.1724999999997,209,7,3540.1724999999997,209,,,,3543.7488000000117,3544.2468000000117,3543.231199999988,3543.748699999988,3541.1658000000116,3543.231099999964,3544.2468000000117,3544.746699999988,3544.7468000000117,3546.7825,1130,3546.782599999964,4,3546.7878999999757,7,22,232,1,1,1,0.3,Time
,,743968,001,F,22,2025-06-01_20h45.43.692,Serial_Dependence_U,2023.2.3,Win32,60.24096385550618,,,,,,3546.7881999999877,70,7,3546.7883000000115,70,,,,3550.563199999988,3551.0623999999757,3550.048199999988,3550.563099999964,3547.7816999999877,3550.048099999964,3551.0623999999757,3551.5620999999637,3551.5621999999876,3553.265,1091,3553.265,2,3553.2706999999878,7,23,233,22,1,1.2,0.3,Time
,,743968,001,F,22,2025-06-01_20h45.43.692,Serial_Dependence_U,2023.2.3,Win32,60.24096385550618,,,,,,3553.270899999976,54,7,3553.2709999999997,54,,,,3557.445699999988,3557.9448000000116,3556.9308000000115,3557.445599999964,3554.263,3556.9308000000115,3557.944899999976,3558.444599999964,3558.4446999999877,3560.611599999964,1599,3560.6116999999876,3,3560.617399999976,7,24,234,4,1,1.6,0.3,Time
,,743968,001,F,22,2025-06-01_20h45.43.692,Serial_Dependence_U,2023.2.3,Win32,60.24096385550618,,,,,,3560.617699999988,21,7,3560.617800000012,21,,,,3564.5969999999998,3565.0943000000116,3564.096699999988,3564.5969999999998,3561.628599999964,3564.0964999999997,3565.094399999976,3565.5978999999757,3565.5979999999995,3567.6438000000117,1447,3567.6438000000117,3,3567.649599999964,7,25,235,23,1,1.4,0.3,Time
,,743968,001,F,22,2025-06-01_20h45.43.692,Serial_Dependence_U,2023.2.3,Win32,60.24096385550618,,,,,,3567.6498000000115,59,7,3567.649899999976,59,,,,3571.243899999976,3571.7429999999995,3570.728699999988,3571.2438000000116,3568.662300000012,3570.728699999988,3571.7429999999995,3572.248599999964,3572.248599999964,3573.8596999999877,1097,3573.8596999999877,4,3573.865199999988,7,26,236,21,1,1,0.3,Time
,,743968,001,F,22,2025-06-01_20h45.43.692,Serial_Dependence_U,2023.2.3,Win32,60.24096385550618,,,,,,3573.865399999976,262,7,3573.8655,262,,,,3577.4289999999996,3577.931399999976,3576.9098000000117,3577.428899999976,3574.8638000000115,3576.909699999988,3577.931399999976,3578.429699999988,3578.429699999988,3580.0088999999757,1125,3580.0089999999996,4,3580.015199999988,7,27,237,6,1,1,0.7,Time
,,743968,001,F,22,2025-06-01_20h45.43.692,Serial_Dependence_U,2023.2.3,Win32,60.24096385550618,,,,,,3580.0154999999995,301,7,3580.015599999964,301,,,,3583.3605,3583.8598000000115,3582.842099999964,3583.360399999976,3581.0085999999637,3582.842099999964,3583.8598000000115,3584.358599999964,3584.358699999988,3585.743899999976,893,3585.743899999976,4,3585.7493000000118,7,28,238,5,1,0.8,0.7,Time
,,743968,001,F,22,2025-06-01_20h45.43.692,Serial_Dependence_U,2023.2.3,Win32,60.24096385550618,,,,,,3585.7495,14,7,3585.7495,14,,,,3589.741399999976,3590.2405,3589.2299999999996,3589.7413000000115,3586.758199999988,3589.2299999999996,3590.2405,3590.7414999999996,3590.741599999964,3592.940599999964,1497,3592.940699999988,4,3592.946899999976,7,29,239,3,1,1.4,0.3,Time
,,743968,001,F,22,2025-06-01_20h45.43.692,Serial_Dependence_U,2023.2.3,Win32,60.24096385550618,,,,,,3592.947099999964,96,8,4028.439099999964,96,s,435.46349999999984,,4032.5825999999643,4033.0723000000116,4032.0716999999877,4032.5824999999995,4029.435899999976,4032.0716999999877,4033.0723000000116,4033.565899999976,4033.5660999999636,4035.4851999999873,1455,4035.4851999999873,2,4035.4906999999876,8,0,240,9,1,1.6,0.7,Time
,,743968,001,F,22,2025-06-01_20h45.43.692,Serial_Dependence_U,2023.2.3,Win32,60.24096385550618,,,,,,4035.491,80,8,4035.4918000000116,80,,,,4039.417300000012,4039.914899999976,4038.9156999999877,4039.417099999964,4036.4825,4038.915599999964,4039.914899999976,4040.415,4040.415099999964,4042.215199999988,1353,4042.2153000000117,3,4042.2208999999757,8,1,241,28,1,1.4,0.7,Time
,,743968,001,F,22,2025-06-01_20h45.43.692,Serial_Dependence_U,2023.2.3,Win32,60.24096385550618,,,,,,4042.2210999999643,264,8,4042.221199999988,264,,,,4045.567,4046.065800000011,4045.0644999999995,4045.567,4043.2333999999755,4045.0643999999756,4046.065800000011,4046.5638999999755,4046.5639999999994,4048.0971999999874,914,4048.0973000000113,4,4048.1026999999876,8,2,242,25,1,0.8,0.7,Time
,,743968,001,F,22,2025-06-01_20h45.43.692,Serial_Dependence_U,2023.2.3,Win32,60.24096385550618,,,,,,4048.102899999976,104,8,4048.103,104,,,,4051.6816999999874,4052.1799999999994,4051.1639999999998,4051.6816999999874,4049.100800000012,4051.163899999976,4052.180099999964,4052.6798999999755,4052.6798999999755,4054.083899999976,915,4054.083899999976,2,4054.0893000000115,8,3,243,21,1,1,0.3,Time
,,743968,001,F,22,2025-06-01_20h45.43.692,Serial_Dependence_U,2023.2.3,Win32,60.24096385550618,,,,,,4054.0895,298,8,4054.089599999964,298,,,,4057.4646999999877,4057.962800000012,4056.9483999999757,4057.4646999999877,4055.0818999999756,4056.948199999988,4057.962899999976,4058.4645,4058.4645,4059.915,886,4059.915,4,4059.920699999988,8,4,244,20,1,0.8,0.3,Time
,,743968,001,F,22,2025-06-01_20h45.43.692,Serial_Dependence_U,2023.2.3,Win32,60.24096385550618,,,,,,4059.9208999999755,189,8,4059.9209999999994,189,,,,4063.462800000012,4063.961800000012,4062.9489999999996,4063.462699999988,4060.9148000000114,4062.9489999999996,4063.961800000012,4064.4631999999874,4064.4631999999874,4065.944899999976,1045,4065.9449999999997,3,4065.9513000000115,8,5,245,6,1,1,0.7,Time
,,743968,001,F,22,2025-06-01_20h45.43.692,Serial_Dependence_U,2023.2.3,Win32,60.24096385550618,,,,,,4065.951599999964,146,8,4065.951599999964,146,,,,4069.312,4069.810899999976,4068.796699999988,4069.3116999999875,4066.9614999999994,4068.796699999988,4069.810899999976,4070.312599999964,4070.312599999964,4071.663899999976,844,4071.6639999999998,4,4071.6693000000114,8,6,246,5,1,0.8,0.7,Time
,,743968,001,F,22,2025-06-01_20h45.43.692,Serial_Dependence_U,2023.2.3,Win32,60.24096385550618,,,,,,4071.669399999976,245,8,4071.6695,245,,,,4075.627699999988,4076.1281999999874,4075.1124999999993,4075.627699999988,4072.663199999988,4075.1124999999993,4076.128300000011,4076.627800000012,4076.627800000012,4078.662599999964,1432,4078.662699999988,3,4078.6680999999644,8,7,247,18,1,1.4,0.7,Time
,,743968,001,F,22,2025-06-01_20h45.43.692,Serial_Dependence_U,2023.2.3,Win32,60.24096385550618,,,,,,4078.668300000011,114,8,4078.668300000011,114,,,,4082.6483000000117,4083.1423000000113,4082.1269999999995,4082.648199999988,4079.6605,4082.1269999999995,4083.1423000000113,4083.642399999976,4083.642399999976,4085.3593999999757,1205,4085.3594999999996,2,4085.3655,8,8,248,23,1,1.4,0.3,Time
,,743968,001,F,22,2025-06-01_20h45.43.692,Serial_Dependence_U,2023.2.3,Win32,60.24096385550618,,,,,,4085.3656999999876,288,8,4085.3658000000114,288,,,,4089.127800000012,4089.625,4088.6108000000113,4089.127800000012,4086.377300000012,4088.6106999999874,4089.625099999964,4090.125099999964,4090.1251999999877,4091.7249999999995,1129,4091.725099999964,2,4091.7309999999998,8,9,249,7,1,1.2,0.7,Time
,,743968,001,F,22,2025-06-01_20h45.43.692,Serial_Dependence_U,2023.2.3,Win32,60.24096385550618,,,,,,4091.7310999999636,195,8,4091.7311999999874,195,,,,4095.4766999999874,4095.9743999999755,4094.9613000000118,4095.4764999999998,4092.727,4094.9613000000118,4095.9743999999755,4096.479399999976,4096.479399999976,4098.041300000012,1118,4098.041499999999,2,4098.047099999964,8,10,250,17,1,1.2,0.7,Time
,,743968,001,F,22,2025-06-01_20h45.43.692,Serial_Dependence_U,2023.2.3,Win32,60.24096385550618,,,,,,4098.047399999976,352,8,4098.047399999976,352,,,,4101.809099999964,4102.3065999999635,4101.292199999988,4101.809099999964,4099.057599999964,4101.292199999988,4102.3065999999635,4102.8065999999635,4102.8065999999635,4104.3566999999875,1070,4104.356800000011,2,4104.3628999999755,8,11,251,27,1,1.2,0.7,Time
,,743968,001,F,22,2025-06-01_20h45.43.692,Serial_Dependence_U,2023.2.3,Win32,60.24096385550618,,,,,,4104.363099999964,157,8,4104.363199999988,157,,,,4107.928599999964,4108.428300000011,4107.408800000012,4107.928599999964,4105.360399999976,4107.408800000012,4108.428300000011,4108.922399999976,4108.922399999976,4110.422399999976,1053,4110.4225,4,4110.4285,8,12,252,26,1,1,0.7,Time
