Scale_setup.started,Scale_setup.stopped,participant,session,sex,age,date,expName,psychopyVersion,OS,frameRate,Intro.started,Intro.stopped,key_resp_2.keys,key_resp_2.rt,key_resp_2.duration,block.started,direction,Block_id,block.stopped,trial_direction,Block_resp_2.keys,Block_resp_2.rt,Block_resp_2.duration,ITI.started,ITI.stopped,Mask_2.started,Mask_2.stopped,encoding.started,encoding.stopped,Cue.started,Cue.stopped,Response.started,Response.stopped,keyDuration,Feedback_Time.started,FeedbackID_T,Feedback_Time.stopped,trials.thisRepN,trials.thisTrialN,trials.thisN,trials.thisIndex,trials.ran,TimeDur,Coherence1,TrialType
0.0003000000119186552,0.0006000000238373104,768696,001,女,22,2025-06-04_12h58.53.563,Serial_Dependence_U,2023.2.3,Win32,59.523809523799216,,,,,,,,,,,,,,,,,,,,,,,,,,,,,,,,,,,
,,768696,001,女,22,2025-06-04_12h58.53.563,Serial_Dependence_U,2023.2.3,Win32,59.523809523799216,493.5941000000238,607.5079999999999,space,113.86860000002378,,,,,,,,,,,,,,,,,,,,,,,,,,,,,,,
,,768696,001,女,22,2025-06-04_12h58.53.563,Serial_Dependence_U,2023.2.3,Win32,59.523809523799216,,,,,,607.5172000000476,3,0,629.2396000000238,3,s,21.693600000023935,,632.6111000000238,633.1113000000119,632.0939000000358,632.6109000000357,630.259,632.0938000000119,633.1117000000477,633.6122000000477,633.6125,681.4154000000357,371,681.4162000000476,1,682.4163000000119,0,0,0,5,1,0.8,0.7,Time
,,768696,001,女,22,2025-06-04_12h58.53.563,Serial_Dependence_U,2023.2.3,Win32,59.523809523799216,,,,,,682.4169999999999,131,0,682.4192000000477,131,,,,686.6227000000476,687.1228000000119,686.1055,686.6226000000238,683.4347000000477,686.1054000000357,687.1229000000358,687.6237000000476,687.6239000000357,689.4601000000238,984,689.4602000000476,1,690.461,0,1,1,24,1,1.6,0.3,Time
,,768696,001,女,22,2025-06-04_12h58.53.563,Serial_Dependence_U,2023.2.3,Win32,59.523809523799216,,,,,,690.4617000000477,37,0,690.4623000000119,37,,,,694.0172000000476,694.5174000000358,693.4995,694.0171000000238,691.4631000000238,693.4994000000357,694.5174999999999,695.0178000000119,695.0179000000358,702.9959000000357,1339,702.996,5,703.9974000000358,0,2,2,16,1,1,0.7,Time
,,768696,001,女,22,2025-06-04_12h58.53.563,Serial_Dependence_U,2023.2.3,Win32,59.523809523799216,,,,,,703.9979000000358,272,0,703.9981000000238,272,,,,707.8034000000357,708.3036000000238,707.2862000000476,707.8033000000119,705.0162000000477,707.2861000000238,708.3036000000238,708.8041000000238,708.8042000000477,709.1551000000238,183,709.1552000000477,1,710.1563000000119,0,3,3,12,1,1.2,0.3,Time
,,768696,001,女,22,2025-06-04_12h58.53.563,Serial_Dependence_U,2023.2.3,Win32,59.523809523799216,,,,,,710.1574999999999,91,0,710.1577000000476,91,,,,713.7492000000476,714.2457000000477,713.2479999999999,713.7491000000238,711.175,713.2479000000358,714.2459000000357,714.7463000000118,714.7463000000118,716.587,1569,716.5871000000238,5,717.5844000000358,0,4,4,1,1,1,0.3,Time
,,768696,001,女,22,2025-06-04_12h58.53.563,Serial_Dependence_U,2023.2.3,Win32,59.523809523799216,,,,,,717.5853000000119,287,0,717.5854000000357,287,,,,720.9768000000118,721.4725,720.4564000000357,720.9766000000238,718.5894000000358,720.4563000000119,721.4727000000477,721.9734000000358,721.9735,723.2629999999999,818,723.2631000000238,3,724.2599000000357,0,5,5,20,1,0.8,0.3,Time
,,768696,001,女,22,2025-06-04_12h58.53.563,Serial_Dependence_U,2023.2.3,Win32,59.523809523799216,,,,,,724.2604000000357,131,0,724.2609000000357,131,,,,728.4042000000477,728.8999000000357,727.903,728.4041000000238,725.265,727.9028000000119,728.9,729.4008000000119,729.4008000000119,730.6418000000119,708,730.6419000000358,1,731.6374000000358,0,6,6,9,1,1.6,0.7,Time
,,768696,001,女,22,2025-06-04_12h58.53.563,Serial_Dependence_U,2023.2.3,Win32,59.523809523799216,,,,,,731.6385,304,0,731.6388000000119,304,,,,735.2131000000238,735.713,734.7119000000357,735.2129000000357,732.6423000000119,734.7118000000119,735.7131000000238,736.2107000000476,736.2108000000119,738.0367000000476,1380,738.0367000000476,5,739.0314000000358,0,7,7,21,1,1,0.3,Time
,,768696,001,女,22,2025-06-04_12h58.53.563,Serial_Dependence_U,2023.2.3,Win32,59.523809523799216,,,,,,739.0323000000119,25,0,739.0329000000357,25,,,,742.8243000000119,743.3209000000357,742.3067000000476,742.8242000000477,740.034,742.3064999999999,743.3209999999999,743.8215,743.8217000000476,744.9737000000476,701,744.9739999999999,1,745.9747000000476,0,8,8,22,1,1.2,0.3,Time
,,768696,001,女,22,2025-06-04_12h58.53.563,Serial_Dependence_U,2023.2.3,Win32,59.523809523799216,,,,,,745.9753000000119,223,0,745.9758000000119,223,,,,749.3303000000119,749.8302000000476,748.8139000000357,749.3301000000238,746.9772000000477,748.8136000000238,749.8302000000476,750.331,750.3312000000476,752.0343000000119,1080,752.0345,5,753.0351000000238,0,9,9,15,1,0.8,0.7,Time
,,768696,001,女,22,2025-06-04_12h58.53.563,Serial_Dependence_U,2023.2.3,Win32,59.523809523799216,,,,,,753.0361000000238,107,0,753.0364000000358,107,,,,757.2112000000476,757.7085,756.708,757.211,754.0377000000476,756.7078000000118,757.7085,758.2091000000238,758.2092000000476,759.1608000000119,437,759.1611000000238,1,760.1619000000358,0,10,10,4,1,1.6,0.3,Time
,,768696,001,女,22,2025-06-04_12h58.53.563,Serial_Dependence_U,2023.2.3,Win32,59.523809523799216,,,,,,760.1631000000239,76,0,760.1633000000119,76,,,,764.3224000000357,764.8188000000118,763.8014999999999,764.3222000000477,761.1688000000119,763.8012000000476,764.8188000000118,765.3196000000238,765.3196000000238,766.6759999999999,500,766.6759999999999,1,767.6728000000119,0,11,11,29,1,1.6,0.7,Time
,,768696,001,女,22,2025-06-04_12h58.53.563,Serial_Dependence_U,2023.2.3,Win32,59.523809523799216,,,,,,767.6739000000357,172,0,767.6743000000118,172,,,,771.0649999999999,771.5617000000476,770.5472000000476,771.0649999999999,768.6787000000477,770.5469999999999,771.5618000000119,772.0656000000238,772.0657000000476,773.2187000000476,717,773.2187000000476,2,774.2156000000238,0,12,12,10,1,0.8,0.3,Time
,,768696,001,女,22,2025-06-04_12h58.53.563,Serial_Dependence_U,2023.2.3,Win32,59.523809523799216,,,,,,774.2164000000357,291,0,774.2168000000119,291,,,,777.9603000000119,778.4554000000358,777.4571000000238,777.9602000000476,775.2219000000357,777.457,778.4554000000358,778.9559000000357,778.9559000000357,780.3287000000477,844,780.3289000000357,2,781.326,0,13,13,17,1,1.2,0.7,Time
,,768696,001,女,22,2025-06-04_12h58.53.563,Serial_Dependence_U,2023.2.3,Win32,59.523809523799216,,,,,,781.3271000000238,193,0,781.3274000000357,193,,,,785.0837000000477,785.5821000000238,784.5819000000357,785.0836000000238,782.3446000000238,784.5816000000239,785.5821000000238,786.0831000000238,786.0832000000477,787.2729000000357,618,787.2729999999999,1,788.2695,0,14,14,7,1,1.2,0.7,Time
,,768696,001,女,22,2025-06-04_12h58.53.563,Serial_Dependence_U,2023.2.3,Win32,59.523809523799216,,,,,,788.2703000000118,54,0,788.2707000000477,54,,,,792.463,792.9596000000238,791.9467000000476,792.4629000000357,789.275,791.9466000000239,792.9597000000476,793.4604000000357,793.4604000000357,795.1683000000119,1236,795.1683000000119,2,796.164,0,15,15,14,1,1.6,0.3,Time
,,768696,001,女,22,2025-06-04_12h58.53.563,Serial_Dependence_U,2023.2.3,Win32,59.523809523799216,,,,,,796.1649000000357,22,0,796.1652000000477,22,,,,799.9242000000477,800.4202000000477,799.4059000000358,799.924,797.1692000000477,799.4058000000119,800.4202000000477,800.9211000000238,800.9211000000238,802.31,960,802.3101000000238,2,803.3075,0,16,16,27,1,1.2,0.7,Time
,,768696,001,女,22,2025-06-04_12h58.53.563,Serial_Dependence_U,2023.2.3,Win32,59.523809523799216,,,,,,803.3081000000238,189,0,803.3085,189,,,,806.9006000000238,807.3969000000358,806.3987000000476,806.9005,804.3291000000238,806.3986000000239,807.3969999999999,807.8977000000476,807.8978000000119,809.3375,951,809.3375,3,810.3348000000119,0,17,17,11,1,1,0.3,Time
,,768696,001,女,22,2025-06-04_12h58.53.563,Serial_Dependence_U,2023.2.3,Win32,59.523809523799216,,,,,,810.3354000000357,107,0,810.3357000000476,107,,,,813.9069999999999,814.4074000000358,813.3941000000239,813.9068000000119,811.3577000000477,813.394,814.4074000000358,814.9077000000476,814.9078000000119,816.2139999999999,750,816.2141000000238,2,817.2112000000476,0,18,18,6,1,1,0.7,Time
,,768696,001,女,22,2025-06-04_12h58.53.563,Serial_Dependence_U,2023.2.3,Win32,59.523809523799216,,,,,,817.2121000000238,222,0,817.2126000000238,222,,,,820.9889999999999,821.4839000000358,820.4868000000118,820.9888000000119,818.2133000000119,820.4866000000238,821.4839999999999,821.985,821.9851000000239,823.6424000000358,1169,823.6424000000358,3,824.6386000000238,0,19,19,2,1,1.2,0.3,Time
,,768696,001,女,22,2025-06-04_12h58.53.563,Serial_Dependence_U,2023.2.3,Win32,59.523809523799216,,,,,,824.6392000000476,291,0,824.6398000000119,291,,,,828.6284000000358,829.1287000000476,828.1139000000358,828.6282000000476,825.6406000000238,828.1138000000119,829.1289000000357,829.6292000000476,829.6294000000357,830.9697000000476,852,830.9698000000119,1,831.966,0,20,20,13,1,1.4,0.3,Time
,,768696,001,女,22,2025-06-04_12h58.53.563,Serial_Dependence_U,2023.2.3,Win32,59.523809523799216,,,,,,831.9669000000357,73,0,831.9673000000118,73,,,,835.3578000000119,835.8548000000119,834.8413000000119,835.3577000000477,832.9681000000238,834.8412000000477,835.8548000000119,836.356,836.3561000000238,837.7793000000119,969,837.7794000000357,4,838.7758000000119,0,21,21,0,1,0.8,0.3,Time
,,768696,001,女,22,2025-06-04_12h58.53.563,Serial_Dependence_U,2023.2.3,Win32,59.523809523799216,,,,,,838.7769000000358,117,0,838.7773000000119,117,,,,842.1316000000238,842.6311000000238,841.6168000000118,842.1313000000118,839.7801000000238,841.6167000000477,842.6312000000477,843.1319000000358,843.132,844.2883000000119,767,844.2883000000119,3,845.285300000012,0,22,22,25,1,0.8,0.7,Time
,,768696,001,女,22,2025-06-04_12h58.53.563,Serial_Dependence_U,2023.2.3,Win32,59.523809523799216,,,,,,845.2864999999999,251,0,845.2866000000238,251,,,,849.2303000000119,849.7251000000238,848.7275,849.2303000000119,846.2909999999999,848.7274000000357,849.7252000000476,850.2255,850.2256000000239,851.4655,800,851.4656000000238,1,852.4622000000477,0,23,23,28,1,1.4,0.7,Time
,,768696,001,女,22,2025-06-04_12h58.53.563,Serial_Dependence_U,2023.2.3,Win32,59.523809523799216,,,,,,852.4631000000238,146,0,852.4636000000238,146,,,,856.4391000000238,856.9352000000476,855.9373000000119,856.4391000000238,853.4644999999999,855.9373000000119,856.9352000000476,857.4359999999999,857.4361000000238,859.1606000000238,1250,859.1607000000477,2,860.1568000000119,0,24,24,3,1,1.4,0.3,Time
,,768696,001,女,22,2025-06-04_12h58.53.563,Serial_Dependence_U,2023.2.3,Win32,59.523809523799216,,,,,,860.158,265,0,860.1583000000119,265,,,,864.1132000000476,864.6133000000119,863.5999000000357,864.1129999999999,861.1614000000358,863.5998000000119,864.6134000000358,865.1138000000119,865.1139999999999,866.9544999999999,1061,866.9546000000238,2,867.9513000000119,0,25,25,8,1,1.4,0.7,Time
,,768696,001,女,22,2025-06-04_12h58.53.563,Serial_Dependence_U,2023.2.3,Win32,59.523809523799216,,,,,,867.9521000000238,357,0,867.9525,357,,,,872.1114000000357,872.6081000000238,871.5909000000357,872.1112000000477,868.9566000000239,871.5907000000476,872.6082000000476,873.1088000000119,873.1089000000358,874.5148000000119,984,874.5149000000357,1,875.5123000000119,0,26,26,19,1,1.6,0.7,Time
,,768696,001,女,22,2025-06-04_12h58.53.563,Serial_Dependence_U,2023.2.3,Win32,59.523809523799216,,,,,,875.5132000000476,1,0,875.5137000000476,1,,,,879.5224000000358,880.0188000000119,879.0041000000238,879.5223000000119,876.531,879.004,880.0188000000119,880.5196000000238,880.5197000000477,883.9626000000238,1471,883.9626000000238,4,884.9592000000476,0,27,27,23,1,1.4,0.3,Time
,,768696,001,女,22,2025-06-04_12h58.53.563,Serial_Dependence_U,2023.2.3,Win32,59.523809523799216,,,,,,884.9601000000238,90,0,884.9606000000238,90,,,,888.919,889.4156000000238,888.4024999999999,888.9189000000357,885.9613000000119,888.4024000000358,889.4156000000238,889.9163000000119,889.9164000000358,891.3018000000119,860,891.3019000000357,1,892.3032000000477,0,28,28,18,1,1.4,0.7,Time
,,768696,001,女,22,2025-06-04_12h58.53.563,Serial_Dependence_U,2023.2.3,Win32,59.523809523799216,,,,,,892.3038000000118,66,0,892.3043000000118,66,,,,895.8594999999999,896.3591000000238,895.3419000000357,895.8591000000238,893.3054999999999,895.3417000000477,896.3592000000476,896.8598000000119,896.8599000000357,898.1161000000238,928,898.1162000000477,2,899.1129999999999,0,29,29,26,1,1,0.7,Time
,,768696,001,女,22,2025-06-04_12h58.53.563,Serial_Dependence_U,2023.2.3,Win32,59.523809523799216,,,,,,899.1139999999999,125,1,905.2387000000476,125,s,6.099800000011896,,909.3952000000477,909.8954000000357,908.8828000000119,909.3951000000238,906.2411000000238,908.8827000000476,909.8955,910.3961000000238,910.3961000000238,911.7349000000357,858,911.735,1,911.7354000000357,1,0,30,9,1,1.6,0.7,Time
,,768696,001,女,22,2025-06-04_12h58.53.563,Serial_Dependence_U,2023.2.3,Win32,59.523809523799216,,,,,,911.7358000000119,102,1,911.7369000000357,102,,,,915.2874000000357,915.7874000000357,914.7734000000357,915.2872000000476,912.7352000000476,914.7733000000119,915.7875,916.2878000000119,916.2879000000357,917.8438000000119,1012,917.8439000000358,3,917.8444000000359,1,1,31,16,1,1,0.7,Time
,,768696,001,女,22,2025-06-04_12h58.53.563,Serial_Dependence_U,2023.2.3,Win32,59.523809523799216,,,,,,917.8448000000119,67,1,917.845,67,,,,921.4337000000478,921.9293000000121,920.9162000000479,921.433600000024,918.8451000000239,920.916100000024,921.9293000000121,922.433,922.433,924.2498000000121,1369,924.25,5,924.250600000024,1,2,32,11,1,1,0.3,Time
,,768696,001,女,22,2025-06-04_12h58.53.563,Serial_Dependence_U,2023.2.3,Win32,59.523809523799216,,,,,,924.251,264,1,924.2511000000238,264,,,,928.3935000000001,928.8900000000001,927.891600000024,928.3934000000359,925.2523000000119,927.8915000000002,928.890100000024,929.3902000000478,929.3902000000478,931.548,1566,931.548,3,931.5484000000358,1,3,33,19,1,1.6,0.7,Time
,,768696,001,女,22,2025-06-04_12h58.53.563,Serial_Dependence_U,2023.2.3,Win32,59.523809523799216,,,,,,931.5487000000478,47,1,931.549,47,,,,935.1192000000478,935.6195,934.615300000012,935.1190000000001,932.5461000000239,934.6151000000239,935.6196000000239,936.1168000000121,936.1169000000359,937.9901000000239,1327,937.9901000000239,5,937.9904000000358,1,4,34,1,1,1,0.3,Time
,,768696,001,女,22,2025-06-04_12h58.53.563,Serial_Dependence_U,2023.2.3,Win32,59.523809523799216,,,,,,937.9907000000478,81,1,937.9909000000359,81,,,,941.575,942.075300000012,941.062400000036,941.5748000000119,938.9912000000477,941.0623000000121,942.0754000000359,942.5759000000357,942.576,944.0665000000001,818,944.0665000000001,2,944.0669000000357,1,5,35,21,1,1,0.3,Time
,,768696,001,女,22,2025-06-04_12h58.53.563,Serial_Dependence_U,2023.2.3,Win32,59.523809523799216,,,,,,944.0674000000358,63,1,944.0675000000001,63,,,,948.071800000012,948.568,947.5543000000121,948.0717000000477,945.0829000000358,947.5542000000478,948.568,949.0710000000001,949.071100000024,950.8088000000121,1084,950.8089000000359,2,950.8091000000238,1,6,36,3,1,1.4,0.3,Time
,,768696,001,女,22,2025-06-04_12h58.53.563,Serial_Dependence_U,2023.2.3,Win32,59.523809523799216,,,,,,950.8095000000001,147,1,950.8096000000239,147,,,,954.5939000000358,955.0941000000239,954.0819000000358,954.5937000000479,951.8099000000359,954.0817000000477,955.0941000000239,955.5949000000358,955.595,957.1675,886,957.1675,2,957.1679000000358,1,7,37,22,1,1.2,0.3,Time
,,768696,001,女,22,2025-06-04_12h58.53.563,Serial_Dependence_U,2023.2.3,Win32,59.523809523799216,,,,,,957.1683000000121,138,1,957.1685,138,,,,961.3541000000239,961.8538000000119,960.8419000000358,961.3539000000358,958.1660000000002,960.841800000012,961.8538000000119,962.3547000000478,962.3548000000119,964.362600000024,1420,964.3627000000477,2,964.3629000000358,1,8,38,14,1,1.6,0.3,Time
,,768696,001,女,22,2025-06-04_12h58.53.563,Serial_Dependence_U,2023.2.3,Win32,59.523809523799216,,,,,,964.3632000000478,196,1,964.363300000012,196,,,,968.5474000000359,969.047900000036,968.033400000036,968.547300000012,965.3593000000119,968.0333000000121,969.048,969.5484000000358,969.5484000000358,972.3565000000001,1935,972.3565000000001,4,972.3569000000359,1,9,39,4,1,1.6,0.3,Time
,,768696,001,女,22,2025-06-04_12h58.53.563,Serial_Dependence_U,2023.2.3,Win32,59.523809523799216,,,,,,972.3572000000477,80,1,972.3574000000358,80,,,,975.6944000000358,976.1912000000477,975.1936000000239,975.6944000000358,973.3579000000359,975.1935000000001,976.1912000000477,976.6953000000119,976.6954000000358,979.217100000024,735,979.2172000000478,2,979.2175,1,10,40,5,1,0.8,0.7,Time
,,768696,001,女,22,2025-06-04_12h58.53.563,Serial_Dependence_U,2023.2.3,Win32,59.523809523799216,,,,,,979.217800000012,89,1,979.2180000000001,89,,,,983.1689000000358,983.6686000000238,982.654600000024,983.1687000000477,980.214100000024,982.6544000000358,983.6687000000477,984.1695,984.1695,985.8277000000478,1052,985.8277000000478,2,985.828,1,11,41,18,1,1.4,0.7,Time
,,768696,001,女,22,2025-06-04_12h58.53.563,Serial_Dependence_U,2023.2.3,Win32,59.523809523799216,,,,,,985.8284000000358,137,1,985.8286000000239,137,,,,989.1654000000358,989.6612000000478,988.6634000000358,989.1652000000477,986.8242000000478,988.6634000000358,989.661300000012,990.1615000000002,990.1615000000002,992.086300000012,1002,992.086300000012,4,992.0867000000478,1,12,42,25,1,0.8,0.7,Time
,,768696,001,女,22,2025-06-04_12h58.53.563,Serial_Dependence_U,2023.2.3,Win32,59.523809523799216,,,,,,992.0869000000359,337,1,992.0871000000238,337,,,,996.274100000024,996.7710000000002,995.7595000000001,996.2740000000001,993.0859000000357,995.759300000012,996.771100000024,997.271800000012,997.2719000000359,999.9139000000359,1836,999.914,4,999.914300000012,1,13,43,24,1,1.6,0.3,Time
,,768696,001,女,22,2025-06-04_12h58.53.563,Serial_Dependence_U,2023.2.3,Win32,59.523809523799216,,,,,,999.9147000000478,234,1,999.9148000000121,234,,,,1003.668400000036,1004.1651000000238,1003.151300000012,1003.6682000000478,1000.9111000000239,1003.1511000000239,1004.1651000000238,1004.665800000012,1004.6659000000359,1009.3938000000121,1409,1009.393900000036,4,1009.3942000000477,1,14,44,17,1,1.2,0.7,Time
,,768696,001,女,22,2025-06-04_12h58.53.563,Serial_Dependence_U,2023.2.3,Win32,59.523809523799216,,,,,,1009.394600000024,112,1,1009.3947000000478,112,,,,1013.3500000000001,1013.845600000024,1012.831400000036,1013.3499000000359,1010.391600000024,1012.831400000036,1013.8457000000478,1014.3465000000001,1014.346600000024,1017.518600000024,1086,1017.5188000000121,2,1017.5194000000358,1,15,45,8,1,1.4,0.7,Time
,,768696,001,女,22,2025-06-04_12h58.53.563,Serial_Dependence_U,2023.2.3,Win32,59.523809523799216,,,,,,1017.52,72,1,1017.5202000000477,72,,,,1021.473800000012,1021.9743000000119,1020.9598000000119,1021.473800000012,1018.5216000000239,1020.9598000000119,1021.9743000000119,1022.4749000000359,1022.4749000000359,1024.5990000000002,667,1024.599100000024,1,1024.5994000000358,1,16,46,28,1,1.4,0.7,Time
,,768696,001,女,22,2025-06-04_12h58.53.563,Serial_Dependence_U,2023.2.3,Win32,59.523809523799216,,,,,,1024.599800000012,283,1,1024.6000000000001,283,,,,1027.983600000024,1028.4839000000359,1027.4689000000358,1027.9834000000358,1025.599800000012,1027.468800000012,1028.4839000000359,1028.9842000000478,1028.984300000012,1030.0412000000479,518,1030.041300000012,1,1030.041600000024,1,17,47,0,1,0.8,0.3,Time
,,768696,001,女,22,2025-06-04_12h58.53.563,Serial_Dependence_U,2023.2.3,Win32,59.523809523799216,,,,,,1030.0420000000001,271,1,1030.042300000012,271,,,,1033.426800000012,1033.924900000036,1032.913300000012,1033.4267000000477,1031.0419000000359,1032.9132000000477,1033.9250000000002,1034.4254000000358,1034.4255,1035.8952000000477,893,1035.8954000000358,4,1035.895600000024,1,18,48,10,1,0.8,0.3,Time
,,768696,001,女,22,2025-06-04_12h58.53.563,Serial_Dependence_U,2023.2.3,Win32,59.523809523799216,,,,,,1035.895900000036,240,1,1035.8960000000002,240,,,,1039.872,1040.367300000012,1039.3709000000358,1039.871800000012,1036.896300000012,1039.370800000012,1040.367300000012,1040.8682000000479,1040.8684000000358,1042.776100000024,1424,1042.776100000024,3,1042.7765000000002,1,19,49,23,1,1.4,0.3,Time
,,768696,001,女,22,2025-06-04_12h58.53.563,Serial_Dependence_U,2023.2.3,Win32,59.523809523799216,,,,,,1042.7769000000358,17,1,1042.777,17,,,,1046.314,1046.810100000024,1045.8122000000478,1046.3139000000358,1043.7733000000121,1045.812100000024,1046.8102000000479,1047.3107000000477,1047.3107000000477,1049.5346000000238,1693,1049.5347000000477,5,1049.535100000024,1,20,50,26,1,1,0.7,Time
,,768696,001,女,22,2025-06-04_12h58.53.563,Serial_Dependence_U,2023.2.3,Win32,59.523809523799216,,,,,,1049.5355000000002,244,1,1049.535600000024,244,,,,1053.290800000012,1053.786800000012,1052.7714000000358,1053.2907000000478,1050.5337000000477,1052.771300000012,1053.786800000012,1054.287600000024,1054.287600000024,1056.294300000012,668,1056.294300000012,1,1056.2946000000238,1,21,51,27,1,1.2,0.7,Time
,,768696,001,女,22,2025-06-04_12h58.53.563,Serial_Dependence_U,2023.2.3,Win32,59.523809523799216,,,,,,1056.2949000000358,110,1,1056.295100000024,110,,,,1060.083,1060.5800000000002,1059.5662000000477,1060.0829000000358,1057.2929000000358,1059.5661000000239,1060.580100000024,1061.080800000012,1061.080800000012,1064.9075,2504,1064.9075,5,1064.907800000012,1,22,52,2,1,1.2,0.3,Time
,,768696,001,女,22,2025-06-04_12h58.53.563,Serial_Dependence_U,2023.2.3,Win32,59.523809523799216,,,,,,1064.908100000024,229,1,1064.9082000000478,229,,,,1068.4609000000357,1068.958800000012,1067.9454000000358,1068.4608000000121,1065.9054000000358,1067.9452000000479,1068.9589000000358,1069.459600000024,1069.459600000024,1071.183900000036,801,1071.183900000036,2,1071.1842000000477,1,23,53,6,1,1,0.7,Time
,,768696,001,女,22,2025-06-04_12h58.53.563,Serial_Dependence_U,2023.2.3,Win32,59.523809523799216,,,,,,1071.184600000024,78,1,1071.1847000000478,78,,,,1074.5715,1075.067600000024,1074.0536000000238,1074.571300000012,1072.1847000000478,1074.0536000000238,1075.0677000000478,1075.5685,1075.5685,1077.4440000000002,1299,1077.4441000000238,5,1077.444300000012,1,24,54,20,1,0.8,0.3,Time
,,768696,001,女,22,2025-06-04_12h58.53.563,Serial_Dependence_U,2023.2.3,Win32,59.523809523799216,,,,,,1077.444800000012,297,1,1077.4450000000002,297,,,,1081.4279000000358,1081.9277000000477,1080.9145,1081.4277000000477,1078.4444000000358,1080.9144000000358,1081.9277000000477,1082.428400000036,1082.4286000000238,1084.535400000036,1602,1084.535400000036,4,1084.5357000000477,1,25,55,13,1,1.4,0.3,Time
,,768696,001,女,22,2025-06-04_12h58.53.563,Serial_Dependence_U,2023.2.3,Win32,59.523809523799216,,,,,,1084.5362000000478,211,1,1084.536300000012,211,,,,1087.8905,1088.386900000036,1087.372600000024,1087.890400000036,1085.533800000012,1087.3725000000002,1088.386900000036,1088.8877000000477,1088.887800000012,1090.7292000000477,1253,1090.729300000012,5,1090.729600000024,1,26,56,15,1,0.8,0.7,Time
,,768696,001,女,22,2025-06-04_12h58.53.563,Serial_Dependence_U,2023.2.3,Win32,59.523809523799216,,,,,,1090.73,198,1,1090.7302000000477,198,,,,1094.5001000000238,1094.9965,1093.9991000000239,1094.5,1091.729100000024,1093.9989000000357,1094.9965,1095.4972000000478,1095.497300000012,1098.051100000024,1961,1098.0512000000479,5,1098.0515,1,27,57,12,1,1.2,0.3,Time
,,768696,001,女,22,2025-06-04_12h58.53.563,Serial_Dependence_U,2023.2.3,Win32,59.523809523799216,,,,,,1098.0519000000359,127,1,1098.052100000024,127,,,,1101.8091000000238,1102.3071000000239,1101.294,1101.809,1099.0565000000001,1101.294,1102.3071000000239,1102.807900000036,1102.807900000036,1105.5329000000359,2170,1105.5330000000001,5,1105.533300000012,1,28,58,7,1,1.2,0.7,Time
,,768696,001,女,22,2025-06-04_12h58.53.563,Serial_Dependence_U,2023.2.3,Win32,59.523809523799216,,,,,,1105.5337000000477,33,1,1105.5339000000358,33,,,,1109.689,1110.188100000024,1109.171300000012,1109.689,1106.5305,1109.171300000012,1110.1882000000478,1110.689800000012,1110.689800000012,1112.8934000000359,1620,1112.8934000000359,3,1112.8937000000478,1,29,59,29,1,1.6,0.7,Time
,,768696,001,女,22,2025-06-04_12h58.53.563,Serial_Dependence_U,2023.2.3,Win32,59.523809523799216,,,,,,1112.8942000000477,78,2,1116.177300000012,78,s,3.2595000000001164,,1120.334100000024,1120.833800000012,1119.8194000000358,1120.333800000012,1117.1799000000358,1119.819300000012,1120.834,1121.335,1121.335,1123.410400000036,1187,1123.4105000000002,2,1123.4107000000477,2,0,60,9,1,1.6,0.7,Time
,,768696,001,女,22,2025-06-04_12h58.53.563,Serial_Dependence_U,2023.2.3,Win32,59.523809523799216,,,,,,1123.4112000000478,211,2,1123.4124000000359,211,,,,1127.1607000000477,1127.661100000024,1126.6474000000358,1127.1605000000002,1124.4067000000477,1126.6474000000358,1127.661100000024,1128.1614000000359,1128.1614000000359,1130.519,1836,1130.5191000000239,5,1130.519300000012,2,1,61,7,1,1.2,0.7,Time
,,768696,001,女,22,2025-06-04_12h58.53.563,Serial_Dependence_U,2023.2.3,Win32,59.523809523799216,,,,,,1130.519600000024,237,2,1130.519800000012,237,,,,1134.4745,1134.9750000000001,1133.956300000012,1134.4745,1131.516400000036,1133.956100000024,1134.9750000000001,1135.471800000012,1135.471900000036,1138.1483000000121,1853,1138.1484000000357,5,1138.1487000000477,2,2,62,18,1,1.4,0.7,Time
,,768696,001,女,22,2025-06-04_12h58.53.563,Serial_Dependence_U,2023.2.3,Win32,59.523809523799216,,,,,,1138.149100000024,313,2,1138.149300000012,313,,,,1141.8982000000478,1142.3984000000357,1141.384800000012,1141.8980000000001,1139.144900000036,1141.384600000024,1142.3985,1142.899100000024,1142.8992000000478,1145.057800000012,1559,1145.057800000012,4,1145.0581000000238,2,3,63,27,1,1.2,0.7,Time
,,768696,001,女,22,2025-06-04_12h58.53.563,Serial_Dependence_U,2023.2.3,Win32,59.523809523799216,,,,,,1145.0585,0,2,1145.058600000024,0,,,,1148.608600000024,1149.1082000000479,1148.095,1148.608300000012,1146.054100000024,1148.0949000000358,1149.108300000012,1149.608800000012,1149.6089000000359,1151.1483000000121,1011,1151.1485,3,1151.1487000000477,2,4,64,26,1,1,0.7,Time
,,768696,001,女,22,2025-06-04_12h58.53.563,Serial_Dependence_U,2023.2.3,Win32,59.523809523799216,,,,,,1151.149100000024,10,2,1151.1492000000478,10,,,,1154.519900000036,1155.016800000012,1154.018,1154.519800000012,1152.1502000000478,1154.017800000012,1155.016800000012,1155.5175000000002,1155.517600000024,1157.040800000012,1050,1157.040800000012,5,1157.041100000024,2,5,65,0,1,0.8,0.3,Time
,,768696,001,女,22,2025-06-04_12h58.53.563,Serial_Dependence_U,2023.2.3,Win32,59.523809523799216,,,,,,1157.0415,191,2,1157.041600000024,191,,,,1161.029300000012,1161.5262000000478,1160.5114000000358,1161.0291000000238,1158.0424000000357,1160.511300000012,1161.5262000000478,1162.0269000000358,1162.027,1164.051300000012,1601,1164.051300000012,4,1164.0515,2,6,66,23,1,1.4,0.3,Time
,,768696,001,女,22,2025-06-04_12h58.53.563,Serial_Dependence_U,2023.2.3,Win32,59.523809523799216,,,,,,1164.0519000000359,113,2,1164.052100000024,113,,,,1167.4219000000357,1167.9187000000477,1166.9209000000358,1167.421800000012,1165.048600000024,1166.920800000012,1167.9187000000477,1168.419400000036,1168.4195,1170.2897000000478,1301,1170.289900000036,5,1170.2904000000358,2,7,67,10,1,0.8,0.3,Time
,,768696,001,女,22,2025-06-04_12h58.53.563,Serial_Dependence_U,2023.2.3,Win32,59.523809523799216,,,,,,1170.290800000012,210,2,1170.290900000036,210,,,,1174.4656000000239,1174.9622000000477,1173.964600000024,1174.4655,1171.291300000012,1173.9645,1174.9624000000358,1175.4630000000002,1175.4630000000002,1177.953900000036,1970,1177.9540000000002,4,1177.9542000000479,2,8,68,14,1,1.6,0.3,Time
,,768696,001,女,22,2025-06-04_12h58.53.563,Serial_Dependence_U,2023.2.3,Win32,59.523809523799216,,,,,,1177.954600000024,74,2,1177.9547000000478,74,,,,1181.9435,1182.439800000012,1181.4264000000358,1181.9434000000358,1178.9555,1181.4264000000358,1182.4399000000358,1182.940600000024,1182.940800000012,1185.232600000024,1758,1185.232600000024,4,1185.232900000036,2,9,69,13,1,1.4,0.3,Time
,,768696,001,女,22,2025-06-04_12h58.53.563,Serial_Dependence_U,2023.2.3,Win32,59.523809523799216,,,,,,1185.233300000012,26,2,1185.2335,26,,,,1189.217400000036,1189.717,1188.703300000012,1189.217100000024,1186.229600000024,1188.7032000000477,1189.717,1190.2177000000477,1190.2177000000477,1192.409100000024,1536,1192.4092000000478,4,1192.4095,2,10,70,3,1,1.4,0.3,Time
,,768696,001,女,22,2025-06-04_12h58.53.563,Serial_Dependence_U,2023.2.3,Win32,59.523809523799216,,,,,,1192.4099000000358,340,2,1192.41,340,,,,1196.5815,1197.077600000024,1196.0767000000478,1196.5815,1193.4062000000479,1196.076600000024,1197.077600000024,1197.5784000000358,1197.5785,1199.3147000000477,1209,1199.314800000012,2,1199.3155000000002,2,11,71,24,1,1.6,0.3,Time
,,768696,001,女,22,2025-06-04_12h58.53.563,Serial_Dependence_U,2023.2.3,Win32,59.523809523799216,,,,,,1199.3161000000239,310,2,1199.3165000000001,310,,,,1202.903600000024,1203.4035000000001,1202.389300000012,1202.9034000000358,1200.3192000000477,1202.389300000012,1203.403600000024,1203.9041000000238,1203.9042000000477,1205.777800000012,1468,1205.777800000012,5,1205.7781000000239,2,12,72,11,1,1,0.3,Time
,,768696,001,女,22,2025-06-04_12h58.53.563,Serial_Dependence_U,2023.2.3,Win32,59.523809523799216,,,,,,1205.778600000024,86,2,1205.7787000000478,86,,,,1209.3294000000358,1209.8294000000358,1208.815100000024,1209.3292000000479,1206.775400000036,1208.815,1209.8295,1210.3302000000479,1210.3302000000479,1212.705100000024,1837,1212.7052000000479,5,1212.7054000000358,2,13,73,6,1,1,0.7,Time
,,768696,001,女,22,2025-06-04_12h58.53.563,Serial_Dependence_U,2023.2.3,Win32,59.523809523799216,,,,,,1212.7059000000359,143,2,1212.706100000024,143,,,,1216.860800000012,1217.356900000036,1216.343800000012,1216.8607000000477,1213.7056000000239,1216.343800000012,1217.357,1217.8577000000478,1217.857800000012,1220.0817000000477,1765,1220.0817000000477,4,1220.082100000024,2,14,74,19,1,1.6,0.7,Time
,,768696,001,女,22,2025-06-04_12h58.53.563,Serial_Dependence_U,2023.2.3,Win32,59.523809523799216,,,,,,1220.0825,83,2,1220.0826000000238,83,,,,1223.666800000012,1224.1674000000357,1223.1525000000001,1223.666600000024,1221.079300000012,1223.1525000000001,1224.1675,1224.6675,1224.6676000000239,1226.3091000000238,1202,1226.3092000000477,4,1226.3095,2,15,75,21,1,1,0.3,Time
,,768696,001,女,22,2025-06-04_12h58.53.563,Serial_Dependence_U,2023.2.3,Win32,59.523809523799216,,,,,,1226.309800000012,199,2,1226.309900000036,199,,,,1229.6945,1230.1922000000477,1229.177800000012,1229.694300000012,1227.305400000036,1229.1776000000239,1230.1922000000477,1230.693,1230.6931000000238,1232.3172000000477,1086,1232.3172000000477,5,1232.3177000000478,2,16,76,20,1,0.8,0.3,Time
,,768696,001,女,22,2025-06-04_12h58.53.563,Serial_Dependence_U,2023.2.3,Win32,59.523809523799216,,,,,,1232.318,302,2,1232.3182000000477,302,,,,1236.271600000024,1236.7684000000359,1235.7549000000358,1236.2715,1233.313800000012,1235.754800000012,1236.7685000000001,1237.2692000000477,1237.269300000012,1239.6435000000001,1952,1239.643600000024,5,1239.643900000036,2,17,77,28,1,1.4,0.7,Time
,,768696,001,女,22,2025-06-04_12h58.53.563,Serial_Dependence_U,2023.2.3,Win32,59.523809523799216,,,,,,1239.6442000000477,262,2,1239.6444000000358,262,,,,1243.383100000024,1243.8789000000359,1242.8807000000477,1243.382800000012,1240.641300000012,1242.8806000000238,1243.8789000000359,1244.3795,1244.3795,1246.670100000024,1701,1246.6702000000478,5,1246.6705000000002,2,18,78,17,1,1.2,0.7,Time
,,768696,001,女,22,2025-06-04_12h58.53.563,Serial_Dependence_U,2023.2.3,Win32,59.523809523799216,,,,,,1246.6709000000358,214,2,1246.671,214,,,,1250.021800000012,1250.5220000000002,1249.507400000036,1250.021600000024,1247.6685,1249.507300000012,1250.5220000000002,1251.0227000000477,1251.0227000000477,1252.2127000000478,803,1252.212800000012,3,1252.2132000000477,2,19,79,15,1,0.8,0.7,Time
,,768696,001,女,22,2025-06-04_12h58.53.563,Serial_Dependence_U,2023.2.3,Win32,59.523809523799216,,,,,,1252.213600000024,289,2,1252.213800000012,289,,,,1255.5627000000477,1256.063,1255.050100000024,1255.5627000000477,1253.212800000012,1255.0500000000002,1256.063100000024,1256.5636000000238,1256.5637000000477,1258.4895000000001,1249,1258.4895000000001,5,1258.489800000012,2,20,80,25,1,0.8,0.7,Time
,,768696,001,女,22,2025-06-04_12h58.53.563,Serial_Dependence_U,2023.2.3,Win32,59.523809523799216,,,,,,1258.4901000000239,50,2,1258.4904000000358,50,,,,1262.673300000012,1263.173300000012,1262.159,1262.6732000000477,1259.4856000000239,1262.1589000000358,1263.1734000000358,1263.674,1263.6741000000238,1269.6702000000478,1166,1269.6702000000478,2,1269.6705000000002,2,21,81,4,1,1.6,0.3,Time
,,768696,001,女,22,2025-06-04_12h58.53.563,Serial_Dependence_U,2023.2.3,Win32,59.523809523799216,,,,,,1269.6709000000358,284,2,1269.6712000000477,284,,,,1273.0239000000358,1273.521800000012,1272.5072000000478,1273.023800000012,1270.668100000024,1272.5072000000478,1273.521800000012,1274.0227000000477,1274.022800000012,1275.6625000000001,801,1275.662600000024,3,1275.6629000000357,2,22,82,5,1,0.8,0.7,Time
,,768696,001,女,22,2025-06-04_12h58.53.563,Serial_Dependence_U,2023.2.3,Win32,59.523809523799216,,,,,,1275.663300000012,125,2,1275.6635,125,,,,1279.4344000000358,1279.931,1278.9334000000358,1279.4344000000358,1276.6655,1278.9332000000477,1279.931100000024,1280.4341000000238,1280.4342000000477,1282.518300000012,1588,1282.5184000000359,5,1282.518800000012,2,23,83,2,1,1.2,0.3,Time
,,768696,001,女,22,2025-06-04_12h58.53.563,Serial_Dependence_U,2023.2.3,Win32,59.523809523799216,,,,,,1282.5192000000477,270,2,1282.5194000000358,270,,,,1286.6765,1287.1750000000002,1286.160300000012,1286.6764000000358,1283.520300000012,1286.1602000000478,1287.1750000000002,1287.6757000000478,1287.675800000012,1289.850100000024,1803,1289.850100000024,4,1289.8505,2,24,84,29,1,1.6,0.7,Time
,,768696,001,女,22,2025-06-04_12h58.53.563,Serial_Dependence_U,2023.2.3,Win32,59.523809523799216,,,,,,1289.850800000012,201,2,1289.851,201,,,,1293.4215000000002,1293.9177000000477,1292.92,1293.4214000000359,1290.852400000036,1292.9199000000358,1293.917800000012,1294.418400000036,1294.4185,1296.6762000000479,1729,1296.676300000012,5,1296.6766000000239,2,25,85,1,1,1,0.3,Time
,,768696,001,女,22,2025-06-04_12h58.53.563,Serial_Dependence_U,2023.2.3,Win32,59.523809523799216,,,,,,1296.6770000000001,137,2,1296.6772000000478,137,,,,1300.464800000012,1300.965100000024,1299.9469000000358,1300.464800000012,1297.6776000000239,1299.946800000012,1300.965100000024,1301.462,1301.462,1304.022100000024,2052,1304.0222000000479,5,1304.0224000000358,2,26,86,22,1,1.2,0.3,Time
,,768696,001,女,22,2025-06-04_12h58.53.563,Serial_Dependence_U,2023.2.3,Win32,59.523809523799216,,,,,,1304.022800000012,149,2,1304.0229000000359,149,,,,1307.5715,1308.0716000000239,1307.0574000000358,1307.571300000012,1305.0177000000479,1307.057300000012,1308.0717000000477,1308.572400000036,1308.5725,1309.796100000024,651,1309.7962000000477,1,1309.796600000024,2,27,87,16,1,1,0.7,Time
,,768696,001,女,22,2025-06-04_12h58.53.563,Serial_Dependence_U,2023.2.3,Win32,59.523809523799216,,,,,,1309.7969000000357,83,2,1309.797,83,,,,1313.5672000000477,1314.064300000012,1313.0632000000478,1313.5671000000239,1310.792800000012,1313.063,1314.064300000012,1314.5652000000478,1314.565300000012,1316.5890000000002,1620,1316.5890000000002,5,1316.5894000000358,2,28,88,12,1,1.2,0.3,Time
,,768696,001,女,22,2025-06-04_12h58.53.563,Serial_Dependence_U,2023.2.3,Win32,59.523809523799216,,,,,,1316.589800000012,354,2,1316.5900000000001,354,,,,1320.5285000000001,1321.0235,1320.0257000000477,1320.5285000000001,1317.586300000012,1320.0257000000477,1321.0236000000239,1321.524400000036,1321.5245,1323.7502000000477,1788,1323.7502000000477,4,1323.750600000024,2,29,89,8,1,1.4,0.7,Time
,,768696,001,女,22,2025-06-04_12h58.53.563,Serial_Dependence_U,2023.2.3,Win32,59.523809523799216,,,,,,1323.750900000036,4,3,1354.9899000000357,4,s,31.214399999976195,,1358.5655000000002,1359.0620000000001,1358.064100000024,1358.5654000000359,1355.9946000000239,1358.064,1359.062100000024,1359.562800000012,1359.5629000000358,1362.422300000012,2354,1362.4224000000359,5,1362.4227000000478,3,0,90,1,1,1,0.3,Time
,,768696,001,女,22,2025-06-04_12h58.53.563,Serial_Dependence_U,2023.2.3,Win32,59.523809523799216,,,,,,1362.4231000000239,328,3,1362.4244000000358,328,,,,1365.7742000000478,1366.2727000000477,1365.26,1365.774100000024,1363.4222000000477,1365.26,1366.2727000000477,1366.7755000000002,1366.7755000000002,1369.0771000000238,1744,1369.0774000000358,5,1369.077900000036,3,1,91,25,1,0.8,0.7,Time
,,768696,001,女,22,2025-06-04_12h58.53.563,Serial_Dependence_U,2023.2.3,Win32,59.523809523799216,,,,,,1369.0782000000477,264,3,1369.078300000012,264,,,,1373.020900000036,1373.516400000036,1372.5159000000358,1373.020900000036,1370.0787000000478,1372.5157000000477,1373.516400000036,1374.018,1374.0181000000239,1376.9097000000477,2476,1376.909800000012,5,1376.9102000000478,3,2,92,8,1,1.4,0.7,Time
,,768696,001,女,22,2025-06-04_12h58.53.563,Serial_Dependence_U,2023.2.3,Win32,59.523809523799216,,,,,,1376.9105000000002,311,3,1376.910600000024,311,,,,1381.094600000024,1381.5947000000479,1380.5790000000002,1381.0945000000002,1377.909800000012,1380.5790000000002,1381.594800000012,1382.0955000000001,1382.095600000024,1384.536600000024,1953,1384.5367000000479,4,1384.537,3,3,93,14,1,1.6,0.3,Time
,,768696,001,女,22,2025-06-04_12h58.53.563,Serial_Dependence_U,2023.2.3,Win32,59.523809523799216,,,,,,1384.5372000000477,37,3,1384.5374000000359,37,,,,1388.3216000000239,1388.821800000012,1387.8091000000238,1388.3215,1385.5347000000477,1387.809,1388.821800000012,1389.3226000000238,1389.3226000000238,1391.6262000000477,1688,1391.6264000000358,5,1391.6270000000002,3,4,94,22,1,1.2,0.3,Time
,,768696,001,女,22,2025-06-04_12h58.53.563,Serial_Dependence_U,2023.2.3,Win32,59.523809523799216,,,,,,1391.627300000012,209,3,1391.6275,209,,,,1395.182,1395.682,1394.667300000012,1395.181800000012,1392.6279000000359,1394.667100000024,1395.682,1396.1825000000001,1396.1825000000001,1398.224300000012,1586,1398.224300000012,5,1398.2246000000239,3,5,95,6,1,1,0.7,Time
,,768696,001,女,22,2025-06-04_12h58.53.563,Serial_Dependence_U,2023.2.3,Win32,59.523809523799216,,,,,,1398.2250000000001,216,3,1398.2252000000478,216,,,,1401.594100000024,1402.094,1401.0932000000478,1401.594,1399.221,1401.093100000024,1402.094,1402.592,1402.592,1404.5167000000479,1502,1404.516800000012,5,1404.517,3,6,96,0,1,0.8,0.3,Time
,,768696,001,女,22,2025-06-04_12h58.53.563,Serial_Dependence_U,2023.2.3,Win32,59.523809523799216,,,,,,1404.5174000000359,0,3,1404.5175000000002,0,,,,1408.654900000036,1409.151300000012,1408.1534000000358,1408.654800000012,1405.517100000024,1408.153300000012,1409.151400000036,1409.652300000012,1409.652300000012,1412.5952000000477,2536,1412.595300000012,5,1412.595800000012,3,7,97,9,1,1.6,0.7,Time
,,768696,001,女,22,2025-06-04_12h58.53.563,Serial_Dependence_U,2023.2.3,Win32,59.523809523799216,,,,,,1412.596,160,3,1412.5962000000477,160,,,,1415.932600000024,1416.4286000000238,1415.4305000000002,1415.9324000000358,1413.5915,1415.430300000012,1416.4286000000238,1416.929400000036,1416.929400000036,1418.515,1186,1418.5152000000478,5,1418.5157000000477,3,8,98,5,1,0.8,0.7,Time
,,768696,001,女,22,2025-06-04_12h58.53.563,Serial_Dependence_U,2023.2.3,Win32,59.523809523799216,,,,,,1418.516100000024,292,3,1418.516300000012,292,,,,1422.7087000000477,1423.205300000012,1422.1905000000002,1422.708600000024,1419.5202000000477,1422.1904000000359,1423.2054000000358,1423.7057000000477,1423.705800000012,1426.1967000000477,2116,1426.196800000012,5,1426.1970000000001,3,9,99,4,1,1.6,0.3,Time
,,768696,001,女,22,2025-06-04_12h58.53.563,Serial_Dependence_U,2023.2.3,Win32,59.523809523799216,,,,,,1426.197400000036,18,3,1426.1977000000477,18,,,,1429.739300000012,1430.2317000000478,1429.2340000000002,1429.7392000000477,1427.1995000000002,1429.2339000000359,1430.231800000012,1430.7325,1430.732600000024,1432.641100000024,1307,1432.6412000000478,5,1432.6415000000002,3,10,100,16,1,1,0.7,Time
,,768696,001,女,22,2025-06-04_12h58.53.563,Serial_Dependence_U,2023.2.3,Win32,59.523809523799216,,,,,,1432.6419000000358,41,3,1432.6422000000478,41,,,,1435.978300000012,1436.474100000024,1435.477300000012,1435.9782000000478,1433.6375,1435.4772000000478,1436.474100000024,1436.9749000000359,1436.9750000000001,1439.031600000024,1611,1439.0317000000477,5,1439.0320000000002,3,11,101,15,1,0.8,0.7,Time
,,768696,001,女,22,2025-06-04_12h58.53.563,Serial_Dependence_U,2023.2.3,Win32,59.523809523799216,,,,,,1439.032300000012,237,3,1439.0326000000239,237,,,,1442.8042000000478,1443.3007000000478,1442.3020000000001,1442.804100000024,1440.03,1442.3019000000359,1443.300800000012,1443.8014000000358,1443.8014000000358,1446.443,2203,1446.443,5,1446.443300000012,3,12,102,12,1,1.2,0.3,Time
,,768696,001,女,22,2025-06-04_12h58.53.563,Serial_Dependence_U,2023.2.3,Win32,59.523809523799216,,,,,,1446.443600000024,323,3,1446.4437000000478,323,,,,1450.429,1450.9285,1449.916100000024,1450.428800000012,1447.4419000000357,1449.9160000000002,1450.9285,1451.429100000024,1451.4292000000478,1453.970600000024,2068,1453.970600000024,5,1453.970900000036,3,13,103,23,1,1.4,0.3,Time
,,768696,001,女,22,2025-06-04_12h58.53.563,Serial_Dependence_U,2023.2.3,Win32,59.523809523799216,,,,,,1453.971300000012,166,3,1453.9714000000358,166,,,,1458.1562000000479,1458.6567000000477,1457.6432000000477,1458.1560000000002,1454.968100000024,1457.6431000000239,1458.6567000000477,1459.157100000024,1459.157100000024,1462.2487000000478,2618,1462.2489000000357,5,1462.2492000000477,3,14,104,24,1,1.6,0.3,Time
,,768696,001,女,22,2025-06-04_12h58.53.563,Serial_Dependence_U,2023.2.3,Win32,59.523809523799216,,,,,,1462.2497000000478,205,3,1462.249800000012,205,,,,1466.001300000012,1466.5011000000238,1465.487,1466.0011000000238,1463.250800000012,1465.4869000000358,1466.5011000000238,1467.001800000012,1467.001900000036,1469.427300000012,1988,1469.427300000012,5,1469.4276000000239,3,15,105,27,1,1.2,0.7,Time
,,768696,001,女,22,2025-06-04_12h58.53.563,Serial_Dependence_U,2023.2.3,Win32,59.523809523799216,,,,,,1469.428,330,3,1469.4282000000478,330,,,,1472.8107000000477,1473.3107000000477,1472.2969000000357,1472.8105,1470.427100000024,1472.2969000000357,1473.3107000000477,1473.8114000000357,1473.8115,1475.3522000000478,1152,1475.352400000036,5,1475.3527000000477,3,16,106,10,1,0.8,0.3,Time
,,768696,001,女,22,2025-06-04_12h58.53.563,Serial_Dependence_U,2023.2.3,Win32,59.523809523799216,,,,,,1475.353,194,3,1475.353300000012,194,,,,1478.739300000012,1479.2362000000478,1478.219100000024,1478.7392000000477,1476.3492000000479,1478.218800000012,1479.236300000012,1479.7369000000358,1479.737,1481.2611000000238,1120,1481.2612000000477,5,1481.261600000024,3,17,107,20,1,0.8,0.3,Time
,,768696,001,女,22,2025-06-04_12h58.53.563,Serial_Dependence_U,2023.2.3,Win32,59.523809523799216,,,,,,1481.2620000000002,78,3,1481.262100000024,78,,,,1485.015300000012,1485.5117000000478,1484.4975000000002,1485.0152000000478,1482.260600000024,1484.497400000036,1485.5117000000478,1486.0124000000358,1486.0125,1488.2707000000478,1753,1488.2707000000478,5,1488.2710000000002,3,18,108,7,1,1.2,0.7,Time
,,768696,001,女,22,2025-06-04_12h58.53.563,Serial_Dependence_U,2023.2.3,Win32,59.523809523799216,,,,,,1488.271300000012,272,3,1488.2715,272,,,,1491.8584000000358,1492.355,1491.3404000000357,1491.858300000012,1489.2717000000478,1491.340300000012,1492.3551000000239,1492.855900000036,1492.856,1494.780800000012,1469,1494.780900000036,5,1494.781300000012,3,19,109,21,1,1,0.3,Time
,,768696,001,女,22,2025-06-04_12h58.53.563,Serial_Dependence_U,2023.2.3,Win32,59.523809523799216,,,,,,1494.781600000024,162,3,1494.781800000012,162,,,,1498.736400000036,1499.2322000000477,1498.2182000000478,1498.736400000036,1495.777800000012,1498.218100000024,1499.232300000012,1499.7324000000358,1499.732600000024,1501.789600000024,1584,1501.789800000012,4,1501.7900000000002,3,20,110,18,1,1.4,0.7,Time
,,768696,001,女,22,2025-06-04_12h58.53.563,Serial_Dependence_U,2023.2.3,Win32,59.523809523799216,,,,,,1501.790300000012,171,3,1501.7904000000358,171,,,,1505.341400000036,1505.841300000012,1504.828,1505.341300000012,1502.7877000000478,1504.827900000036,1505.841300000012,1506.342,1506.342100000024,1508.850300000012,2019,1508.8504000000357,5,1508.850800000012,3,21,111,26,1,1,0.7,Time
,,768696,001,女,22,2025-06-04_12h58.53.563,Serial_Dependence_U,2023.2.3,Win32,59.523809523799216,,,,,,1508.8512000000478,37,3,1508.8512000000478,37,,,,1512.6222000000478,1513.1184000000358,1512.117900000036,1512.622,1509.8525000000002,1512.117800000012,1513.1184000000358,1513.6192000000478,1513.6192000000478,1515.0281000000239,979,1515.028300000012,2,1515.028600000024,3,22,112,2,1,1.2,0.3,Time
,,768696,001,女,22,2025-06-04_12h58.53.563,Serial_Dependence_U,2023.2.3,Win32,59.523809523799216,,,,,,1515.028900000036,194,3,1515.029,194,,,,1518.6122000000478,1519.110400000036,1518.096900000036,1518.612100000024,1516.0235,1518.096800000012,1519.110400000036,1519.6141000000239,1519.6141000000239,1522.303,2219,1522.303100000024,5,1522.303400000036,3,23,113,11,1,1,0.3,Time
,,768696,001,女,22,2025-06-04_12h58.53.563,Serial_Dependence_U,2023.2.3,Win32,59.523809523799216,,,,,,1522.3039000000358,212,3,1522.304,212,,,,1526.4572000000478,1526.955100000024,1525.9409000000358,1526.457,1523.300600000024,1525.940800000012,1526.9552000000479,1527.4559000000359,1527.4560000000001,1528.863,1046,1528.863100000024,1,1528.863300000012,3,24,114,19,1,1.6,0.7,Time
,,768696,001,女,22,2025-06-04_12h58.53.563,Serial_Dependence_U,2023.2.3,Win32,59.523809523799216,,,,,,1528.863800000012,241,3,1528.8639000000358,241,,,,1532.8506000000239,1533.3477000000478,1532.335,1532.8505,1529.8635000000002,1532.3349000000358,1533.3477000000478,1533.8484000000358,1533.8485,1536.022100000024,1764,1536.022100000024,4,1536.022300000012,3,25,115,13,1,1.4,0.3,Time
,,768696,001,女,22,2025-06-04_12h58.53.563,Serial_Dependence_U,2023.2.3,Win32,59.523809523799216,,,,,,1536.022800000012,20,3,1536.0229000000359,20,,,,1539.7749000000358,1540.274300000012,1539.2620000000002,1539.7747000000477,1537.0239000000358,1539.261900000036,1540.274300000012,1540.775100000024,1540.775100000024,1542.327600000024,1145,1542.327800000012,3,1542.328300000012,3,26,116,17,1,1.2,0.7,Time
,,768696,001,女,22,2025-06-04_12h58.53.563,Serial_Dependence_U,2023.2.3,Win32,59.523809523799216,,,,,,1542.3287000000478,273,3,1542.328900000036,273,,,,1546.3207000000477,1546.8174000000358,1545.804300000012,1546.320600000024,1543.3332000000478,1545.8042000000478,1546.8174000000358,1547.3181000000238,1547.3181000000238,1549.141300000012,1398,1549.1415000000002,3,1549.141800000012,3,27,117,3,1,1.4,0.3,Time
,,768696,001,女,22,2025-06-04_12h58.53.563,Serial_Dependence_U,2023.2.3,Win32,59.523809523799216,,,,,,1549.1422000000478,261,3,1549.142300000012,261,,,,1553.297,1553.794,1552.7795,1553.297,1550.1395,1552.7795,1553.794,1554.281600000024,1554.2817000000477,1556.819900000036,2119,1556.8200000000002,5,1556.820300000012,3,28,118,29,1,1.6,0.7,Time
,,768696,001,女,22,2025-06-04_12h58.53.563,Serial_Dependence_U,2023.2.3,Win32,59.523809523799216,,,,,,1556.820800000012,145,3,1556.8210000000001,145,,,,1560.7749000000358,1561.2715,1560.258600000024,1560.774800000012,1557.8172000000477,1560.2585000000001,1561.271600000024,1561.7722000000479,1561.772300000012,1563.929300000012,1743,1563.929300000012,4,1563.9296000000238,3,29,119,28,1,1.4,0.7,Time
,,768696,001,女,22,2025-06-04_12h58.53.563,Serial_Dependence_U,2023.2.3,Win32,59.523809523799216,,,,,,1563.93,25,4,1567.4017000000479,25,s,3.45619999998803,,1571.353800000012,1571.853600000024,1570.839100000024,1571.353600000024,1568.401800000012,1570.8390000000002,1571.8537000000479,1572.3542000000477,1572.354300000012,1574.8965,2134,1574.8965,5,1574.8969000000359,4,0,120,28,1,1.4,0.7,Time
,,768696,001,女,22,2025-06-04_12h58.53.563,Serial_Dependence_U,2023.2.3,Win32,59.523809523799216,,,,,,1574.8972000000479,88,4,1574.8984000000357,88,,,,1578.6477000000477,1579.147300000012,1578.1337000000478,1578.6477000000477,1575.8934000000359,1578.1337000000478,1579.1474000000358,1579.6486000000239,1579.6487000000477,1582.1061000000238,1938,1582.1062000000477,5,1582.1065,4,1,121,7,1,1.2,0.7,Time
,,768696,001,女,22,2025-06-04_12h58.53.563,Serial_Dependence_U,2023.2.3,Win32,59.523809523799216,,,,,,1582.106900000036,41,4,1582.107,41,,,,1585.4904000000358,1585.990600000024,1584.977100000024,1585.4902000000477,1583.1077000000478,1584.977,1585.990600000024,1586.4914000000358,1586.4914000000358,1588.7655,1948,1588.7656000000238,5,1588.7659000000358,4,2,122,10,1,0.8,0.3,Time
,,768696,001,女,22,2025-06-04_12h58.53.563,Serial_Dependence_U,2023.2.3,Win32,59.523809523799216,,,,,,1588.766300000012,287,4,1588.7665000000002,287,,,,1592.5514000000358,1593.050800000012,1592.0371000000239,1592.5512000000479,1589.7675000000002,1592.037,1593.050800000012,1593.5515,1593.5516000000239,1595.944300000012,2021,1595.9444000000358,5,1595.944600000024,4,3,123,12,1,1.2,0.3,Time
,,768696,001,女,22,2025-06-04_12h58.53.563,Serial_Dependence_U,2023.2.3,Win32,59.523809523799216,,,,,,1595.944900000036,98,4,1595.9450000000002,98,,,,1599.696800000012,1600.194600000024,1599.1812000000477,1599.6967000000477,1596.9405000000002,1599.181,1600.1947000000478,1600.6955,1600.695600000024,1603.1205,2053,1603.1206000000238,5,1603.1209000000358,4,4,124,27,1,1.2,0.7,Time
,,768696,001,女,22,2025-06-04_12h58.53.563,Serial_Dependence_U,2023.2.3,Win32,59.523809523799216,,,,,,1603.121300000012,258,4,1603.1215,258,,,,1606.709300000012,1607.2047000000478,1606.19,1606.7092000000478,1604.122300000012,1606.1899000000358,1607.204800000012,1607.705300000012,1607.705300000012,1610.3979000000359,2287,1610.3980000000001,5,1610.3983000000121,4,5,125,11,1,1,0.3,Time
,,768696,001,女,22,2025-06-04_12h58.53.563,Serial_Dependence_U,2023.2.3,Win32,59.523809523799216,,,,,,1610.3986000000239,80,4,1610.398800000012,80,,,,1614.5852000000477,1615.0827000000477,1614.0691000000238,1614.5851000000239,1611.395300000012,1614.0690000000002,1615.0827000000477,1615.583400000036,1615.583400000036,1617.390100000024,1309,1617.3902000000478,2,1617.390400000036,4,6,126,24,1,1.6,0.3,Time
,,768696,001,女,22,2025-06-04_12h58.53.563,Serial_Dependence_U,2023.2.3,Win32,59.523809523799216,,,,,,1617.390800000012,159,4,1617.391,159,,,,1620.9454000000358,1621.4419000000357,1620.4277000000477,1620.9454000000358,1618.3885,1620.4276000000239,1621.442,1621.9427000000478,1621.9427000000478,1624.1497000000477,1852,1624.149800000012,5,1624.150100000024,4,7,127,6,1,1,0.7,Time
,,768696,001,女,22,2025-06-04_12h58.53.563,Serial_Dependence_U,2023.2.3,Win32,59.523809523799216,,,,,,1624.1505000000002,4,4,1624.1506000000238,4,,,,1628.3067000000478,1628.8026000000239,1627.7897000000478,1628.3067000000478,1625.152100000024,1627.789600000024,1628.8026000000239,1629.3032000000478,1629.303300000012,1632.1952000000479,2303,1632.195300000012,5,1632.1957000000477,4,8,128,29,1,1.6,0.7,Time
,,768696,001,女,22,2025-06-04_12h58.53.563,Serial_Dependence_U,2023.2.3,Win32,59.523809523799216,,,,,,1632.196100000024,147,4,1632.196100000024,147,,,,1635.796800000012,1636.300800000012,1635.2829000000359,1635.7965000000002,1633.2131000000238,1635.282800000012,1636.300800000012,1636.7974000000359,1636.7975000000001,1639.8227000000477,2603,1639.822800000012,5,1639.823100000024,4,9,129,21,1,1,0.3,Time
,,768696,001,女,22,2025-06-04_12h58.53.563,Serial_Dependence_U,2023.2.3,Win32,59.523809523799216,,,,,,1639.8235,143,4,1639.8235,143,,,,1643.1602000000478,1643.6574000000358,1642.6570000000002,1643.160100000024,1640.8210000000001,1642.656800000012,1643.6575,1644.1582000000478,1644.1582000000478,1646.517100000024,1951,1646.5172000000478,5,1646.5175000000002,4,10,130,25,1,0.8,0.7,Time
,,768696,001,女,22,2025-06-04_12h58.53.563,Serial_Dependence_U,2023.2.3,Win32,59.523809523799216,,,,,,1646.5179000000358,7,4,1646.5181000000239,7,,,,1650.267600000024,1650.7681000000239,1649.755,1650.267300000012,1647.5134000000357,1649.7549000000358,1650.7682000000477,1651.268300000012,1651.2684000000359,1653.327,1670,1653.327,5,1653.3274000000358,4,11,131,17,1,1.2,0.7,Time
,,768696,001,女,22,2025-06-04_12h58.53.563,Serial_Dependence_U,2023.2.3,Win32,59.523809523799216,,,,,,1653.327800000012,224,4,1653.328,224,,,,1656.8770000000002,1657.3772000000477,1656.3647000000478,1656.876900000036,1654.327300000012,1656.364600000024,1657.3774000000358,1657.878100000024,1657.878100000024,1660.103300000012,1877,1660.103400000036,5,1660.1037000000479,4,12,132,26,1,1,0.7,Time
,,768696,001,女,22,2025-06-04_12h58.53.563,Serial_Dependence_U,2023.2.3,Win32,59.523809523799216,,,,,,1660.104,45,4,1660.1042000000477,45,,,,1663.8744000000358,1664.370800000012,1663.3729000000358,1663.874300000012,1661.1039000000358,1663.372800000012,1664.370800000012,1664.8715,1664.8715,1667.5422000000478,2281,1667.5424000000357,5,1667.5429000000358,4,13,133,2,1,1.2,0.3,Time
,,768696,001,女,22,2025-06-04_12h58.53.563,Serial_Dependence_U,2023.2.3,Win32,59.523809523799216,,,,,,1667.543300000012,7,4,1667.5435,7,,,,1671.0982000000477,1671.597800000012,1670.585300000012,1671.098100000024,1668.547600000024,1670.5852000000477,1671.5980000000002,1672.0996000000239,1672.0996000000239,1675.1570000000002,2603,1675.157100000024,5,1675.1574000000358,4,14,134,16,1,1,0.7,Time
,,768696,001,女,22,2025-06-04_12h58.53.563,Serial_Dependence_U,2023.2.3,Win32,59.523809523799216,,,,,,1675.1577000000477,216,4,1675.1580000000001,216,,,,1679.1452000000477,1679.642800000012,1678.6302000000478,1679.145,1676.159300000012,1678.630100000024,1679.6429000000358,1680.143600000024,1680.1437000000478,1682.5522000000478,2020,1682.552300000012,5,1682.5525,4,15,135,13,1,1.4,0.3,Time
,,768696,001,女,22,2025-06-04_12h58.53.563,Serial_Dependence_U,2023.2.3,Win32,59.523809523799216,,,,,,1682.552800000012,161,4,1682.5529000000358,161,,,,1686.324800000012,1686.8200000000002,1685.8195,1686.3247000000479,1683.554400000036,1685.819300000012,1686.820100000024,1687.320600000024,1687.320600000024,1690.1622000000477,2202,1690.1622000000477,5,1690.162600000024,4,16,136,22,1,1.2,0.3,Time
,,768696,001,女,22,2025-06-04_12h58.53.563,Serial_Dependence_U,2023.2.3,Win32,59.523809523799216,,,,,,1690.163,42,4,1690.1632000000477,42,,,,1694.335600000024,1694.831400000036,1693.833300000012,1694.3352000000477,1691.16,1693.8332000000478,1694.8315,1695.333300000012,1695.333400000036,1696.904800000012,1017,1696.905,1,1696.905300000012,4,17,137,14,1,1.6,0.3,Time
,,768696,001,女,22,2025-06-04_12h58.53.563,Serial_Dependence_U,2023.2.3,Win32,59.523809523799216,,,,,,1696.905600000024,239,4,1696.905800000012,239,,,,1701.0585,1701.557900000036,1700.540800000012,1701.0584000000358,1697.906300000012,1700.5405,1701.558,1702.0587000000478,1702.0587000000478,1706.202300000012,3513,1706.2024000000358,5,1706.2027000000478,4,18,138,9,1,1.6,0.7,Time
,,768696,001,女,22,2025-06-04_12h58.53.563,Serial_Dependence_U,2023.2.3,Win32,59.523809523799216,,,,,,1706.2031000000238,45,4,1706.203300000012,45,,,,1709.590800000012,1710.086900000036,1709.0737000000477,1709.5907000000477,1707.2005000000001,1709.0736000000238,1710.087,1710.587600000024,1710.5877000000478,1716.9676000000238,2101,1716.9677000000477,5,1716.968,4,19,139,20,1,0.8,0.3,Time
,,768696,001,女,22,2025-06-04_12h58.53.563,Serial_Dependence_U,2023.2.3,Win32,59.523809523799216,,,,,,1716.968400000036,145,4,1716.9685000000002,145,,,,1721.1199000000358,1721.620300000012,1720.6072000000477,1721.1197000000477,1717.9654000000357,1720.6071000000238,1721.620400000036,1722.1209000000358,1722.121,1724.680100000024,1920,1724.680100000024,4,1724.680400000036,4,20,140,19,1,1.6,0.7,Time
,,768696,001,女,22,2025-06-04_12h58.53.563,Serial_Dependence_U,2023.2.3,Win32,59.523809523799216,,,,,,1724.680800000012,137,4,1724.6809000000358,137,,,,1728.6312000000478,1729.131100000024,1728.1174000000358,1728.631100000024,1725.6795000000002,1728.117300000012,1729.1312000000478,1729.631800000012,1729.6319000000358,1731.4350000000002,1282,1731.435100000024,2,1731.4355,4,21,141,18,1,1.4,0.7,Time
,,768696,001,女,22,2025-06-04_12h58.53.563,Serial_Dependence_U,2023.2.3,Win32,59.523809523799216,,,,,,1731.436300000012,210,4,1731.4365,210,,,,1735.627100000024,1736.1245000000001,1735.110400000036,1735.6270000000002,1732.4367000000477,1735.110400000036,1736.1245000000001,1736.6257000000478,1736.6257000000478,1738.7004000000359,1385,1738.7004000000359,2,1738.7007000000478,4,22,142,4,1,1.6,0.3,Time
,,768696,001,女,22,2025-06-04_12h58.53.563,Serial_Dependence_U,2023.2.3,Win32,59.523809523799216,,,,,,1738.701,200,4,1738.7012000000477,200,,,,1742.0704000000358,1742.567600000024,1741.569600000024,1742.070300000012,1739.697100000024,1741.5694000000358,1742.567600000024,1743.0715,1743.0715,1747.4302000000478,704,1747.4302000000478,2,1747.430400000036,4,23,143,0,1,0.8,0.3,Time
,,768696,001,女,22,2025-06-04_12h58.53.563,Serial_Dependence_U,2023.2.3,Win32,59.523809523799216,,,,,,1747.430800000012,286,4,1747.4309000000358,286,,,,1751.413800000012,1751.9141000000238,1750.899800000012,1751.4137000000478,1748.426300000012,1750.8997000000477,1751.9142000000477,1752.414800000012,1752.4150000000002,1754.9857000000477,1547,1754.9857000000477,4,1754.986300000012,4,24,144,23,1,1.4,0.3,Time
,,768696,001,女,22,2025-06-04_12h58.53.563,Serial_Dependence_U,2023.2.3,Win32,59.523809523799216,,,,,,1754.987,139,4,1754.987100000024,139,,,,1758.978800000012,1759.475300000012,1758.458,1758.9785000000002,1755.991,1758.4576000000238,1759.475300000012,1759.9757000000477,1759.975800000012,1762.6002000000478,2085,1762.600300000012,5,1762.6007000000477,4,25,145,3,1,1.4,0.3,Time
,,768696,001,女,22,2025-06-04_12h58.53.563,Serial_Dependence_U,2023.2.3,Win32,59.523809523799216,,,,,,1762.601100000024,159,4,1762.601300000012,159,,,,1765.9552000000479,1766.451800000012,1765.4377000000477,1765.955100000024,1763.598600000024,1765.4376000000238,1766.451900000036,1766.9527000000478,1766.9527000000478,1769.122600000024,1727,1769.1227000000479,5,1769.123100000024,4,26,146,5,1,0.8,0.7,Time
,,768696,001,女,22,2025-06-04_12h58.53.563,Serial_Dependence_U,2023.2.3,Win32,59.523809523799216,,,,,,1769.123800000012,323,4,1769.124,323,,,,1772.481900000036,1772.9779000000358,1771.9644000000358,1772.4817000000478,1770.1247000000478,1771.964300000012,1772.9779000000358,1773.478800000012,1773.4789000000358,1774.6312000000478,735,1774.631300000012,2,1774.632,4,27,147,15,1,0.8,0.7,Time
,,768696,001,女,22,2025-06-04_12h58.53.563,Serial_Dependence_U,2023.2.3,Win32,59.523809523799216,,,,,,1774.6325000000002,47,4,1774.632800000012,47,,,,1778.220300000012,1778.719800000012,1777.705300000012,1778.2201000000239,1775.632300000012,1777.705100000024,1778.7199000000358,1779.220300000012,1779.2205000000001,1781.4440000000002,1702,1781.4441000000238,5,1781.444300000012,4,28,148,1,1,1,0.3,Time
,,768696,001,女,22,2025-06-04_12h58.53.563,Serial_Dependence_U,2023.2.3,Win32,59.523809523799216,,,,,,1781.4445,160,4,1781.4447000000478,160,,,,1785.400800000012,1785.896800000012,1784.8827000000479,1785.400800000012,1782.4459000000359,1784.8825000000002,1785.896800000012,1786.397300000012,1786.3974000000358,1788.254100000024,1452,1788.254100000024,3,1788.2545,4,29,149,8,1,1.4,0.7,Time
,,768696,001,女,22,2025-06-04_12h58.53.563,Serial_Dependence_U,2023.2.3,Win32,59.523809523799216,,,,,,1788.2549000000358,319,5,1791.9556000000239,319,s,3.6756999999879554,,1795.9454000000358,1796.445100000024,1795.4319000000357,1795.9452000000479,1792.9631000000238,1795.431800000012,1796.4452000000479,1796.9459000000359,1796.9460000000001,1799.401,1965,1799.4012000000478,5,1799.4015000000002,5,0,150,23,1,1.4,0.3,Time
,,768696,001,女,22,2025-06-04_12h58.53.563,Serial_Dependence_U,2023.2.3,Win32,59.523809523799216,,,,,,1799.4019000000358,128,5,1799.4032000000477,128,,,,1803.343100000024,1803.8397000000477,1802.8415,1803.343100000024,1800.406300000012,1802.841400000036,1803.8397000000477,1804.3399000000359,1804.340100000024,1806.698800000012,1903,1806.698800000012,5,1806.6992000000478,5,1,151,28,1,1.4,0.7,Time
,,768696,001,女,22,2025-06-04_12h58.53.563,Serial_Dependence_U,2023.2.3,Win32,59.523809523799216,,,,,,1806.699600000024,167,5,1806.699800000012,167,,,,1810.286300000012,1810.7826000000239,1809.7692000000477,1810.2862000000478,1807.6957000000477,1809.769,1810.7827000000477,1811.283400000036,1811.2835,1813.825,2090,1813.825,5,1813.825300000012,5,2,152,1,1,1,0.3,Time
,,768696,001,女,22,2025-06-04_12h58.53.563,Serial_Dependence_U,2023.2.3,Win32,59.523809523799216,,,,,,1813.8257000000478,71,5,1813.825800000012,71,,,,1817.5792000000479,1818.0765000000001,1817.061800000012,1817.579100000024,1814.826,1817.061800000012,1818.0765000000001,1818.577300000012,1818.5774000000358,1820.4350000000002,1337,1820.435100000024,4,1820.435300000012,5,3,153,27,1,1.2,0.7,Time
,,768696,001,女,22,2025-06-04_12h58.53.563,Serial_Dependence_U,2023.2.3,Win32,59.523809523799216,,,,,,1820.4357000000477,70,5,1820.4359000000359,70,,,,1824.2204000000359,1824.7217000000478,1823.7075,1824.2201000000239,1821.4350000000002,1823.707400000036,1824.7217000000478,1825.2204000000359,1825.2205000000001,1827.879800000012,2251,1827.8799000000358,5,1827.8802000000478,5,4,154,12,1,1.2,0.3,Time
,,768696,001,女,22,2025-06-04_12h58.53.563,Serial_Dependence_U,2023.2.3,Win32,59.523809523799216,,,,,,1827.8806000000238,171,5,1827.880800000012,171,,,,1831.4302000000478,1831.930100000024,1830.917100000024,1831.430100000024,1828.877300000012,1830.9170000000001,1831.930100000024,1832.4307000000479,1832.430800000012,1835.323300000012,2520,1835.323300000012,5,1835.3236000000238,5,5,155,6,1,1,0.7,Time
,,768696,001,女,22,2025-06-04_12h58.53.563,Serial_Dependence_U,2023.2.3,Win32,59.523809523799216,,,,,,1835.3239000000358,6,5,1835.324,6,,,,1839.4621000000238,1839.958300000012,1838.9592000000478,1839.462,1836.3202000000479,1838.959100000024,1839.958400000036,1840.459,1840.459,1843.063,2089,1843.063100000024,5,1843.0636000000238,5,6,156,9,1,1.6,0.7,Time
,,768696,001,女,22,2025-06-04_12h58.53.563,Serial_Dependence_U,2023.2.3,Win32,59.523809523799216,,,,,,1843.064400000036,259,5,1843.064600000024,259,,,,1847.2076000000238,1847.702800000012,1846.706300000012,1847.2075,1844.068600000024,1846.7062000000478,1847.702800000012,1848.203600000024,1848.2037000000478,1850.5777000000478,1903,1850.577800000012,4,1850.578,5,7,157,19,1,1.6,0.7,Time
,,768696,001,女,22,2025-06-04_12h58.53.563,Serial_Dependence_U,2023.2.3,Win32,59.523809523799216,,,,,,1850.5785,159,5,1850.578600000024,159,,,,1854.166600000024,1854.6631000000239,1853.649400000036,1854.1665,1851.5785,1853.6492000000478,1854.6632000000477,1855.163800000012,1855.163800000012,1857.905900000036,2271,1857.906100000024,5,1857.906300000012,5,8,158,21,1,1,0.3,Time
,,768696,001,女,22,2025-06-04_12h58.53.563,Serial_Dependence_U,2023.2.3,Win32,59.523809523799216,,,,,,1857.9067000000477,281,5,1857.9069000000359,281,,,,1861.243600000024,1861.74,1860.7427000000478,1861.2435,1858.9070000000002,1860.742600000024,1861.7401000000239,1862.240800000012,1862.240900000036,1865.032800000012,2270,1865.032800000012,5,1865.033100000024,5,9,159,5,1,0.8,0.7,Time
,,768696,001,女,22,2025-06-04_12h58.53.563,Serial_Dependence_U,2023.2.3,Win32,59.523809523799216,,,,,,1865.033400000036,310,5,1865.0336000000239,310,,,,1869.218600000024,1869.7179000000358,1868.7037000000478,1869.218400000036,1866.030300000012,1868.7035,1869.718,1870.2187000000479,1870.218800000012,1873.6959000000359,3057,1873.6960000000001,5,1873.696300000012,5,10,160,4,1,1.6,0.3,Time
,,768696,001,女,22,2025-06-04_12h58.53.563,Serial_Dependence_U,2023.2.3,Win32,59.523809523799216,,,,,,1873.6967000000477,260,5,1873.696800000012,260,,,,1877.046300000012,1877.546,1876.531300000012,1877.046,1874.6964000000357,1876.5312000000479,1877.546100000024,1878.046800000012,1878.046800000012,1880.8729000000358,2358,1880.8729000000358,5,1880.8732000000477,5,11,161,25,1,0.8,0.7,Time
,,768696,001,女,22,2025-06-04_12h58.53.563,Serial_Dependence_U,2023.2.3,Win32,59.523809523799216,,,,,,1880.873600000024,187,5,1880.873800000012,187,,,,1885.011300000012,1885.5077000000479,1884.5105,1885.011300000012,1881.873300000012,1884.5104000000358,1885.507800000012,1886.0082000000477,1886.008300000012,1889.3845000000001,2953,1889.3845000000001,5,1889.384900000036,5,12,162,29,1,1.6,0.7,Time
,,768696,001,女,22,2025-06-04_12h58.53.563,Serial_Dependence_U,2023.2.3,Win32,59.523809523799216,,,,,,1889.385300000012,161,5,1889.3854000000358,161,,,,1892.922900000036,1893.4189000000358,1892.422300000012,1892.922800000012,1890.3817000000477,1892.4222000000477,1893.4189000000358,1893.9197000000477,1893.919800000012,1896.9794000000359,2572,1896.9794000000359,5,1896.979800000012,5,13,163,16,1,1,0.7,Time
,,768696,001,女,22,2025-06-04_12h58.53.563,Serial_Dependence_U,2023.2.3,Win32,59.523809523799216,,,,,,1896.9802000000477,10,5,1896.980300000012,10,,,,1900.7675000000002,1901.2636000000239,1900.2502000000477,1900.7675000000002,1897.976400000036,1900.25,1901.2637000000477,1901.764300000012,1901.764400000036,1903.0705,884,1903.070600000024,2,1903.070800000012,5,14,164,2,1,1.2,0.3,Time
,,768696,001,女,22,2025-06-04_12h58.53.563,Serial_Dependence_U,2023.2.3,Win32,59.523809523799216,,,,,,1903.0712000000478,142,5,1903.071300000012,142,,,,1906.4099000000358,1906.9052000000477,1905.9076000000239,1906.4099000000358,1904.071300000012,1905.9074000000358,1906.9052000000477,1907.405900000036,1907.4060000000002,1909.1479000000359,1380,1909.1479000000359,5,1909.1487000000477,5,15,165,15,1,0.8,0.7,Time
,,768696,001,女,22,2025-06-04_12h58.53.563,Serial_Dependence_U,2023.2.3,Win32,59.523809523799216,,,,,,1909.1490000000001,18,5,1909.1492000000478,18,,,,1912.530800000012,1913.0310000000002,1912.016100000024,1912.530600000024,1910.1480000000001,1912.016,1913.0310000000002,1913.531300000012,1913.5314000000358,1915.5230000000001,1403,1915.5230000000001,5,1915.5234000000357,5,16,166,0,1,0.8,0.3,Time
,,768696,001,女,22,2025-06-04_12h58.53.563,Serial_Dependence_U,2023.2.3,Win32,59.523809523799216,,,,,,1915.523800000012,93,5,1915.5240000000001,93,,,,1919.494300000012,1919.9907000000478,1918.9937000000477,1919.4942000000478,1916.5230000000001,1918.993600000024,1919.9907000000478,1920.4914000000358,1920.4915,1922.332,1418,1922.3322000000478,3,1922.3325,5,17,167,13,1,1.4,0.3,Time
,,768696,001,女,22,2025-06-04_12h58.53.563,Serial_Dependence_U,2023.2.3,Win32,59.523809523799216,,,,,,1922.3329000000358,73,5,1922.333100000024,73,,,,1926.3217000000477,1926.817300000012,1925.803,1926.3215,1923.3297000000478,1925.8029000000358,1926.817300000012,1927.318,1927.3181000000238,1930.2391000000239,2130,1930.2391000000239,5,1930.239600000024,5,18,168,3,1,1.4,0.3,Time
,,768696,001,女,22,2025-06-04_12h58.53.563,Serial_Dependence_U,2023.2.3,Win32,59.523809523799216,,,,,,1930.2401000000239,94,5,1930.2402000000477,94,,,,1933.9947000000477,1934.495100000024,1933.480600000024,1933.9946000000239,1931.243800000012,1933.4805000000001,1934.4952000000478,1934.995800000012,1934.9959000000358,1937.288600000024,1800,1937.288600000024,5,1937.288800000012,5,19,169,17,1,1.2,0.7,Time
,,768696,001,女,22,2025-06-04_12h58.53.563,Serial_Dependence_U,2023.2.3,Win32,59.523809523799216,,,,,,1937.289300000012,115,5,1937.2894000000358,115,,,,1940.8583000000122,1941.3552000000477,1940.3577000000478,1940.8582000000479,1938.285600000024,1940.357600000024,1941.355300000012,1941.8558000000119,1941.8559000000357,1943.6134000000354,1249,1943.6134000000354,4,1943.6137000000474,5,20,170,11,1,1,0.3,Time
,,768696,001,女,22,2025-06-04_12h58.53.563,Serial_Dependence_U,2023.2.3,Win32,59.523809523799216,,,,,,1943.6141000000237,20,5,1943.6142000000475,20,,,,1947.5693000000117,1948.0647000000474,1947.0512000000474,1947.5692000000474,1944.61,1947.0512000000474,1948.0647000000474,1948.565800000012,1948.5659000000358,1951.7748000000117,2754,1951.7749000000356,5,1951.7752000000476,5,21,171,18,1,1.4,0.7,Time
,,768696,001,女,22,2025-06-04_12h58.53.563,Serial_Dependence_U,2023.2.3,Win32,59.523809523799216,,,,,,1951.7756000000238,100,5,1951.775800000012,100,,,,1955.5129999999997,1956.0095,1955.012,1955.5129999999997,1952.7764000000354,1955.012,1956.0096000000237,1956.5101000000238,1956.5102000000477,1959.269300000012,2343,1959.2694000000358,5,1959.2698000000116,5,22,172,7,1,1.2,0.7,Time
,,768696,001,女,22,2025-06-04_12h58.53.563,Serial_Dependence_U,2023.2.3,Win32,59.523809523799216,,,,,,1959.2702000000475,188,5,1959.2703000000117,188,,,,1962.8233000000116,1963.320300000012,1962.3063000000118,1962.8231000000235,1960.2681000000237,1962.3062000000475,1963.3204000000358,1963.8209000000354,1963.8209999999997,1966.9089000000356,2525,1966.9091000000237,5,1966.9096000000238,5,23,173,26,1,1,0.7,Time
,,768696,001,女,22,2025-06-04_12h58.53.563,Serial_Dependence_U,2023.2.3,Win32,59.523809523799216,,,,,,1966.9099000000358,47,5,1966.9104000000355,47,,,,1970.3008000000116,1970.7978000000119,1969.7829999999997,1970.300600000024,1967.9108000000117,1969.7829000000354,1970.7978000000119,1971.298300000012,1971.298300000012,1974.0566000000238,2303,1974.0566000000238,5,1974.057,5,24,174,20,1,0.8,0.3,Time
,,768696,001,女,22,2025-06-04_12h58.53.563,Serial_Dependence_U,2023.2.3,Win32,59.523809523799216,,,,,,1974.0574000000358,19,5,1974.0574999999997,19,,,,1978.2456000000236,1978.742600000024,1977.7279999999998,1978.2454999999998,1975.0544000000357,1977.7279000000356,1978.742600000024,1979.2432000000474,1979.2432000000474,1982.8212000000474,3150,1982.8214000000355,5,1982.8216000000236,5,25,175,24,1,1.6,0.3,Time
,,768696,001,女,22,2025-06-04_12h58.53.563,Serial_Dependence_U,2023.2.3,Win32,59.523809523799216,,,,,,1982.822,42,5,1982.8222000000476,42,,,,1986.608300000012,1987.1044000000354,1986.0907000000477,1986.6082000000476,1983.8217000000475,1986.0906000000239,1987.1044000000354,1987.6053000000118,1987.6053000000118,1991.0979000000355,3071,1991.0979999999997,5,1991.0982000000474,5,26,176,22,1,1.2,0.3,Time
,,768696,001,女,22,2025-06-04_12h58.53.563,Serial_Dependence_U,2023.2.3,Win32,59.523809523799216,,,,,,1991.0986000000237,278,5,1991.0988000000118,278,,,,1995.0504000000358,1995.5502000000477,1994.5332000000474,1995.0502000000477,1992.0954000000354,1994.5329000000354,1995.5502000000477,1996.0508000000116,1996.0509000000354,1999.3438000000117,2904,1999.3439000000355,5,1999.3442000000475,5,27,177,8,1,1.4,0.7,Time
,,768696,001,女,22,2025-06-04_12h58.53.563,Serial_Dependence_U,2023.2.3,Win32,59.523809523799216,,,,,,1999.3445,277,5,1999.3447000000476,277,,,,2003.5327000000477,2004.0289999999998,2003.0154000000355,2003.5325,2000.3444000000356,2003.0153000000116,2004.0289999999998,2004.5298000000118,2004.5299000000357,2007.9714999999999,3070,2007.9716000000237,5,2007.9718000000119,5,28,178,14,1,1.6,0.3,Time
,,768696,001,女,22,2025-06-04_12h58.53.563,Serial_Dependence_U,2023.2.3,Win32,59.523809523799216,,,,,,2007.9722000000477,185,5,2007.9724000000358,185,,,,2011.3613000000116,2011.8569999999997,2010.8425,2011.3612000000473,2008.9756000000236,2010.8424000000357,2011.8571000000236,2012.358300000012,2012.358300000012,2014.8172000000475,2054,2014.8172000000475,5,2014.8176000000237,5,29,179,10,1,0.8,0.3,Time
,,768696,001,女,22,2025-06-04_12h58.53.563,Serial_Dependence_U,2023.2.3,Win32,59.523809523799216,,,,,,2014.8181000000238,136,6,2016.9646000000237,136,s,2.120600000023842,,2020.5236000000239,2021.0214000000358,2020.0075,2020.5235,2017.9669000000356,2020.0074000000357,2021.0215,2021.521,2021.5211000000238,2023.8967000000478,1703,2023.8968000000116,5,2023.8971000000236,6,0,180,26,1,1,0.7,Time
,,768696,001,女,22,2025-06-04_12h58.53.563,Serial_Dependence_U,2023.2.3,Win32,59.523809523799216,,,,,,2023.8974999999998,230,6,2023.8986000000239,230,,,,2027.6352000000477,2028.1306000000238,2027.1325,2027.6351000000238,2024.8929999999998,2027.1324000000357,2028.1307000000477,2028.6314000000355,2028.6314999999997,2030.523300000012,1470,2030.523300000012,4,2030.5237000000477,6,1,181,7,1,1.2,0.7,Time
,,768696,001,女,22,2025-06-04_12h58.53.563,Serial_Dependence_U,2023.2.3,Win32,59.523809523799216,,,,,,2030.5239000000358,286,6,2030.5239999999997,286,,,,2034.6772000000476,2035.1741000000236,2034.1603000000116,2034.6772000000476,2031.5197000000474,2034.1602000000473,2035.1742000000474,2035.6749000000357,2035.675,2037.9504000000354,1821,2037.9506000000235,4,2037.9508000000117,6,2,182,9,1,1.6,0.7,Time
,,768696,001,女,22,2025-06-04_12h58.53.563,Serial_Dependence_U,2023.2.3,Win32,59.523809523799216,,,,,,2037.9511000000236,158,6,2037.9513000000118,158,,,,2041.5004999999999,2042.0008000000118,2040.9877000000477,2041.5004000000356,2038.9509999999998,2040.9876000000238,2042.0008000000118,2042.5015,2042.5016000000235,2044.2252000000474,1201,2044.2253000000117,4,2044.2256000000236,6,3,183,6,1,1,0.7,Time
,,768696,001,女,22,2025-06-04_12h58.53.563,Serial_Dependence_U,2023.2.3,Win32,59.523809523799216,,,,,,2044.2259999999999,309,6,2044.2261000000237,309,,,,2048.4148000000114,2048.9107000000477,2047.8961000000238,2048.4147000000476,2045.2262000000476,2047.896,2048.9107000000477,2049.411600000024,2049.411600000024,2051.9693000000116,2036,2051.9693000000116,4,2051.969600000024,6,4,184,14,1,1.6,0.3,Time
,,768696,001,女,22,2025-06-04_12h58.53.563,Serial_Dependence_U,2023.2.3,Win32,59.523809523799216,,,,,,2051.9699000000355,274,6,2051.970200000048,274,,,,2055.9582000000473,2056.455,2055.439800000012,2055.9581000000235,2052.9672000000473,2055.439700000047,2056.455100000024,2056.955600000024,2056.9557000000477,2058.6304000000355,1269,2058.6305,2,2058.6308000000117,6,5,185,13,1,1.4,0.3,Time
,,768696,001,女,22,2025-06-04_12h58.53.563,Serial_Dependence_U,2023.2.3,Win32,59.523809523799216,,,,,,2058.6311000000233,169,6,2058.631200000047,169,,,,2062.4141000000236,2062.9147000000476,2061.901600000024,2062.413900000036,2059.6276000000234,2061.901400000035,2062.9147000000476,2063.415100000024,2063.4152000000477,2065.3549999999996,1534,2065.3551000000234,4,2065.355400000036,6,6,186,2,1,1.2,0.3,Time
,,768696,001,女,22,2025-06-04_12h58.53.563,Serial_Dependence_U,2023.2.3,Win32,59.523809523799216,,,,,,2065.355800000012,133,6,2065.3559999999998,133,,,,2068.943700000047,2069.440300000012,2068.426900000036,2068.9436000000233,2066.3534000000354,2068.426800000012,2069.440300000012,2069.9436000000233,2069.9436000000233,2071.7643000000116,1289,2071.7643000000116,4,2071.7648000000117,6,7,187,1,1,1,0.3,Time
,,768696,001,女,22,2025-06-04_12h58.53.563,Serial_Dependence_U,2023.2.3,Win32,59.523809523799216,,,,,,2071.765300000012,330,6,2071.7654000000357,330,,,,2075.1025,2075.5994000000355,2074.5987000000478,2075.1025,2072.7628000000113,2074.5985,2075.5995000000003,2076.100200000047,2076.100200000047,2078.4918000000116,2003,2078.4919000000355,5,2078.492200000048,6,8,188,5,1,0.8,0.7,Time
,,768696,001,女,22,2025-06-04_12h58.53.563,Serial_Dependence_U,2023.2.3,Win32,59.523809523799216,,,,,,2078.492600000024,181,6,2078.4929000000357,181,,,,2082.6772000000474,2083.1769999999997,2082.1626000000233,2082.676900000036,2079.489400000036,2082.1624999999995,2083.1769999999997,2083.6777000000475,2083.677800000012,2086.403100000024,2331,2086.403200000048,5,2086.4034999999994,6,9,189,24,1,1.6,0.3,Time
,,768696,001,女,22,2025-06-04_12h58.53.563,Serial_Dependence_U,2023.2.3,Win32,59.523809523799216,,,,,,2086.403800000012,319,6,2086.4039000000357,319,,,,2089.9749000000356,2090.4709000000357,2089.473,2089.974800000012,2087.400300000012,2089.473,2090.4709999999995,2090.9716000000235,2090.9716000000235,2093.5627000000477,2154,2093.5627000000477,5,2093.563,6,10,190,11,1,1,0.3,Time
,,768696,001,女,22,2025-06-04_12h58.53.563,Serial_Dependence_U,2023.2.3,Win32,59.523809523799216,,,,,,2093.5633000000116,5,6,2093.5635,5,,,,2097.535,2098.0317000000477,2097.033900000036,2097.534900000036,2094.5611000000235,2097.033900000036,2098.0317000000477,2098.532700000048,2098.532700000048,2100.7572000000473,1821,2100.757300000012,5,2100.7576000000236,6,11,191,23,1,1.4,0.3,Time
,,768696,001,女,22,2025-06-04_12h58.53.563,Serial_Dependence_U,2023.2.3,Win32,59.523809523799216,,,,,,2100.757900000036,312,6,2100.7581000000237,312,,,,2104.5424000000357,2105.0419000000356,2104.0286000000233,2104.542300000012,2101.7545,2104.0284999999994,2105.0419999999995,2105.5427000000473,2105.542900000036,2109.2874999999995,3389,2109.2876000000233,5,2109.2879999999996,6,12,192,22,1,1.2,0.3,Time
,,768696,001,女,22,2025-06-04_12h58.53.563,Serial_Dependence_U,2023.2.3,Win32,59.523809523799216,,,,,,2109.288300000012,2,6,2109.2886000000235,2,,,,2112.6703000000116,2113.1704000000354,2112.1568000000116,2112.670100000024,2110.2863000000116,2112.156600000024,2113.1704000000354,2113.6710000000003,2113.671100000024,2115.6783000000114,1634,2115.6784000000353,5,2115.678600000024,6,13,193,20,1,0.8,0.3,Time
,,768696,001,女,22,2025-06-04_12h58.53.563,Serial_Dependence_U,2023.2.3,Win32,59.523809523799216,,,,,,2115.679,40,6,2115.679200000048,40,,,,2119.2633000000114,2119.7632000000476,2118.750100000024,2119.2631000000238,2116.6788000000115,2118.75,2119.7633000000114,2120.264,2120.264100000024,2122.6377000000475,1901,2122.6377000000475,5,2122.638,6,14,194,21,1,1,0.3,Time
,,768696,001,女,22,2025-06-04_12h58.53.563,Serial_Dependence_U,2023.2.3,Win32,59.523809523799216,,,,,,2122.6384000000353,342,6,2122.638600000024,342,,,,2125.9918000000116,2126.4897000000474,2125.475800000012,2125.991700000048,2123.636400000036,2125.4757000000473,2126.489800000012,2126.990400000036,2126.990400000036,2130.4456000000237,3059,2130.4457000000475,5,2130.4463000000114,6,15,195,25,1,0.8,0.7,Time
,,768696,001,女,22,2025-06-04_12h58.53.563,Serial_Dependence_U,2023.2.3,Win32,59.523809523799216,,,,,,2130.4469000000354,177,6,2130.447200000048,177,,,,2134.3884000000353,2134.885100000024,2133.8877000000475,2134.3883000000114,2131.451,2133.8876000000237,2134.885200000048,2135.3859000000357,2135.3859999999995,2137.277600000024,1501,2137.277700000048,4,2137.2780000000002,6,16,196,18,1,1.4,0.7,Time
,,768696,001,女,22,2025-06-04_12h58.53.563,Serial_Dependence_U,2023.2.3,Win32,59.523809523799216,,,,,,2137.2784000000356,154,6,2137.278800000012,154,,,,2141.4159000000354,2141.9120000000003,2140.9146000000237,2141.4158000000116,2138.2739999999994,2140.9145,2141.912100000024,2142.412800000012,2142.4129000000357,2144.6377000000475,1878,2144.6378000000113,4,2144.6381000000238,6,17,197,29,1,1.6,0.7,Time
,,768696,001,女,22,2025-06-04_12h58.53.563,Serial_Dependence_U,2023.2.3,Win32,59.523809523799216,,,,,,2144.6385,329,6,2144.6387000000477,329,,,,2148.3765000000003,2148.872200000047,2147.875600000024,2148.3764000000356,2145.639,2147.8755,2148.872200000047,2149.373400000036,2149.3734999999997,2151.4316000000235,1721,2151.4317000000474,5,2151.432,6,18,198,17,1,1.2,0.7,Time
,,768696,001,女,22,2025-06-04_12h58.53.563,Serial_Dependence_U,2023.2.3,Win32,59.523809523799216,,,,,,2151.432400000036,78,6,2151.4326000000237,78,,,,2155.5689000000357,2156.065800000012,2155.0679000000355,2155.568800000012,2152.4283000000114,2155.0678000000116,2156.065800000012,2156.5665,2156.5666000000238,2159.459400000035,2420,2159.4595,5,2159.4597000000476,6,19,199,19,1,1.6,0.7,Time
,,768696,001,女,22,2025-06-04_12h58.53.563,Serial_Dependence_U,2023.2.3,Win32,59.523809523799216,,,,,,2159.460100000024,178,6,2159.4603000000116,178,,,,2163.2121000000234,2163.7102000000477,2162.697,2163.2119999999995,2160.456100000024,2162.6968000000115,2163.7102000000477,2164.2109000000355,2164.2110000000002,2165.903100000024,1270,2165.903100000024,4,2165.9041000000234,6,20,200,27,1,1.2,0.7,Time
,,768696,001,女,22,2025-06-04_12h58.53.563,Serial_Dependence_U,2023.2.3,Win32,59.523809523799216,,,,,,2165.9044999999996,42,6,2165.9047000000473,42,,,,2169.2723000000115,2169.7693000000118,2168.770400000036,2169.2722000000476,2166.8989999999994,2168.770300000012,2169.7693000000118,2170.269800000012,2170.2699000000357,2173.1626000000233,2554,2173.162700000047,5,2173.1629999999996,6,21,201,10,1,0.8,0.3,Time
,,768696,001,女,22,2025-06-04_12h58.53.563,Serial_Dependence_U,2023.2.3,Win32,59.523809523799216,,,,,,2173.163400000036,23,6,2173.1636000000235,23,,,,2177.1494999999995,2177.6472000000476,2176.6326000000236,2177.1494999999995,2174.159300000012,2176.6326000000236,2177.6473000000115,2178.1479000000354,2178.1479000000354,2180.872700000047,2366,2180.872800000012,5,2180.8729999999996,6,22,202,3,1,1.4,0.3,Time
,,768696,001,女,22,2025-06-04_12h58.53.563,Serial_Dependence_U,2023.2.3,Win32,59.523809523799216,,,,,,2180.8734999999997,10,6,2180.873800000012,10,,,,2184.26,2184.757400000036,2183.7436000000234,2184.2599000000355,2181.8707000000477,2183.7434999999996,2184.7574999999997,2185.2582000000475,2185.2583000000113,2186.698700000047,1063,2186.698700000047,5,2186.6989999999996,6,23,203,0,1,0.8,0.3,Time
,,768696,001,女,22,2025-06-04_12h58.53.563,Serial_Dependence_U,2023.2.3,Win32,59.523809523799216,,,,,,2186.699300000012,80,6,2186.6996000000236,80,,,,2190.6497000000472,2191.149800000012,2190.1354000000356,2190.6496000000234,2187.697600000024,2190.1353000000117,2191.149800000012,2191.6504999999997,2191.6506000000236,2193.574300000012,1568,2193.574300000012,4,2193.5744999999997,6,24,204,8,1,1.4,0.7,Time
,,768696,001,女,22,2025-06-04_12h58.53.563,Serial_Dependence_U,2023.2.3,Win32,59.523809523799216,,,,,,2193.574900000036,183,6,2193.5752000000475,183,,,,2197.362,2197.8597000000473,2196.845300000012,2197.3619000000353,2194.572100000024,2196.845200000048,2197.859800000012,2198.360400000036,2198.3605,2200.752400000036,2020,2200.752400000036,5,2200.7527000000473,6,25,205,12,1,1.2,0.3,Time
,,768696,001,女,22,2025-06-04_12h58.53.563,Serial_Dependence_U,2023.2.3,Win32,59.523809523799216,,,,,,2200.7529999999997,245,6,2200.7532000000474,245,,,,2204.2864000000354,2204.7863000000116,2203.785400000035,2204.2863000000116,2201.7526000000234,2203.7852000000476,2204.7864000000354,2205.287100000024,2205.287100000024,2208.392,2232,2208.3921000000237,5,2208.3923000000113,6,26,206,16,1,1,0.7,Time
,,768696,001,女,22,2025-06-04_12h58.53.563,Serial_Dependence_U,2023.2.3,Win32,59.523809523799216,,,,,,2208.3927000000476,161,6,2208.3929000000353,161,,,,2212.5814000000355,2213.081700000048,2212.064200000047,2212.5813000000117,2209.3934000000354,2212.0641000000232,2213.081700000048,2213.5824000000357,2213.5824000000357,2217.0712000000476,3215,2217.0713000000114,5,2217.0719000000354,6,27,207,4,1,1.6,0.3,Time
,,768696,001,女,22,2025-06-04_12h58.53.563,Serial_Dependence_U,2023.2.3,Win32,59.523809523799216,,,,,,2217.0723000000116,288,6,2217.0725,288,,,,2221.0104999999994,2221.5104999999994,2220.509700000048,2221.0104000000356,2218.0728000000117,2220.509600000024,2221.5106000000233,2222.011300000012,2222.011400000036,2225.1162000000477,2813,2225.1162000000477,5,2225.1165,6,28,208,28,1,1.4,0.7,Time
,,768696,001,女,22,2025-06-04_12h58.53.563,Serial_Dependence_U,2023.2.3,Win32,59.523809523799216,,,,,,2225.1169000000355,108,6,2225.117,108,,,,2228.471300000012,2228.9716000000235,2227.9704000000356,2228.4712000000472,2226.1344000000354,2227.970200000048,2228.9716000000235,2229.4721000000236,2229.4722000000475,2231.3416000000234,1235,2231.341800000012,5,2231.3421000000235,6,29,209,15,1,0.8,0.7,Time
,,768696,001,女,22,2025-06-04_12h58.53.563,Serial_Dependence_U,2023.2.3,Win32,59.523809523799216,,,,,,2231.3424999999997,322,7,2264.9905,322,s,33.635800000012296,,2269.130100000024,2269.630100000024,2268.629,2269.13,2265.9918000000116,2268.628900000035,2269.630200000048,2270.130700000048,2270.1308000000117,2273.1523000000116,2622,2273.1524000000354,5,2273.152700000048,7,0,210,19,1,1.6,0.7,Time
,,768696,001,女,22,2025-06-04_12h58.53.563,Serial_Dependence_U,2023.2.3,Win32,59.523809523799216,,,,,,2273.153100000024,165,7,2273.1547000000473,165,,,,2276.690900000036,2277.1912000000475,2276.190300000012,2276.690800000012,2274.1539999999995,2276.1902000000473,2277.1912000000475,2277.6918000000114,2277.6918000000114,2281.3974000000353,3279,2281.397600000024,5,2281.398,7,1,211,6,1,1,0.7,Time
,,768696,001,女,22,2025-06-04_12h58.53.563,Serial_Dependence_U,2023.2.3,Win32,59.523809523799216,,,,,,2281.3983000000117,311,7,2281.3985000000002,311,,,,2284.786600000024,2285.2863000000116,2284.268700000048,2284.7865,2282.3989999999994,2284.268600000024,2285.2863000000116,2285.7869000000355,2285.7869000000355,2289.2423000000117,3002,2289.2424000000356,5,2289.242800000012,7,2,212,10,1,0.8,0.3,Time
,,768696,001,女,22,2025-06-04_12h58.53.563,Serial_Dependence_U,2023.2.3,Win32,59.523809523799216,,,,,,2289.243200000047,120,7,2289.2434999999996,120,,,,2293.014700000048,2293.5149000000356,2292.514,2293.0145,2290.243800000012,2292.5139000000354,2293.5149000000356,2294.015800000012,2294.015800000012,2297.621100000024,3152,2297.621200000048,5,2297.6215,7,3,213,22,1,1.2,0.3,Time
,,768696,001,女,22,2025-06-04_12h58.53.563,Serial_Dependence_U,2023.2.3,Win32,59.523809523799216,,,,,,2297.6218000000117,290,7,2297.6220000000003,290,,,,2301.7604999999994,2302.261200000047,2301.2595,2301.7604999999994,2298.622700000047,2301.2595,2302.261200000047,2302.7614999999996,2302.7616000000235,2305.8994000000357,2812,2305.8994999999995,5,2305.899800000012,7,4,214,29,1,1.6,0.7,Time
,,768696,001,女,22,2025-06-04_12h58.53.563,Serial_Dependence_U,2023.2.3,Win32,59.523809523799216,,,,,,2305.900300000012,8,7,2305.9004999999997,8,,,,2309.488800000012,2309.989400000036,2308.9709000000357,2309.4886000000233,2306.9013000000114,2308.970800000012,2309.989400000036,2310.489400000036,2310.4896000000235,2313.176900000036,2290,2313.1769999999997,5,2313.177400000036,7,5,215,1,1,1,0.3,Time
,,768696,001,女,22,2025-06-04_12h58.53.563,Serial_Dependence_U,2023.2.3,Win32,59.523809523799216,,,,,,2313.177800000012,185,7,2313.177900000036,185,,,,2317.149900000036,2317.6497000000472,2316.6489999999994,2317.149800000012,2314.1784000000353,2316.6489000000356,2317.649800000012,2318.150800000012,2318.150800000012,2320.5707000000475,2123,2320.5708000000113,5,2320.5711000000238,7,6,216,3,1,1.4,0.3,Time
,,768696,001,女,22,2025-06-04_12h58.53.563,Serial_Dependence_U,2023.2.3,Win32,59.523809523799216,,,,,,2320.571600000024,244,7,2320.5719000000354,244,,,,2324.5269000000353,2325.027600000024,2324.0095,2324.5268000000115,2321.5725,2324.0094000000354,2325.027600000024,2325.5278000000117,2325.5279000000355,2328.1322000000473,2056,2328.132300000012,5,2328.1324999999997,7,7,217,28,1,1.4,0.7,Time
,,768696,001,女,22,2025-06-04_12h58.53.563,Serial_Dependence_U,2023.2.3,Win32,59.523809523799216,,,,,,2328.132900000036,267,7,2328.1331000000237,267,,,,2331.9208000000117,2332.421100000024,2331.4034999999994,2331.9208000000117,2329.133400000035,2331.4034000000356,2332.421100000024,2332.921800000012,2332.9219000000357,2336.7941000000237,3379,2336.7942000000476,5,2336.7945,7,8,218,2,1,1.2,0.3,Time
,,768696,001,女,22,2025-06-04_12h58.53.563,Serial_Dependence_U,2023.2.3,Win32,59.523809523799216,,,,,,2336.795,247,7,2336.7952000000478,247,,,,2340.1829000000353,2340.683,2339.665600000024,2340.1827000000476,2337.7960000000003,2339.6655,2340.683100000024,2341.183700000048,2341.183700000048,2344.5222000000476,2938,2344.5224000000353,5,2344.522600000024,7,9,219,0,1,0.8,0.3,Time
,,768696,001,女,22,2025-06-04_12h58.53.563,Serial_Dependence_U,2023.2.3,Win32,59.523809523799216,,,,,,2344.5229000000354,84,7,2344.523200000048,84,,,,2348.261200000047,2348.761800000012,2347.7604000000356,2348.2611000000234,2345.5238000000118,2347.7604000000356,2348.761800000012,2349.2621000000236,2349.2621000000236,2352.9174000000357,2842,2352.9176000000234,5,2352.917900000036,7,10,220,17,1,1.2,0.7,Time
,,768696,001,女,22,2025-06-04_12h58.53.563,Serial_Dependence_U,2023.2.3,Win32,59.523809523799216,,,,,,2352.9181000000235,35,7,2352.9184999999998,35,,,,2356.472900000035,2356.9732000000477,2355.9557000000477,2356.4727000000476,2353.9194000000352,2355.955600000024,2356.9733000000115,2357.4743000000117,2357.4743000000117,2360.463300000012,2691,2360.463300000012,5,2360.4635,7,11,221,26,1,1,0.7,Time
,,768696,001,女,22,2025-06-04_12h58.53.563,Serial_Dependence_U,2023.2.3,Win32,59.523809523799216,,,,,,2360.464,166,7,2360.4642000000476,166,,,,2364.651600000024,2365.1518000000115,2364.1343000000115,2364.6515,2361.4636000000237,2364.1342000000477,2365.1518000000115,2365.6524000000354,2365.6525,2369.392,3150,2369.3921000000237,5,2369.392400000035,7,12,222,4,1,1.6,0.3,Time
,,768696,001,女,22,2025-06-04_12h58.53.563,Serial_Dependence_U,2023.2.3,Win32,59.523809523799216,,,,,,2369.3929000000353,7,7,2369.393100000024,7,,,,2372.947100000024,2373.447100000024,2372.4299000000356,2372.947,2370.3933000000115,2372.4298000000117,2373.447200000048,2373.9479999999994,2373.9481000000233,2376.8523000000114,2537,2376.8524000000352,5,2376.8529000000353,7,13,223,16,1,1,0.7,Time
,,768696,001,女,22,2025-06-04_12h58.53.563,Serial_Dependence_U,2023.2.3,Win32,59.523809523799216,,,,,,2376.8533000000116,206,7,2376.8535,206,,,,2380.8082000000477,2381.3085,2380.291100000024,2380.808,2377.854100000024,2380.291,2381.3085,2381.809800000012,2381.8099000000357,2384.7807000000475,2663,2384.7807000000475,5,2384.781,7,14,224,8,1,1.4,0.7,Time
,,768696,001,女,22,2025-06-04_12h58.53.563,Serial_Dependence_U,2023.2.3,Win32,59.523809523799216,,,,,,2384.7813000000115,190,7,2384.7817000000477,190,,,,2388.1191000000235,2388.619400000036,2387.618200000047,2388.1189999999997,2385.782200000048,2387.618200000047,2388.6195,2389.1203000000114,2389.1204000000353,2390.9896000000235,1481,2390.9897000000474,5,2390.9901000000236,7,15,225,25,1,0.8,0.7,Time
,,768696,001,女,22,2025-06-04_12h58.53.563,Serial_Dependence_U,2023.2.3,Win32,59.523809523799216,,,,,,2390.9905,303,7,2390.9907000000476,303,,,,2395.145900000036,2395.645800000012,2394.6285,2395.145800000012,2391.991,2394.628300000012,2395.645800000012,2396.1467000000475,2396.1467000000475,2398.768,2153,2398.768100000024,5,2398.7685,7,16,226,9,1,1.6,0.7,Time
,,768696,001,女,22,2025-06-04_12h58.53.563,Serial_Dependence_U,2023.2.3,Win32,59.523809523799216,,,,,,2398.7688000000117,65,7,2398.7690000000002,65,,,,2402.523200000048,2403.0233000000117,2402.0055,2402.523200000048,2399.7693000000118,2402.0055,2403.0234000000355,2403.5239999999994,2403.5239999999994,2405.7290000000003,1800,2405.729100000024,5,2405.7294000000356,7,17,227,27,1,1.2,0.7,Time
,,768696,001,女,22,2025-06-04_12h58.53.563,Serial_Dependence_U,2023.2.3,Win32,59.523809523799216,,,,,,2405.729800000012,154,7,2405.7301000000234,154,,,,2409.065800000012,2409.566,2408.5649999999996,2409.0657000000474,2406.729300000012,2408.5649999999996,2409.566,2410.0669000000353,2410.0669000000353,2412.871100000024,2466,2412.871200000048,5,2412.871600000024,7,18,228,5,1,0.8,0.7,Time
,,768696,001,女,22,2025-06-04_12h58.53.563,Serial_Dependence_U,2023.2.3,Win32,59.523809523799216,,,,,,2412.872100000024,295,7,2412.872300000012,295,,,,2416.860400000036,2417.3607000000475,2416.3433000000114,2416.8602000000474,2413.8729999999996,2416.3432000000475,2417.3607000000475,2417.8614000000352,2417.8615,2420.5989000000354,2405,2420.5989000000354,5,2420.5993000000117,7,19,229,13,1,1.4,0.3,Time
,,768696,001,女,22,2025-06-04_12h58.53.563,Serial_Dependence_U,2023.2.3,Win32,59.523809523799216,,,,,,2420.599700000048,155,7,2420.5999999999995,155,,,,2424.5718000000115,2425.0723000000116,2424.0711000000238,2424.571600000024,2421.6004000000357,2424.070900000035,2425.0723000000116,2425.572600000024,2425.572600000024,2428.0768000000116,2203,2428.0769000000355,5,2428.077200000048,7,20,230,23,1,1.4,0.3,Time
,,768696,001,女,22,2025-06-04_12h58.53.563,Serial_Dependence_U,2023.2.3,Win32,59.523809523799216,,,,,,2428.077700000047,156,7,2428.0779999999995,156,,,,2432.0164999999997,2432.5159999999996,2431.5151000000233,2432.016400000036,2429.078200000047,2431.5151000000233,2432.5161000000235,2433.0167000000474,2433.0167000000474,2435.1702000000478,532,2435.1703000000116,1,2435.170600000024,7,21,231,18,1,1.4,0.7,Time
,,768696,001,女,22,2025-06-04_12h58.53.563,Serial_Dependence_U,2023.2.3,Win32,59.523809523799216,,,,,,2435.1709000000355,293,7,2435.171100000024,293,,,,2439.359900000036,2439.861600000024,2438.8426000000236,2439.359900000036,2436.1716000000233,2438.842400000036,2439.8617000000477,2440.360800000012,2440.360800000012,2444.9343000000117,3176,2444.9344000000356,5,2444.934700000047,7,22,232,14,1,1.6,0.3,Time
,,768696,001,女,22,2025-06-04_12h58.53.563,Serial_Dependence_U,2023.2.3,Win32,59.523809523799216,,,,,,2444.9349999999995,163,7,2444.935300000012,163,,,,2448.2892000000475,2448.7896000000237,2447.772100000024,2448.2892000000475,2445.9356000000234,2447.772,2448.7896000000237,2449.2903000000115,2449.2904000000353,2452.6456000000235,2937,2452.6456000000235,5,2452.6461000000236,7,23,233,15,1,0.8,0.7,Time
,,768696,001,女,22,2025-06-04_12h58.53.563,Serial_Dependence_U,2023.2.3,Win32,59.523809523799216,,,,,,2452.6466000000237,19,7,2452.6468000000114,19,,,,2456.2341000000233,2456.7344000000357,2455.716900000036,2456.2339999999995,2453.6472000000476,2455.7167000000472,2456.7344999999996,2457.2352000000474,2457.2352000000474,2460.2896000000237,2693,2460.2897000000476,5,2460.29,7,24,234,11,1,1,0.3,Time
,,768696,001,女,22,2025-06-04_12h58.53.563,Serial_Dependence_U,2023.2.3,Win32,59.523809523799216,,,,,,2460.2904000000353,352,7,2460.2907000000478,352,,,,2464.462900000036,2464.9631000000236,2463.9619000000357,2464.462800000012,2461.2915000000003,2463.961800000012,2464.9632000000474,2465.4637000000475,2465.4638000000114,2468.2347000000473,2294,2468.234800000012,5,2468.2351000000235,7,25,235,24,1,1.6,0.3,Time
,,768696,001,女,22,2025-06-04_12h58.53.563,Serial_Dependence_U,2023.2.3,Win32,59.523809523799216,,,,,,2468.2356000000236,196,7,2468.235800000012,196,,,,2471.9907000000476,2472.4908000000114,2471.473100000024,2471.9906000000237,2469.2362000000476,2471.473100000024,2472.4909000000353,2472.9913000000115,2472.9914000000354,2476.5798000000113,2912,2476.579900000035,5,2476.5802000000476,7,26,236,7,1,1.2,0.7,Time
,,768696,001,女,22,2025-06-04_12h58.53.563,Serial_Dependence_U,2023.2.3,Win32,59.523809523799216,,,,,,2476.5805,60,7,2476.5808000000115,60,,,,2479.9519000000355,2480.452200000048,2479.451,2479.9518000000116,2477.5815000000002,2479.4509000000353,2480.4523000000117,2480.9526000000233,2480.9526000000233,2483.556900000036,2105,2483.557,5,2483.557400000036,7,27,237,20,1,0.8,0.3,Time
,,768696,001,女,22,2025-06-04_12h58.53.563,Serial_Dependence_U,2023.2.3,Win32,59.523809523799216,,,,,,2483.5578000000114,14,7,2483.558100000024,14,,,,2487.329400000036,2487.829400000036,2486.8287000000473,2487.3292000000474,2484.5584000000354,2486.8284999999996,2487.829400000036,2488.330100000024,2488.3302000000476,2491.134700000048,2404,2491.1348000000116,5,2491.135100000024,7,28,238,12,1,1.2,0.3,Time
,,768696,001,女,22,2025-06-04_12h58.53.563,Serial_Dependence_U,2023.2.3,Win32,59.523809523799216,,,,,,2491.1354000000356,253,7,2491.135700000047,253,,,,2494.7069000000356,2495.206700000048,2494.206100000024,2494.7068000000118,2492.136300000012,2494.206,2495.206700000048,2495.7074999999995,2495.7074999999995,2498.5126000000237,2474,2498.5126000000237,5,2498.512900000035,7,29,239,21,1,1,0.3,Time
,,768696,001,女,22,2025-06-04_12h58.53.563,Serial_Dependence_U,2023.2.3,Win32,59.523809523799216,,,,,,2498.5132000000476,42,8,2515.8703000000114,42,s,17.33910000002379,,2519.8431000000237,2520.3435,2519.3422000000473,2519.843,2516.872100000024,2519.3419999999996,2520.3435,2520.8439000000353,2520.844,2524.0988000000116,1834,2524.0989000000354,5,2524.099200000048,8,0,240,23,1,1.4,0.3,Time
,,768696,001,女,22,2025-06-04_12h58.53.563,Serial_Dependence_U,2023.2.3,Win32,59.523809523799216,,,,,,2524.099600000024,242,8,2524.1009999999997,242,,,,2527.4874000000354,2527.9873000000116,2526.9700000000003,2527.4873000000116,2525.1009999999997,2526.9699000000355,2527.9874000000354,2528.488200000048,2528.488300000012,2531.393,2610,2531.393,5,2531.3935,8,1,241,20,1,0.8,0.3,Time
,,768696,001,女,22,2025-06-04_12h58.53.563,Serial_Dependence_U,2023.2.3,Win32,59.523809523799216,,,,,,2531.3939000000355,90,8,2531.3943000000118,90,,,,2534.7312000000475,2535.231300000012,2534.230300000012,2534.7311000000236,2532.3944999999994,2534.2302000000473,2535.231400000036,2535.732,2535.732100000024,2538.653100000024,2554,2538.653100000024,5,2538.6534999999994,8,2,242,15,1,0.8,0.7,Time
,,768696,001,女,22,2025-06-04_12h58.53.563,Serial_Dependence_U,2023.2.3,Win32,59.523809523799216,,,,,,2538.6539999999995,345,8,2538.654300000012,345,,,,2542.459,2542.9591000000237,2541.9417000000476,2542.459,2539.671300000012,2541.9416000000238,2542.9592000000475,2543.46,2543.46,2546.4146000000237,2546,2546.4147000000476,5,2546.415,8,3,243,12,1,1.2,0.3,Time
,,768696,001,女,22,2025-06-04_12h58.53.563,Serial_Dependence_U,2023.2.3,Win32,59.523809523799216,,,,,,2546.4154000000353,164,8,2546.4155,164,,,,2550.1885,2550.687,2549.6859999999997,2550.1884000000355,2547.4158000000116,2549.685900000036,2550.6871000000237,2551.1878000000115,2551.1878000000115,2554.1923000000115,2527,2554.1924000000354,5,2554.1928000000116,8,4,244,2,1,1.2,0.3,Time
,,768696,001,女,22,2025-06-04_12h58.53.563,Serial_Dependence_U,2023.2.3,Win32,59.523809523799216,,,,,,2554.193,37,8,2554.1933000000117,37,,,,2558.3488000000116,2558.8493000000117,2557.8314000000355,2558.3488000000116,2555.193800000012,2557.8314000000355,2558.8494000000355,2559.349700000048,2559.349700000048,2562.771300000012,2905,2562.771400000036,5,2562.7717000000475,8,5,245,9,1,1.6,0.7,Time
,,768696,001,女,22,2025-06-04_12h58.53.563,Serial_Dependence_U,2023.2.3,Win32,59.523809523799216,,,,,,2562.772100000024,213,8,2562.7724000000353,213,,,,2566.3602000000474,2566.8605,2565.8435,2566.3601000000235,2563.7733000000117,2565.8435,2566.8605,2567.3612000000476,2567.3612000000476,2570.5159999999996,2715,2570.5162000000473,5,2570.516400000036,8,6,246,21,1,1,0.3,Time
,,768696,001,女,22,2025-06-04_12h58.53.563,Serial_Dependence_U,2023.2.3,Win32,59.523809523799216,,,,,,2570.516800000012,19,8,2570.516900000036,19,,,,2574.255100000024,2574.755200000048,2573.7542000000476,2574.2549000000354,2571.5175,2573.7541000000238,2574.755200000048,2575.2559999999994,2575.2559999999994,2578.8613000000114,2963,2578.8614000000352,5,2578.861600000024,8,7,247,27,1,1.2,0.7,Time
,,768696,001,女,22,2025-06-04_12h58.53.563,Serial_Dependence_U,2023.2.3,Win32,59.523809523799216,,,,,,2578.862,33,8,2578.862100000024,33,,,,2583.050800000012,2583.5517000000473,2582.533800000012,2583.050700000048,2579.863300000012,2582.533800000012,2583.5517000000473,2584.0521000000235,2584.0521000000235,2587.7076000000234,3269,2587.707700000047,5,2587.707900000036,8,8,248,14,1,1.6,0.3,Time
,,768696,001,女,22,2025-06-04_12h58.53.563,Serial_Dependence_U,2023.2.3,Win32,59.523809523799216,,,,,,2587.7084999999997,75,8,2587.7087000000474,75,,,,2591.680300000012,2592.1806000000233,2591.1793000000116,2591.680100000024,2588.7093000000114,2591.179200000048,2592.180700000047,2592.6812000000473,2592.681300000012,2596.219700000048,2796,2596.2198000000117,5,2596.2200000000003,8,9,249,13,1,1.4,0.3,Time
,,768696,001,女,22,2025-06-04_12h58.53.563,Serial_Dependence_U,2023.2.3,Win32,59.523809523799216,,,,,,2596.2204000000356,258,8,2596.220700000047,258,,,,2599.9923000000117,2600.4924000000356,2599.491700000048,2599.9923000000117,2597.221300000012,2599.491600000024,2600.4925000000003,2600.993200000047,2600.993300000012,2604.4153000000115,3046,2604.4154000000353,5,2604.4157000000478,8,10,250,22,1,1.2,0.3,Time
,,768696,001,女,22,2025-06-04_12h58.53.563,Serial_Dependence_U,2023.2.3,Win32,59.523809523799216,,,,,,2604.416100000024,289,8,2604.4164000000355,289,,,,2607.7536000000237,2608.2537000000475,2607.252800000012,2607.7535,2605.4169000000356,2607.2527000000473,2608.2538000000113,2608.7545,2608.7545,2611.658800000012,2492,2611.6589999999997,5,2611.659400000036,8,11,251,25,1,0.8,0.7,Time
,,768696,001,女,22,2025-06-04_12h58.53.563,Serial_Dependence_U,2023.2.3,Win32,59.523809523799216,,,,,,2611.66,14,8,2611.660400000035,14,,,,2615.014,2615.5145,2614.496600000024,2615.0139000000354,2612.660400000035,2614.4965,2615.514600000024,2616.0149000000356,2616.0149999999994,2619.0364000000354,2640,2619.0365,5,2619.0368000000117,8,12,252,5,1,0.8,0.7,Time
,,768696,001,女,22,2025-06-04_12h58.53.563,Serial_Dependence_U,2023.2.3,Win32,59.523809523799216,,,,,,2619.0370000000003,172,8,2619.037300000012,172,,,,2622.441400000035,2622.9416000000238,2621.924100000024,2622.4413000000113,2620.054600000024,2621.924,2622.9417000000476,2623.4423000000115,2623.4423000000115,2627.849700000048,2591,2627.849700000048,5,2627.850200000047,8,13,253,10,1,0.8,0.3,Time
