Scale_setup.started,Scale_setup.stopped,participant,session,sex,age,date,expName,psychopyVersion,OS,frameRate,Intro.started,Intro.stopped,key_resp_2.keys,key_resp_2.rt,key_resp_2.duration,block.started,direction,Block_id,block.stopped,trial_direction,Block_resp_2.keys,Block_resp_2.rt,Block_resp_2.duration,ITI.started,ITI.stopped,Mask_2.started,Mask_2.stopped,encoding.started,encoding.stopped,Cue.started,Cue.stopped,Response.started,Response.stopped,keyDuration,Feedback_Time.started,FeedbackID_T,Feedback_Time.stopped,trials.thisRepN,trials.thisTrialN,trials.thisN,trials.thisIndex,trials.ran,TimeDur,Coherence1,TrialType
0.0002000000030193405,0.00030000000447216735,784269,001,女,21,2025-06-03_22h40.14.546,Serial_Dependence_U,2023.2.3,Win32,120.48192771101236,,,,,,,,,,,,,,,,,,,,,,,,,,,,,,,,,,,
,,784269,001,女,21,2025-06-03_22h40.14.546,Serial_Dependence_U,2023.2.3,Win32,120.48192771101236,68.94220000000303,126.78510000000153,space,57.81419999999554,,,,,,,,,,,,,,,,,,,,,,,,,,,,,,,
,,784269,001,女,21,2025-06-03_22h40.14.546,Serial_Dependence_U,2023.2.3,Win32,120.48192771101236,,,,,,126.79580000000448,325,0,131.9166000000015,325,s,5.105500000000006,,135.66639999999853,136.1661000000015,135.1583000000045,135.66630000000453,132.92520000000303,135.15820000000303,136.16639999999853,136.6673000000045,136.66739999999857,190.19970000000302,3786,190.19989999999854,5,191.19539999999853,0,0,0,7,1,1.2,0.7,Time
,,784269,001,女,21,2025-06-03_22h40.14.546,Serial_Dependence_U,2023.2.3,Win32,120.48192771101236,,,,,,191.19610000000154,219,0,191.19780000000452,219,,,,194.97060000000153,195.47010000000154,194.46239999999852,194.97050000000002,192.195700000003,194.46230000000452,195.470200000003,195.97010000000154,195.970200000003,199.92039999999855,2473,199.9205,5,200.92010000000153,0,1,1,22,1,1.2,0.3,Time
,,784269,001,女,21,2025-06-03_22h40.14.546,Serial_Dependence_U,2023.2.3,Win32,120.48192771101236,,,,,,200.9206000000015,41,0,200.92070000000302,41,,,,204.87050000000005,205.3698000000045,204.36210000000153,204.87039999999854,201.92880000000451,204.3618999999985,205.36989999999855,205.8698000000045,205.86989999999855,214.1868000000045,2584,214.1868000000045,5,215.1863000000045,0,2,2,28,1,1.4,0.7,Time
,,784269,001,女,21,2025-06-03_22h40.14.546,Serial_Dependence_U,2023.2.3,Win32,120.48192771101236,,,,,,215.18670000000304,44,0,215.1868000000045,44,,,,219.32830000000445,219.82789999999852,218.82020000000296,219.328200000003,216.18780000000447,218.8201000000015,219.82789999999852,220.32799999999997,220.32799999999997,224.56150000000002,3409,224.56160000000148,5,225.5611000000015,0,3,3,19,1,1.6,0.7,Time
,,784269,001,女,21,2025-06-03_22h40.14.546,Serial_Dependence_U,2023.2.3,Win32,120.48192771101236,,,,,,225.56150000000002,62,0,225.56160000000148,62,,,,229.54480000000444,230.04439999999852,229.03689999999858,229.54480000000444,226.57000000000005,229.03670000000295,230.04439999999852,230.54430000000445,230.54439999999852,243.361,3359,243.361200000003,5,244.36089999999854,0,4,4,13,1,1.4,0.3,Time
,,784269,001,女,21,2025-06-03_22h40.14.546,Serial_Dependence_U,2023.2.3,Win32,120.48192771101236,,,,,,244.361200000003,21,0,244.36139999999853,21,,,,248.51130000000455,249.010700000003,248.00330000000451,248.51130000000455,245.36950000000002,248.00330000000451,249.010700000003,249.51060000000155,249.510700000003,253.18580000000452,3110,253.18600000000004,5,254.1856000000015,0,5,5,9,1,1.6,0.7,Time
,,784269,001,女,21,2025-06-03_22h40.14.546,Serial_Dependence_U,2023.2.3,Win32,120.48192771101236,,,,,,254.18600000000004,332,0,254.18620000000305,332,,,,258.3608000000045,258.8605,257.852700000003,258.3608000000045,255.18620000000305,257.85260000000153,258.8605,259.36039999999855,259.36039999999855,262.5023999999985,2940,262.50250000000005,5,263.5021000000015,0,6,6,4,1,1.6,0.3,Time
,,784269,001,女,21,2025-06-03_22h40.14.546,Serial_Dependence_U,2023.2.3,Win32,120.48192771101236,,,,,,263.5023999999985,254,0,263.5026000000015,254,,,,267.6858000000045,268.18530000000453,267.17830000000447,267.68570000000295,264.510700000003,267.178200000003,268.18530000000453,268.68530000000453,268.68530000000453,272.452200000003,3555,272.452200000003,5,273.4518000000045,0,7,7,14,1,1.6,0.3,Time
,,784269,001,女,21,2025-06-03_22h40.14.546,Serial_Dependence_U,2023.2.3,Win32,120.48192771101236,,,,,,273.452200000003,359,0,273.45239999999853,359,,,,277.00320000000306,277.50180000000455,276.4941000000015,277.0031000000015,274.46139999999855,276.494,277.50180000000455,278.0018999999985,278.0018999999985,282.28580000000454,3617,282.28600000000006,5,283.285200000003,0,8,8,6,1,1,0.7,Time
,,784269,001,女,21,2025-06-03_22h40.14.546,Serial_Dependence_U,2023.2.3,Win32,120.48192771101236,,,,,,283.2856000000015,340,0,283.28580000000454,340,,,,286.8353999999986,287.3353000000045,286.32710000000156,286.8353000000045,284.29360000000156,286.327,287.3353999999986,287.8348000000045,287.8348000000045,291.51860000000147,3335,291.51870000000304,5,292.51800000000003,0,9,9,16,1,1,0.7,Time
,,784269,001,女,21,2025-06-03_22h40.14.546,Serial_Dependence_U,2023.2.3,Win32,120.48192771101236,,,,,,292.51839999999856,102,0,292.5185,102,,,,296.70160000000146,297.2013000000045,296.19330000000446,296.7015,293.5268999999986,296.19330000000446,297.2013000000045,297.7013000000045,297.7013000000045,301.51,3199,301.51010000000156,5,302.5095,0,10,10,24,1,1.6,0.3,Time
,,784269,001,女,21,2025-06-03_22h40.14.546,Serial_Dependence_U,2023.2.3,Win32,120.48192771101236,,,,,,302.5098000000045,107,0,302.51,107,,,,305.8933000000045,306.39270000000306,305.3848000000045,305.89320000000305,303.51820000000305,305.384700000003,306.39270000000306,306.8928999999986,306.89300000000003,310.52630000000454,3175,310.5263999999985,5,311.52600000000007,0,11,11,10,1,0.8,0.3,Time
,,784269,001,女,21,2025-06-03_22h40.14.546,Serial_Dependence_U,2023.2.3,Win32,120.48192771101236,,,,,,311.52630000000454,82,0,311.52650000000006,82,,,,315.6678000000045,316.1678000000045,315.15960000000155,315.6678000000045,312.52650000000006,315.1595,316.16789999999855,316.66760000000147,316.66760000000147,320.95950000000005,4066,320.95950000000005,5,321.95900000000006,0,12,12,29,1,1.6,0.7,Time
,,784269,001,女,21,2025-06-03_22h40.14.546,Serial_Dependence_U,2023.2.3,Win32,120.48192771101236,,,,,,321.95930000000453,267,0,321.9593999999985,267,,,,325.3096000000015,325.8088999999985,324.80120000000306,325.30950000000007,322.96870000000297,324.8011000000015,325.8090000000001,326.30910000000154,326.309200000003,330.5178000000045,3889,330.5178999999986,5,331.51720000000296,0,13,13,25,1,0.8,0.7,Time
,,784269,001,女,21,2025-06-03_22h40.14.546,Serial_Dependence_U,2023.2.3,Win32,120.48192771101236,,,,,,331.5176000000015,199,0,331.51770000000306,199,,,,335.50080000000446,336.0005,334.99280000000454,335.500700000003,332.5258999999985,334.99270000000297,336.0005,336.50039999999854,336.5005,340.45070000000305,3730,340.4508000000045,5,341.4503999999986,0,14,14,23,1,1.4,0.3,Time
,,784269,001,女,21,2025-06-03_22h40.14.546,Serial_Dependence_U,2023.2.3,Win32,120.48192771101236,,,,,,341.4508000000045,144,0,341.45089999999857,144,,,,345.3928000000045,345.8918999999985,344.88389999999856,345.39270000000306,342.45089999999857,344.8838000000045,345.8918999999985,346.3918999999985,346.3918999999985,350.6255,3964,350.62560000000155,5,351.62510000000157,0,15,15,8,1,1.4,0.7,Time
,,784269,001,女,21,2025-06-03_22h40.14.546,Serial_Dependence_U,2023.2.3,Win32,120.48192771101236,,,,,,351.6255,70,0,351.6255,70,,,,355.60110000000157,356.1,355.09230000000446,355.60089999999855,352.6255,355.09210000000155,356.1,356.6,356.6,361.958700000003,4667,361.95880000000454,5,362.95810000000154,0,16,16,3,1,1.4,0.3,Time
,,784269,001,女,21,2025-06-03_22h40.14.546,Serial_Dependence_U,2023.2.3,Win32,120.48192771101236,,,,,,362.9585000000001,70,0,362.9585000000001,70,,,,366.53339999999855,367.03320000000303,366.0253999999985,366.5333000000045,363.958700000003,366.0253999999985,367.03320000000303,367.53310000000147,367.53310000000147,372.5665,3937,372.56670000000304,5,373.56620000000305,0,17,17,1,1,1,0.3,Time
,,784269,001,女,21,2025-06-03_22h40.14.546,Serial_Dependence_U,2023.2.3,Win32,120.48192771101236,,,,,,373.5666000000015,60,0,373.56670000000304,60,,,,377.3166000000015,377.81620000000305,376.80830000000446,377.3165,374.57500000000005,376.808200000003,377.81620000000305,378.31620000000305,378.31620000000305,383.82470000000296,3783,383.82470000000296,5,384.8243999999985,0,18,18,27,1,1.2,0.7,Time
,,784269,001,女,21,2025-06-03_22h40.14.546,Serial_Dependence_U,2023.2.3,Win32,120.48192771101236,,,,,,384.82470000000296,301,0,384.82470000000296,301,,,,388.5748999999986,389.07430000000454,388.06639999999857,388.5748999999986,385.833200000003,388.06639999999857,389.0743999999985,389.57430000000454,389.57430000000454,392.66670000000306,1457,392.66670000000306,4,393.6613999999986,0,19,19,17,1,1.2,0.7,Time
,,784269,001,女,21,2025-06-03_22h40.14.546,Serial_Dependence_U,2023.2.3,Win32,120.48192771101236,,,,,,393.6618000000045,227,0,393.6618999999986,227,,,,397.0033999999986,397.5031000000015,396.49510000000157,397.0033000000045,394.6616000000015,396.495,397.5031000000015,398.0028999999986,398.0028999999986,400.21139999999855,1527,400.2115,5,401.21110000000147,0,20,20,15,1,0.8,0.7,Time
,,784269,001,女,21,2025-06-03_22h40.14.546,Serial_Dependence_U,2023.2.3,Win32,120.48192771101236,,,,,,401.2115,148,0,401.21160000000157,148,,,,404.5948000000045,405.0943000000045,404.0865,404.59470000000306,402.2198000000045,404.08639999999855,405.0943000000045,405.5943000000045,405.5943999999986,407.22780000000455,1527,407.2278999999985,5,408.227700000003,0,21,21,0,1,0.8,0.3,Time
,,784269,001,女,21,2025-06-03_22h40.14.546,Serial_Dependence_U,2023.2.3,Win32,120.48192771101236,,,,,,408.22800000000007,309,0,408.2281000000015,309,,,,411.81120000000305,412.3113000000045,411.30360000000155,411.8111000000015,409.23630000000446,411.30339999999853,412.31139999999857,412.8108000000045,412.8108999999986,414.64439999999854,1160,414.6445,4,415.644200000003,0,22,22,11,1,1,0.3,Time
,,784269,001,女,21,2025-06-03_22h40.14.546,Serial_Dependence_U,2023.2.3,Win32,120.48192771101236,,,,,,415.6445,146,0,415.64460000000156,146,,,,419.22039999999856,419.71900000000005,418.71120000000303,419.2203000000045,416.64530000000445,418.71110000000147,419.71900000000005,420.21900000000005,420.2191000000015,422.5026000000015,1393,422.5026000000015,5,423.50250000000005,0,23,23,21,1,1,0.3,Time
,,784269,001,女,21,2025-06-03_22h40.14.546,Serial_Dependence_U,2023.2.3,Win32,120.48192771101236,,,,,,423.5028000000045,2,0,423.50300000000004,2,,,,427.45260000000155,427.952200000003,426.9443999999985,427.4525,424.51180000000454,426.94430000000455,427.95230000000447,428.452700000003,428.4528999999985,431.38580000000445,732,431.38580000000445,1,432.3855,0,24,24,18,1,1.4,0.7,Time
,,784269,001,女,21,2025-06-03_22h40.14.546,Serial_Dependence_U,2023.2.3,Win32,120.48192771101236,,,,,,432.38580000000445,194,0,432.3858999999985,194,,,,435.9358000000045,436.43530000000453,435.42770000000303,435.9356000000015,433.394200000003,435.42770000000303,436.4353999999985,436.93530000000453,436.9353999999985,439.5273000000045,1350,439.5273000000045,5,440.5268999999986,0,25,25,26,1,1,0.7,Time
,,784269,001,女,21,2025-06-03_22h40.14.546,Serial_Dependence_U,2023.2.3,Win32,120.48192771101236,,,,,,440.5273000000045,336,0,440.5273999999986,336,,,,443.91080000000454,444.41030000000455,443.40220000000306,443.910700000003,441.53580000000454,443.4021000000015,444.41030000000455,444.91030000000455,444.91030000000455,446.69380000000444,1146,446.69380000000444,5,447.6935,0,26,26,20,1,0.8,0.3,Time
,,784269,001,女,21,2025-06-03_22h40.14.546,Serial_Dependence_U,2023.2.3,Win32,120.48192771101236,,,,,,447.6940000000001,189,0,447.6941000000015,189,,,,451.46870000000297,451.9686000000015,450.9605,451.46870000000297,448.69380000000444,450.9603000000045,451.96870000000297,452.46830000000455,452.4683999999985,454.26860000000147,1075,454.26860000000147,2,455.2685,0,27,27,12,1,1.2,0.3,Time
,,784269,001,女,21,2025-06-03_22h40.14.546,Serial_Dependence_U,2023.2.3,Win32,120.48192771101236,,,,,,455.26889999999855,215,0,455.269,215,,,,459.0435,459.5431000000016,458.5353999999985,459.04339999999854,456.2688000000045,458.53530000000455,459.5431000000016,460.043200000003,460.043200000003,462.04339999999854,1510,462.0435,4,463.0431000000016,0,28,28,2,1,1.2,0.3,Time
,,784269,001,女,21,2025-06-03_22h40.14.546,Serial_Dependence_U,2023.2.3,Win32,120.48192771101236,,,,,,463.04339999999854,275,0,463.0435,275,,,,466.385200000003,466.8848000000045,465.87700000000007,466.38510000000156,464.04360000000156,465.8768999999985,466.88489999999854,467.384700000003,467.384700000003,469.0348999999985,1016,469.0350000000001,4,470.0345,0,29,29,5,1,0.8,0.7,Time
,,784269,001,女,21,2025-06-03_22h40.14.546,Serial_Dependence_U,2023.2.3,Win32,120.48192771101236,,,,,,470.0350000000001,259,1,537.9041000000016,259,s,67.85260000000142,,542.0836000000015,542.5830000000001,541.5753000000045,542.0835000000001,538.9088999999985,541.575200000003,542.5831000000015,543.0830000000001,543.083200000003,545.4248000000046,1879,545.4248000000046,4,545.4293000000044,1,0,30,4,1,1.6,0.3,Time
,,784269,001,女,21,2025-06-03_22h40.14.546,Serial_Dependence_U,2023.2.3,Win32,120.48192771101236,,,,,,545.4296000000015,345,1,545.4303999999985,345,,,,549.5668000000045,550.066200000003,549.0586000000015,549.566700000003,546.4253000000045,549.0583999999985,550.0663000000045,550.566200000003,550.5663000000045,552.974700000003,2389,552.974700000003,5,552.9783000000045,1,1,31,9,1,1.6,0.7,Time
,,784269,001,女,21,2025-06-03_22h40.14.546,Serial_Dependence_U,2023.2.3,Win32,120.48192771101236,,,,,,552.9783999999985,246,1,552.9785,246,,,,556.3165,556.8161000000015,555.8081000000016,556.3163999999986,553.9748999999986,555.8081000000016,556.8161000000015,557.316200000003,557.3163000000045,558.8328999999985,1455,558.8330000000001,5,558.8375,1,2,32,5,1,0.8,0.7,Time
,,784269,001,女,21,2025-06-03_22h40.14.546,Serial_Dependence_U,2023.2.3,Win32,120.48192771101236,,,,,,558.8378999999985,95,1,558.8378999999985,95,,,,562.409,562.9076000000015,561.900700000003,562.4088000000045,559.8330000000001,561.900700000003,562.9076000000015,563.407700000003,563.407700000003,566.7995000000001,2830,566.7996000000015,5,566.8043000000044,1,3,33,1,1,1,0.3,Time
,,784269,001,女,21,2025-06-03_22h40.14.546,Serial_Dependence_U,2023.2.3,Win32,120.48192771101236,,,,,,566.8046000000015,0,1,566.8046000000015,0,,,,570.749700000003,571.2491000000015,570.2413000000045,570.7496000000015,567.8078000000045,570.241200000003,571.249200000003,571.7491000000015,571.7491000000015,573.7995000000001,1995,573.7996000000015,5,573.8038000000045,1,4,34,8,1,1.4,0.7,Time
,,784269,001,女,21,2025-06-03_22h40.14.546,Serial_Dependence_U,2023.2.3,Win32,120.48192771101236,,,,,,573.804,341,1,573.8041000000015,341,,,,577.3495,577.849,576.8413000000045,577.3493000000045,574.8076000000016,576.841200000003,577.849,578.3491000000015,578.3491000000015,581.140700000003,2266,581.140700000003,5,581.145,1,5,35,6,1,1,0.7,Time
,,784269,001,女,21,2025-06-03_22h40.14.546,Serial_Dependence_U,2023.2.3,Win32,120.48192771101236,,,,,,581.1451000000015,9,1,581.1451000000015,9,,,,585.116200000003,585.6156000000016,584.6078000000045,585.1161000000016,582.1413999999985,584.607700000003,585.6156000000016,586.1153999999985,586.1153999999985,588.5657000000031,2218,588.5658000000045,5,588.5708000000045,1,6,36,3,1,1.4,0.3,Time
,,784269,001,女,21,2025-06-03_22h40.14.546,Serial_Dependence_U,2023.2.3,Win32,120.48192771101236,,,,,,588.5711000000015,105,1,588.571200000003,105,,,,592.5076000000015,593.0070000000001,591.999200000003,592.5073999999985,589.566,591.999200000003,593.0070000000001,593.5068999999985,593.5070000000001,595.5988000000045,1456,595.5988999999986,3,595.603200000003,1,7,37,18,1,1.4,0.7,Time
,,784269,001,女,21,2025-06-03_22h40.14.546,Serial_Dependence_U,2023.2.3,Win32,120.48192771101236,,,,,,595.6033999999985,85,1,595.6035,85,,,,599.1748999999985,599.6736000000016,598.674,599.1748999999985,596.6073999999985,598.6738999999985,599.6736000000016,600.1736000000016,600.1736000000016,603.6986000000015,2460,603.6986000000015,5,603.702700000003,1,8,38,11,1,1,0.3,Time
,,784269,001,女,21,2025-06-03_22h40.14.546,Serial_Dependence_U,2023.2.3,Win32,120.48192771101236,,,,,,603.7028999999985,153,1,603.703,153,,,,607.441200000003,607.94,606.932200000003,607.4408999999986,604.698700000003,606.932200000003,607.94,608.4398999999985,608.44,611.2403000000045,2374,611.2403000000045,5,611.245200000003,1,9,39,7,1,1.2,0.7,Time
,,784269,001,女,21,2025-06-03_22h40.14.546,Serial_Dependence_U,2023.2.3,Win32,120.48192771101236,,,,,,611.2456000000016,250,1,611.245700000003,250,,,,615.2153999999986,615.7148999999986,614.707,615.2153999999986,612.2403000000045,614.7068999999985,615.7148999999986,616.2148999999986,616.215,618.4236000000016,1647,618.4236000000016,4,618.428200000003,1,10,40,23,1,1.4,0.3,Time
,,784269,001,女,21,2025-06-03_22h40.14.546,Serial_Dependence_U,2023.2.3,Win32,120.48192771101236,,,,,,618.4283999999985,261,1,618.4286000000016,261,,,,621.765200000003,622.264700000003,621.2568000000045,621.7651000000016,619.4243000000045,621.2568000000045,622.264700000003,622.7648000000045,622.7648000000045,625.7815,2418,625.7815,5,625.7858999999985,1,11,41,25,1,0.8,0.7,Time
,,784269,001,女,21,2025-06-03_22h40.14.546,Serial_Dependence_U,2023.2.3,Win32,120.48192771101236,,,,,,625.7861000000015,172,1,625.786200000003,172,,,,629.731700000003,630.2316000000015,629.2235000000001,629.7316000000015,626.7900000000001,629.2233999999985,630.2316000000015,630.731200000003,630.731200000003,632.8651000000015,2115,632.865200000003,5,632.8695,1,12,42,28,1,1.4,0.7,Time
,,784269,001,女,21,2025-06-03_22h40.14.546,Serial_Dependence_U,2023.2.3,Win32,120.48192771101236,,,,,,632.8696000000015,275,1,632.869700000003,275,,,,636.4063000000045,636.9061000000015,635.8981000000015,636.4063000000045,633.865,635.8981000000015,636.906200000003,637.4060000000001,637.4061000000015,641.1896000000015,3001,641.1896000000015,5,641.1940000000001,1,13,43,16,1,1,0.7,Time
,,784269,001,女,21,2025-06-03_22h40.14.546,Serial_Dependence_U,2023.2.3,Win32,120.48192771101236,,,,,,641.194200000003,39,1,641.194200000003,39,,,,645.364700000003,645.8641000000015,644.8563999999985,645.364700000003,642.1898000000045,644.8563000000045,645.8641000000015,646.3645,646.364700000003,649.1731000000016,2272,649.1731000000016,5,649.1776000000015,1,14,44,24,1,1.6,0.3,Time
,,784269,001,女,21,2025-06-03_22h40.14.546,Serial_Dependence_U,2023.2.3,Win32,120.48192771101236,,,,,,649.1778999999985,291,1,649.178,291,,,,652.5563999999986,653.055700000003,652.0478999999985,652.5563999999986,650.1812000000031,652.0478999999985,653.055700000003,653.5556000000015,653.555700000003,655.481,1882,655.481,5,655.4858000000045,1,15,45,10,1,0.8,0.3,Time
,,784269,001,女,21,2025-06-03_22h40.14.546,Serial_Dependence_U,2023.2.3,Win32,120.48192771101236,,,,,,655.486,89,1,655.4861000000016,89,,,,659.0235,659.5223999999986,658.5143000000045,659.0233999999986,656.4811000000016,658.5143000000045,659.5223999999986,660.022200000003,660.022200000003,662.115200000003,1649,662.1153000000045,5,662.1193999999986,1,16,46,26,1,1,0.7,Time
,,784269,001,女,21,2025-06-03_22h40.14.546,Serial_Dependence_U,2023.2.3,Win32,120.48192771101236,,,,,,662.1195,172,1,662.119700000003,172,,,,666.0973999999985,666.5971000000015,665.5891000000015,666.0973999999985,663.1223999999985,665.589,666.597200000003,667.097200000003,667.097200000003,670.7723000000045,2615,670.7723999999986,5,670.7773000000045,1,17,47,13,1,1.4,0.3,Time
,,784269,001,女,21,2025-06-03_22h40.14.546,Serial_Dependence_U,2023.2.3,Win32,120.48192771101236,,,,,,670.7775,211,1,670.777700000003,211,,,,674.9473000000045,675.447,674.4391000000015,674.947200000003,671.7725,674.4390000000001,675.4471000000016,675.947,675.947,679.1138000000045,2533,679.1138999999986,5,679.1186000000015,1,18,48,14,1,1.6,0.3,Time
,,784269,001,女,21,2025-06-03_22h40.14.546,Serial_Dependence_U,2023.2.3,Win32,120.48192771101236,,,,,,679.1188000000045,33,1,679.1188999999986,33,,,,682.4553999999986,682.9553000000045,681.9475,682.4553000000045,680.1141000000015,681.9473000000045,682.9553000000045,683.4553000000045,683.4553999999986,686.155200000003,2096,686.1553000000044,5,686.1598000000045,1,19,49,15,1,0.8,0.7,Time
,,784269,001,女,21,2025-06-03_22h40.14.546,Serial_Dependence_U,2023.2.3,Win32,120.48192771101236,,,,,,686.1600000000001,137,1,686.1601000000015,137,,,,689.5386000000016,690.038200000003,689.0303000000044,689.5385,687.1636000000016,689.030200000003,690.038200000003,690.5383999999985,690.5383999999985,692.6966000000015,1501,692.696700000003,5,692.7003999999986,1,20,50,0,1,0.8,0.3,Time
,,784269,001,女,21,2025-06-03_22h40.14.546,Serial_Dependence_U,2023.2.3,Win32,120.48192771101236,,,,,,692.7006000000015,31,1,692.700700000003,31,,,,696.8385000000001,697.3378999999985,696.3301000000015,696.8385000000001,693.697200000003,696.33,697.3378999999985,697.8380000000001,697.8380000000001,700.9221000000015,2516,700.9221000000015,5,700.927,1,21,51,29,1,1.6,0.7,Time
,,784269,001,女,21,2025-06-03_22h40.14.546,Serial_Dependence_U,2023.2.3,Win32,120.48192771101236,,,,,,700.9273000000045,3,1,700.9273999999986,3,,,,704.297,704.796200000003,703.7966000000015,704.297,701.9298000000045,703.7965,704.796200000003,705.2963000000045,705.2963000000045,707.2383000000045,1542,707.2383000000045,5,707.2426000000015,1,22,52,20,1,0.8,0.3,Time
,,784269,001,女,21,2025-06-03_22h40.14.546,Serial_Dependence_U,2023.2.3,Win32,120.48192771101236,,,,,,707.2428000000045,184,1,707.2428000000045,184,,,,710.9883000000045,711.4878000000045,710.4798999999986,710.9883000000045,708.2465000000001,710.479700000003,711.4878000000045,711.987700000003,711.9878000000045,715.738,3083,715.7381000000015,5,715.7428999999985,1,23,53,17,1,1.2,0.7,Time
,,784269,001,女,21,2025-06-03_22h40.14.546,Serial_Dependence_U,2023.2.3,Win32,120.48192771101236,,,,,,715.7431000000015,69,1,715.7433000000045,69,,,,719.5213999999985,720.0208999999986,719.0128999999986,719.5213999999985,716.7468999999985,719.0128999999986,720.0208999999986,720.5208999999986,720.5208999999986,723.7213000000045,2437,723.7213000000045,5,723.7257000000029,1,24,54,2,1,1.2,0.3,Time
,,784269,001,女,21,2025-06-03_22h40.14.546,Serial_Dependence_U,2023.2.3,Win32,120.48192771101236,,,,,,723.7260000000001,68,1,723.7261000000015,68,,,,727.4961000000014,727.9958000000045,726.9877000000031,727.4961000000014,724.7213000000045,726.9876000000015,727.9958000000045,728.4957000000029,728.4957000000029,731.821200000003,2593,731.8213000000044,5,731.826,1,25,55,22,1,1.2,0.3,Time
,,784269,001,女,21,2025-06-03_22h40.14.546,Serial_Dependence_U,2023.2.3,Win32,120.48192771101236,,,,,,731.8263000000045,316,1,731.8265000000001,316,,,,735.962700000003,736.4622000000029,735.4545,735.9626000000014,732.821200000003,735.4545,736.4623000000045,736.9623000000045,736.9623999999985,739.629200000003,2559,739.629200000003,5,739.633700000003,1,26,56,19,1,1.6,0.7,Time
,,784269,001,女,21,2025-06-03_22h40.14.546,Serial_Dependence_U,2023.2.3,Win32,120.48192771101236,,,,,,739.6338999999984,144,1,739.634,144,,,,743.4126000000015,743.9121000000016,742.9043000000045,743.4126000000015,740.6373999999985,742.9043000000045,743.9121000000016,744.4122000000029,744.4122000000029,748.4955,3117,748.4956000000016,5,748.5,1,27,57,12,1,1.2,0.3,Time
,,784269,001,女,21,2025-06-03_22h40.14.546,Serial_Dependence_U,2023.2.3,Win32,120.48192771101236,,,,,,748.5002000000029,148,1,748.5003000000045,148,,,,752.0792000000031,752.5785000000001,751.5708999999986,752.0791000000015,749.5040000000001,751.5708999999986,752.5786000000014,753.078700000003,753.078700000003,756.9788999999985,3034,756.9788999999985,5,756.9828999999986,1,28,58,21,1,1,0.3,Time
,,784269,001,女,21,2025-06-03_22h40.14.546,Serial_Dependence_U,2023.2.3,Win32,120.48192771101236,,,,,,756.9831000000015,168,1,756.9833000000044,168,,,,760.7287000000031,761.2283000000045,760.2203999999986,760.7286000000015,757.9870000000001,760.2203999999986,761.2283999999986,761.7288000000044,761.729,762.262,43,762.2621000000015,1,762.2667000000031,1,29,59,27,1,1.2,0.7,Time
,,784269,001,女,21,2025-06-03_22h40.14.546,Serial_Dependence_U,2023.2.3,Win32,120.48192771101236,,,,,,762.2668999999985,214,2,933.4456000000015,214,s,171.16600000000005,,936.7838999999984,937.2828000000044,936.2752000000029,936.7837000000028,934.4423000000044,936.2752000000029,937.2828000000044,937.7833000000045,937.7833999999983,940.2164999999999,2320,940.2164999999999,5,940.2209999999999,2,0,60,15,1,0.8,0.7,Time
,,784269,001,女,21,2025-06-03_22h40.14.546,Serial_Dependence_U,2023.2.3,Win32,120.48192771101236,,,,,,940.2213000000044,105,2,940.2227000000029,105,,,,943.5667000000029,944.0663000000044,943.0583000000044,943.5666000000014,941.225,943.0582000000028,944.0663000000044,944.5662000000028,944.5662000000028,947.2247000000028,2583,947.2247000000028,5,947.2291000000015,2,1,61,5,1,0.8,0.7,Time
,,784269,001,女,21,2025-06-03_22h40.14.546,Serial_Dependence_U,2023.2.3,Win32,120.48192771101236,,,,,,947.2293000000044,144,2,947.2293000000044,144,,,,951.0081000000015,951.5076000000014,950.4998000000045,951.0079999999999,948.2333000000043,950.4997000000029,951.5076000000014,952.007700000003,952.007700000003,955.1161000000014,2357,955.1161000000014,5,955.1198999999984,2,2,62,12,1,1.2,0.3,Time
,,784269,001,女,21,2025-06-03_22h40.14.546,Serial_Dependence_U,2023.2.3,Win32,120.48192771101236,,,,,,955.1202000000029,29,2,955.1202000000029,29,,,,958.8666000000013,959.3658000000045,958.3591000000014,958.8663999999984,956.1247000000029,958.3591000000014,959.3658000000045,959.8665,959.8665,962.6161000000014,2110,962.6161000000014,5,962.621,2,3,63,17,1,1.2,0.7,Time
,,784269,001,女,21,2025-06-03_22h40.14.546,Serial_Dependence_U,2023.2.3,Win32,120.48192771101236,,,,,,962.6212000000029,294,2,962.6213000000045,294,,,,966.1909999999999,966.6906000000014,965.6833999999984,966.1909999999999,963.6161000000014,965.6832000000028,966.6906000000014,967.190700000003,967.190700000003,970.7658000000043,2659,970.7658000000043,5,970.7706000000013,2,4,64,21,1,1,0.3,Time
,,784269,001,女,21,2025-06-03_22h40.14.546,Serial_Dependence_U,2023.2.3,Win32,120.48192771101236,,,,,,970.7708999999985,114,2,970.7708999999985,114,,,,974.1492000000029,974.6488000000044,973.641,974.1492000000029,971.7742000000029,973.6408999999984,974.6488000000044,975.1488000000044,975.1488000000044,978.2408000000045,2614,978.2408000000045,5,978.2453999999983,2,5,65,0,1,0.8,0.3,Time
,,784269,001,女,21,2025-06-03_22h40.14.546,Serial_Dependence_U,2023.2.3,Win32,120.48192771101236,,,,,,978.2457000000028,247,2,978.2457000000028,247,,,,981.7908999999985,982.2906000000013,981.2823999999983,981.7908000000044,979.2491000000015,981.2823000000043,982.2907000000029,982.790200000003,982.7903000000043,986.0738000000043,2529,986.0738000000043,5,986.0787000000029,2,6,66,26,1,1,0.7,Time
,,784269,001,女,21,2025-06-03_22h40.14.546,Serial_Dependence_U,2023.2.3,Win32,120.48192771101236,,,,,,986.0788999999985,280,2,986.0789999999998,280,,,,990.2573000000044,990.7568000000043,989.7488000000043,990.2572000000029,987.0821000000013,989.7488000000043,990.7568000000043,991.2568000000043,991.2568000000043,993.1653999999984,1364,993.1653999999984,2,993.169700000003,2,7,67,24,1,1.6,0.3,Time
,,784269,001,女,21,2025-06-03_22h40.14.546,Serial_Dependence_U,2023.2.3,Win32,120.48192771101236,,,,,,993.17,211,2,993.17,211,,,,997.1403000000045,997.6398999999984,996.6321000000015,997.1402000000029,994.1655,996.632,997.6398999999984,998.14,998.1401000000013,999.7151000000014,1509,999.7152000000029,4,999.7203999999984,2,8,68,23,1,1.4,0.3,Time
,,784269,001,女,21,2025-06-03_22h40.14.546,Serial_Dependence_U,2023.2.3,Win32,120.48192771101236,,,,,,999.7207000000029,268,2,999.7207000000029,268,,,,1003.0902000000029,1003.5899999999998,1002.582,1003.0902000000029,1000.7157000000028,1002.5818999999984,1003.5899999999998,1004.0898999999985,1004.0898999999985,1006.8318000000044,1909,1006.8318999999984,5,1006.8362000000028,2,9,69,20,1,0.8,0.3,Time
,,784269,001,女,21,2025-06-03_22h40.14.546,Serial_Dependence_U,2023.2.3,Win32,120.48192771101236,,,,,,1006.8365,269,2,1006.8366000000013,269,,,,1010.9818000000045,1011.4813999999984,1010.4735,1010.9816000000013,1007.8403000000043,1010.4733999999984,1011.4813999999984,1011.9813000000044,1011.9813999999984,1013.9564999999999,1634,1013.9566000000015,3,1013.9608999999983,2,10,70,19,1,1.6,0.7,Time
,,784269,001,女,21,2025-06-03_22h40.14.546,Serial_Dependence_U,2023.2.3,Win32,120.48192771101236,,,,,,1013.9611000000015,324,2,1013.9611000000015,324,,,,1018.1066000000013,1018.6062000000028,1017.5983000000043,1018.1065,1014.9648999999985,1017.5983000000043,1018.6062000000028,1019.1063999999984,1019.1065,1019.5148000000044,156,1019.5148000000044,1,1019.5195,2,11,71,29,1,1.6,0.7,Time
,,784269,001,女,21,2025-06-03_22h40.14.546,Serial_Dependence_U,2023.2.3,Win32,120.48192771101236,,,,,,1019.5197000000029,21,2,1019.5198000000045,21,,,,1023.6982000000029,1024.197700000003,1023.1904999999998,1023.6981000000013,1020.523,1023.1902000000028,1024.1978000000045,1024.697700000003,1024.697700000003,1027.8980000000001,2542,1027.8980000000001,5,1027.9028999999982,2,12,72,14,1,1.6,0.3,Time
,,784269,001,女,21,2025-06-03_22h40.14.546,Serial_Dependence_U,2023.2.3,Win32,120.48192771101236,,,,,,1027.9029999999998,12,2,1027.9031000000014,12,,,,1031.2730000000001,1031.7725,1030.765200000003,1031.2730000000001,1028.8981000000013,1030.7649999999999,1031.7725,1032.2727000000027,1032.2727000000027,1035.1818999999982,2036,1035.1819999999998,5,1035.1863999999982,2,13,73,10,1,0.8,0.3,Time
,,784269,001,女,21,2025-06-03_22h40.14.546,Serial_Dependence_U,2023.2.3,Win32,120.48192771101236,,,,,,1035.1864999999998,230,2,1035.1864999999998,230,,,,1038.9226000000012,1039.4223999999986,1038.4143999999983,1038.9226000000012,1036.1821000000014,1038.4143999999983,1039.4223999999986,1039.9225000000001,1039.9225000000001,1042.8478000000046,2357,1042.8478000000046,5,1042.8526000000015,2,14,74,27,1,1.2,0.7,Time
,,784269,001,女,21,2025-06-03_22h40.14.546,Serial_Dependence_U,2023.2.3,Win32,120.48192771101236,,,,,,1042.8528999999985,229,2,1042.853,229,,,,1046.8154999999997,1047.314200000003,1046.3143999999984,1046.8153999999986,1043.8478000000046,1046.3143000000046,1047.314200000003,1047.8138999999983,1047.8138999999983,1051.3723000000045,2840,1051.3723000000045,5,1051.377200000003,2,15,75,3,1,1.4,0.3,Time
,,784269,001,女,21,2025-06-03_22h40.14.546,Serial_Dependence_U,2023.2.3,Win32,120.48192771101236,,,,,,1051.3773999999985,263,2,1051.3773999999985,263,,,,1055.3143000000046,1055.8137000000029,1054.8062000000027,1055.314200000003,1052.3726000000015,1054.8058999999985,1055.8137000000029,1056.314200000003,1056.3143000000046,1059.0807000000027,2117,1059.0807000000027,5,1059.0851000000016,2,16,76,28,1,1.4,0.7,Time
,,784269,001,女,21,2025-06-03_22h40.14.546,Serial_Dependence_U,2023.2.3,Win32,120.48192771101236,,,,,,1059.0853999999986,109,2,1059.0855000000001,109,,,,1063.0306000000014,1063.5302000000029,1062.5225,1063.0306000000014,1060.0891000000015,1062.5225,1063.5302000000029,1064.0303999999983,1064.0303999999983,1067.3306000000016,2332,1067.3307000000027,5,1067.3351000000016,2,17,77,8,1,1.4,0.7,Time
,,784269,001,女,21,2025-06-03_22h40.14.546,Serial_Dependence_U,2023.2.3,Win32,120.48192771101236,,,,,,1067.3353999999986,64,2,1067.3355000000001,64,,,,1071.2804999999998,1071.7801000000013,1070.772,1071.2803999999983,1068.3388999999984,1070.772,1071.7803000000044,1072.2801000000013,1072.2801000000013,1075.6141000000016,2824,1075.6143000000043,5,1075.6192000000028,2,18,78,18,1,1.4,0.7,Time
,,784269,001,女,21,2025-06-03_22h40.14.546,Serial_Dependence_U,2023.2.3,Win32,120.48192771101236,,,,,,1075.6193999999982,218,2,1075.6194999999998,218,,,,1079.1970000000001,1079.6965,1078.6888000000044,1079.1968999999985,1076.6219999999998,1078.6887000000029,1079.6965,1080.1965,1080.1966000000016,1082.5051000000012,1783,1082.5052000000028,5,1082.5103000000045,2,19,79,1,1,1,0.3,Time
,,784269,001,女,21,2025-06-03_22h40.14.546,Serial_Dependence_U,2023.2.3,Win32,120.48192771101236,,,,,,1082.5108000000046,303,2,1082.511,303,,,,1086.2552000000028,1086.7548000000043,1085.7468000000044,1086.2551000000012,1083.5144999999998,1085.7467000000029,1086.7548000000043,1087.2546000000016,1087.2546000000016,1090.08,2340,1090.0801000000015,5,1090.0846000000015,2,20,80,7,1,1.2,0.7,Time
,,784269,001,女,21,2025-06-03_22h40.14.546,Serial_Dependence_U,2023.2.3,Win32,120.48192771101236,,,,,,1090.0848000000042,273,2,1090.0848999999985,273,,,,1094.2548999999985,1094.7546000000016,1093.7467000000029,1094.2548000000043,1091.0801000000015,1093.7466000000013,1094.7546000000016,1095.2546000000016,1095.2547000000027,1098.388,2491,1098.388,5,1098.3926000000015,2,21,81,4,1,1.6,0.3,Time
,,784269,001,女,21,2025-06-03_22h40.14.546,Serial_Dependence_U,2023.2.3,Win32,120.48192771101236,,,,,,1098.3928999999985,214,2,1098.393,214,,,,1102.5308999999984,1103.0293000000042,1102.0298000000043,1102.5308000000045,1099.3971000000015,1102.0297000000028,1103.0293000000042,1103.5298000000043,1103.5298999999986,1106.6878999999985,2491,1106.688,5,1106.6925,2,22,82,9,1,1.6,0.7,Time
,,784269,001,女,21,2025-06-03_22h40.14.546,Serial_Dependence_U,2023.2.3,Win32,120.48192771101236,,,,,,1106.6928000000044,256,2,1106.6928000000044,256,,,,1110.2379999999998,1110.7374999999997,1109.729700000003,1110.2379999999998,1107.6963999999984,1109.7296000000015,1110.7374999999997,1111.2377000000029,1111.2378000000044,1114.2128000000043,2411,1114.2128000000043,5,1114.2173000000043,2,23,83,16,1,1,0.7,Time
,,784269,001,女,21,2025-06-03_22h40.14.546,Serial_Dependence_U,2023.2.3,Win32,120.48192771101236,,,,,,1114.2174999999997,295,2,1114.2176000000013,295,,,,1117.9961000000012,1118.4958999999985,1117.4878999999983,1117.996,1115.2212000000027,1117.4878000000044,1118.4958999999985,1118.9956000000016,1118.9957000000027,1122.0711000000015,2306,1122.0713000000042,5,1122.0765000000001,2,24,84,2,1,1.2,0.3,Time
,,784269,001,女,21,2025-06-03_22h40.14.546,Serial_Dependence_U,2023.2.3,Win32,120.48192771101236,,,,,,1122.0768000000044,333,2,1122.0768000000044,333,,,,1125.6221000000014,1126.1205,1125.1136000000015,1125.6219999999998,1123.0793999999983,1125.1135,1126.1205,1126.6206000000016,1126.6206000000016,1129.5708000000045,2366,1129.5708999999983,5,1129.5753000000045,2,25,85,6,1,1,0.7,Time
,,784269,001,女,21,2025-06-03_22h40.14.546,Serial_Dependence_U,2023.2.3,Win32,120.48192771101236,,,,,,1129.5756000000015,1,2,1129.5756000000015,1,,,,1133.1458000000043,1133.6453000000042,1132.638200000003,1133.1457000000028,1130.5708999999983,1132.638200000003,1133.6453000000042,1134.1453000000042,1134.1453999999985,1137.2206000000015,2509,1137.2206000000015,5,1137.2253999999984,2,26,86,11,1,1,0.3,Time
,,784269,001,女,21,2025-06-03_22h40.14.546,Serial_Dependence_U,2023.2.3,Win32,120.48192771101236,,,,,,1137.2256000000016,276,2,1137.2256000000016,276,,,,1141.0041000000015,1141.5034999999998,1140.4957000000027,1141.0041000000015,1138.2302000000027,1140.4957000000027,1141.5036000000014,1142.0034999999998,1142.0036000000014,1144.2037000000028,1641,1144.2037000000028,5,1144.2083999999986,2,27,87,22,1,1.2,0.3,Time
,,784269,001,女,21,2025-06-03_22h40.14.546,Serial_Dependence_U,2023.2.3,Win32,120.48192771101236,,,,,,1144.2087000000029,278,2,1144.2087000000029,278,,,,1147.5538999999985,1148.0533999999984,1147.0454999999997,1147.5538999999985,1145.2122000000027,1147.0453999999986,1148.0533999999984,1148.5533000000046,1148.5533000000046,1151.7869999999998,2261,1151.7871000000014,5,1151.7918999999983,2,28,88,25,1,0.8,0.7,Time
,,784269,001,女,21,2025-06-03_22h40.14.546,Serial_Dependence_U,2023.2.3,Win32,120.48192771101236,,,,,,1151.792,228,2,1151.792200000003,228,,,,1155.7622000000028,1156.2613999999985,1155.2536000000014,1155.7621000000013,1152.7869999999998,1155.2536000000014,1156.2615,1156.7615,1156.7615,1159.1033999999986,1783,1159.1036000000013,4,1159.1079999999997,2,29,89,13,1,1.4,0.3,Time
,,784269,001,女,21,2025-06-03_22h40.14.546,Serial_Dependence_U,2023.2.3,Win32,120.48192771101236,,,,,,1159.1083000000044,119,3,1191.1826000000015,119,s,32.057700000003024,,1194.7281000000012,1195.2273999999984,1194.2194999999997,1194.728,1192.1861000000013,1194.2194999999997,1195.2275,1195.7273999999984,1195.7275,1199.077700000003,2650,1199.0778000000046,5,1199.0826000000015,3,0,90,26,1,1,0.7,Time
,,784269,001,女,21,2025-06-03_22h40.14.546,Serial_Dependence_U,2023.2.3,Win32,120.48192771101236,,,,,,1199.0828999999985,273,3,1199.0837000000029,273,,,,1203.2608999999984,1203.7608000000046,1202.7528000000043,1203.2608999999984,1200.086200000003,1202.7527000000027,1203.7608999999984,1204.2603999999983,1204.2603999999983,1207.4782000000027,2667,1207.4783000000043,5,1207.4828000000043,3,1,91,24,1,1.6,0.3,Time
,,784269,001,女,21,2025-06-03_22h40.14.546,Serial_Dependence_U,2023.2.3,Win32,120.48192771101236,,,,,,1207.4828999999986,85,3,1207.4829999999997,85,,,,1211.260700000003,1211.7603000000045,1210.7526000000016,1211.260700000003,1208.4859999999999,1210.7526000000016,1211.7603999999983,1212.2603000000045,1212.2603000000045,1215.7356000000013,2360,1215.7358000000045,5,1215.7398999999982,3,2,92,22,1,1.2,0.3,Time
,,784269,001,女,21,2025-06-03_22h40.14.546,Serial_Dependence_U,2023.2.3,Win32,120.48192771101236,,,,,,1215.7399999999998,7,3,1215.7401000000013,7,,,,1219.4703999999983,1219.9683999999984,1218.969,1219.4703000000045,1216.7358000000045,1218.9688999999985,1219.9685,1220.4686000000015,1220.4686000000015,1223.5272000000027,2074,1223.5272000000027,5,1223.5319999999997,3,3,93,17,1,1.2,0.7,Time
,,784269,001,女,21,2025-06-03_22h40.14.546,Serial_Dependence_U,2023.2.3,Win32,120.48192771101236,,,,,,1223.5322000000028,305,3,1223.5323000000044,305,,,,1227.7103999999986,1228.2103000000043,1227.2019999999998,1227.7103000000043,1224.5355,1227.2019999999998,1228.2103999999986,1228.7101000000016,1228.7101000000016,1232.6853000000042,2924,1232.6853000000042,5,1232.69,3,4,94,14,1,1.6,0.3,Time
,,784269,001,女,21,2025-06-03_22h40.14.546,Serial_Dependence_U,2023.2.3,Win32,120.48192771101236,,,,,,1232.6903000000043,118,3,1232.6903000000043,118,,,,1236.6268999999984,1237.1268000000046,1236.1186000000016,1236.6268999999984,1233.6853000000042,1236.1186000000016,1237.1268000000046,1237.6264999999999,1237.6266000000014,1241.3766000000014,3031,1241.3766000000014,5,1241.3816000000015,3,5,95,18,1,1.4,0.7,Time
,,784269,001,女,21,2025-06-03_22h40.14.546,Serial_Dependence_U,2023.2.3,Win32,120.48192771101236,,,,,,1241.3818999999985,293,3,1241.382,293,,,,1244.96,1245.46,1244.452700000003,1244.96,1242.3851000000013,1244.4524999999999,1245.46,1245.9596000000015,1245.9596000000015,1248.719,2246,1248.7191000000016,5,1248.7233999999985,3,6,96,11,1,1,0.3,Time
,,784269,001,女,21,2025-06-03_22h40.14.546,Serial_Dependence_U,2023.2.3,Win32,120.48192771101236,,,,,,1248.7236000000016,257,3,1248.7237000000027,257,,,,1252.7016000000012,1253.2012000000027,1252.193200000003,1252.7015000000001,1249.7266000000013,1252.1931000000013,1253.2012000000027,1253.7011000000016,1253.7011000000016,1257.2347000000027,2813,1257.2348000000043,5,1257.2396000000012,3,7,97,3,1,1.4,0.3,Time
,,784269,001,女,21,2025-06-03_22h40.14.546,Serial_Dependence_U,2023.2.3,Win32,120.48192771101236,,,,,,1257.2398999999982,262,3,1257.2399999999998,262,,,,1261.1765,1261.676,1260.6682000000028,1261.1763999999985,1258.2348000000043,1260.6681000000012,1261.676,1262.176,1262.176,1265.8593999999985,3104,1265.8593999999985,5,1265.8645000000001,3,8,98,8,1,1.4,0.7,Time
,,784269,001,女,21,2025-06-03_22h40.14.546,Serial_Dependence_U,2023.2.3,Win32,120.48192771101236,,,,,,1265.8647000000028,160,3,1265.8648000000044,160,,,,1269.2428000000045,1269.7424999999998,1268.7347000000027,1269.2428000000045,1266.8678999999984,1268.7347000000027,1269.7424999999998,1270.2423999999983,1270.2424999999998,1272.2512000000029,1383,1272.2513000000044,5,1272.2558000000045,3,9,99,10,1,0.8,0.3,Time
,,784269,001,女,21,2025-06-03_22h40.14.546,Serial_Dependence_U,2023.2.3,Win32,120.48192771101236,,,,,,1272.2561000000014,255,3,1272.2561000000014,255,,,,1276.2343999999985,1276.7338999999984,1275.7262000000028,1276.2343000000042,1273.2595000000001,1275.7261000000012,1276.7338999999984,1277.2345,1277.2346000000016,1279.8601000000012,2022,1279.8603000000044,5,1279.8643000000043,3,10,100,13,1,1.4,0.3,Time
,,784269,001,女,21,2025-06-03_22h40.14.546,Serial_Dependence_U,2023.2.3,Win32,120.48192771101236,,,,,,1279.8645000000001,122,3,1279.8646000000012,122,,,,1284.0093999999985,1284.5088000000042,1283.5011000000013,1284.0092000000027,1280.8674999999998,1283.5009999999997,1284.5088000000042,1285.0088000000042,1285.0088999999984,1288.4506000000015,2782,1288.4506000000015,5,1288.4558000000043,3,11,101,9,1,1.6,0.7,Time
,,784269,001,女,21,2025-06-03_22h40.14.546,Serial_Dependence_U,2023.2.3,Win32,120.48192771101236,,,,,,1288.4560000000001,28,3,1288.4561000000012,28,,,,1291.825700000003,1292.3253000000045,1291.3175,1291.8256000000015,1289.4508000000042,1291.3173999999985,1292.3253000000045,1292.8253000000045,1292.8253999999984,1297.1253999999985,2574,1297.1255,5,1297.13,3,12,102,0,1,0.8,0.3,Time
,,784269,001,女,21,2025-06-03_22h40.14.546,Serial_Dependence_U,2023.2.3,Win32,120.48192771101236,,,,,,1297.1302000000028,127,3,1297.1303000000044,127,,,,1300.7088999999983,1301.2084999999997,1300.2006000000015,1300.7088999999983,1298.134,1300.2005,1301.2084999999997,1301.7086000000013,1301.7087000000029,1306.075200000003,1934,1306.075200000003,5,1306.0791000000013,3,13,103,1,1,1,0.3,Time
,,784269,001,女,21,2025-06-03_22h40.14.546,Serial_Dependence_U,2023.2.3,Win32,120.48192771101236,,,,,,1306.0792000000029,251,3,1306.0793000000044,251,,,,1309.858700000003,1310.3584999999998,1309.3503999999984,1309.858700000003,1307.0837000000029,1309.3503000000046,1310.3584999999998,1310.8583999999983,1310.8586000000014,1314.4668999999985,2758,1314.467,5,1314.4717000000028,3,14,104,2,1,1.2,0.3,Time
,,784269,001,女,21,2025-06-03_22h40.14.546,Serial_Dependence_U,2023.2.3,Win32,120.48192771101236,,,,,,1314.4718999999986,225,3,1314.4719999999998,225,,,,1317.8094999999998,1318.3081000000016,1317.3002000000029,1317.8093999999983,1315.4676000000013,1317.3001000000013,1318.3081000000016,1318.8081000000016,1318.8082000000027,1322.383200000003,2606,1322.383200000003,5,1322.3873000000044,3,15,105,25,1,0.8,0.7,Time
,,784269,001,女,21,2025-06-03_22h40.14.546,Serial_Dependence_U,2023.2.3,Win32,120.48192771101236,,,,,,1322.3874999999998,114,3,1322.3876000000014,114,,,,1325.7334999999998,1326.2328999999986,1325.226,1325.7333999999983,1323.3918000000044,1325.2258000000043,1326.2328999999986,1326.7328999999986,1326.7329999999997,1328.133200000003,767,1328.1333000000045,3,1328.1369999999997,3,16,106,15,1,0.8,0.7,Time
,,784269,001,女,21,2025-06-03_22h40.14.546,Serial_Dependence_U,2023.2.3,Win32,120.48192771101236,,,,,,1328.1373000000044,206,3,1328.1373000000044,206,,,,1331.4831000000013,1331.9829999999997,1330.975,1331.4831000000013,1329.1414999999997,1330.9748999999983,1331.9829999999997,1332.4828000000043,1332.4828000000043,1335.7918999999983,2308,1335.7918999999983,5,1335.7963999999984,3,17,107,5,1,0.8,0.7,Time
,,784269,001,女,21,2025-06-03_22h40.14.546,Serial_Dependence_U,2023.2.3,Win32,120.48192771101236,,,,,,1335.7966000000015,92,3,1335.7966000000015,92,,,,1339.5416000000014,1340.0408999999986,1339.033,1339.5414999999998,1336.7996000000012,1339.033,1340.0408999999986,1340.5408999999986,1340.5409999999997,1343.4413000000045,2091,1343.4413000000045,5,1343.4458999999983,3,18,108,27,1,1.2,0.7,Time
,,784269,001,女,21,2025-06-03_22h40.14.546,Serial_Dependence_U,2023.2.3,Win32,120.48192771101236,,,,,,1343.4461000000015,289,3,1343.4461000000015,289,,,,1347.183,1347.6825,1346.6754999999998,1347.1828999999984,1344.441700000003,1346.6752000000029,1347.6825,1348.1826000000015,1348.1826000000015,1351.1576000000014,2439,1351.157700000003,5,1351.1623000000045,3,19,109,7,1,1.2,0.7,Time
,,784269,001,女,21,2025-06-03_22h40.14.546,Serial_Dependence_U,2023.2.3,Win32,120.48192771101236,,,,,,1351.1625,61,3,1351.1625,61,,,,1355.2993999999985,1355.799,1354.7909999999997,1355.2993000000042,1352.1578999999983,1354.7908999999986,1355.799,1356.299,1356.299,1359.1077000000028,2115,1359.1077000000028,5,1359.1123999999986,3,20,110,19,1,1.6,0.7,Time
,,784269,001,女,21,2025-06-03_22h40.14.546,Serial_Dependence_U,2023.2.3,Win32,120.48192771101236,,,,,,1359.1127000000029,39,3,1359.1128000000044,39,,,,1363.2909999999997,1363.7905,1362.7837000000027,1363.2908999999986,1360.116,1362.7836000000016,1363.7905,1364.2905,1364.2906000000012,1365.3323000000046,506,1365.3323999999984,1,1365.3375,3,21,111,4,1,1.6,0.3,Time
,,784269,001,女,21,2025-06-03_22h40.14.546,Serial_Dependence_U,2023.2.3,Win32,120.48192771101236,,,,,,1365.3377000000028,219,3,1365.3378000000043,219,,,,1369.274,1369.773700000003,1368.7667000000029,1369.2738999999983,1366.3323999999984,1368.7667000000029,1369.773700000003,1370.273700000003,1370.273700000003,1374.0488999999984,2015,1374.049,5,1374.0538999999985,3,22,112,28,1,1.4,0.7,Time
,,784269,001,女,21,2025-06-03_22h40.14.546,Serial_Dependence_U,2023.2.3,Win32,120.48192771101236,,,,,,1374.0541000000012,71,3,1374.0542000000028,71,,,,1377.5988000000043,1378.0986000000016,1377.090700000003,1377.5987000000027,1375.057200000003,1377.0906000000014,1378.0987000000027,1378.5983999999985,1378.5985,1381.2238999999986,1919,1381.2239999999997,5,1381.2281000000012,3,23,113,6,1,1,0.7,Time
,,784269,001,女,21,2025-06-03_22h40.14.546,Serial_Dependence_U,2023.2.3,Win32,120.48192771101236,,,,,,1381.2282000000027,198,3,1381.2283000000043,198,,,,1385.2071000000014,1385.706700000003,1384.698700000003,1385.2069999999999,1382.2325,1384.698700000003,1385.706700000003,1386.2068000000045,1386.2068000000045,1388.6568999999986,1742,1388.6568999999986,4,1388.6618000000044,3,24,114,23,1,1.4,0.3,Time
,,784269,001,女,21,2025-06-03_22h40.14.546,Serial_Dependence_U,2023.2.3,Win32,120.48192771101236,,,,,,1388.6621000000014,2,3,1388.6621000000014,2,,,,1392.0403999999985,1392.5398000000046,1391.5323000000044,1392.0403000000042,1389.6653999999985,1391.5323000000044,1392.5398999999984,1393.0398999999984,1393.0398999999984,1395.8401000000013,2187,1395.8402000000028,5,1395.8448000000044,3,25,115,20,1,0.8,0.3,Time
,,784269,001,女,21,2025-06-03_22h40.14.546,Serial_Dependence_U,2023.2.3,Win32,120.48192771101236,,,,,,1395.8449999999998,276,3,1395.845200000003,276,,,,1399.9901000000013,1400.490200000003,1399.481700000003,1399.9899999999998,1396.8486000000016,1399.481700000003,1400.490200000003,1400.9896000000012,1400.9896000000012,1404.2399999999998,2059,1404.2399999999998,4,1404.244700000003,3,26,116,29,1,1.6,0.7,Time
,,784269,001,女,21,2025-06-03_22h40.14.546,Serial_Dependence_U,2023.2.3,Win32,120.48192771101236,,,,,,1404.245,250,3,1404.245,250,,,,1407.8148999999985,1408.3145,1407.3067000000028,1407.8148000000042,1405.240200000003,1407.3067000000028,1408.3145,1408.8146000000015,1408.814700000003,1411.9982000000027,2308,1411.9983999999986,5,1412.0033999999982,3,27,117,21,1,1,0.3,Time
,,784269,001,女,21,2025-06-03_22h40.14.546,Serial_Dependence_U,2023.2.3,Win32,120.48192771101236,,,,,,1412.0036000000014,276,3,1412.0036000000014,276,,,,1415.7730000000001,1416.2728000000043,1415.264700000003,1415.7730000000001,1412.9988999999982,1415.2644999999998,1416.2728999999986,1416.7728000000043,1416.7728999999986,1419.373,1954,1419.3731000000016,5,1419.3778999999986,3,28,118,12,1,1.2,0.3,Time
,,784269,001,女,21,2025-06-03_22h40.14.546,Serial_Dependence_U,2023.2.3,Win32,120.48192771101236,,,,,,1419.3782000000028,245,3,1419.3783000000044,245,,,,1422.9228000000044,1423.4225000000001,1422.4144999999999,1422.9228000000044,1420.3818999999985,1422.4144999999999,1423.4225000000001,1423.9225000000001,1423.9225000000001,1428.447700000003,2107,1428.447700000003,5,1428.4517000000028,3,29,119,16,1,1,0.7,Time
,,784269,001,女,21,2025-06-03_22h40.14.546,Serial_Dependence_U,2023.2.3,Win32,120.48192771101236,,,,,,1428.4518999999982,314,4,1564.5322000000028,314,s,136.06430000000455,,1567.9114999999997,1568.4113000000043,1567.4031000000014,1567.9113999999986,1565.5366000000013,1567.4031000000014,1568.4113999999986,1568.9111000000016,1568.9112000000027,1571.3863000000042,1996,1571.3863999999985,5,1571.3905,4,0,120,10,1,0.8,0.3,Time
,,784269,001,女,21,2025-06-03_22h40.14.546,Serial_Dependence_U,2023.2.3,Win32,120.48192771101236,,,,,,1571.390700000003,122,4,1571.3921000000014,122,,,,1574.9696000000013,1575.4692000000027,1574.4616000000015,1574.9694999999997,1572.394700000003,1574.4613999999983,1575.4693000000043,1575.9692000000027,1575.9692000000027,1578.3448999999982,1735,1578.3448999999982,5,1578.3493000000044,4,1,121,1,1,1,0.3,Time
,,784269,001,女,21,2025-06-03_22h40.14.546,Serial_Dependence_U,2023.2.3,Win32,120.48192771101236,,,,,,1578.3494999999998,111,4,1578.3496000000014,111,,,,1582.2946000000015,1582.7939999999999,1581.7862000000027,1582.2945,1579.3539999999998,1581.7861000000016,1582.7941000000014,1583.2939999999999,1583.2941000000014,1586.1278000000043,2331,1586.1278000000043,5,1586.1326000000013,4,2,122,8,1,1.4,0.7,Time
,,784269,001,女,21,2025-06-03_22h40.14.546,Serial_Dependence_U,2023.2.3,Win32,120.48192771101236,,,,,,1586.1328000000044,243,4,1586.1328999999982,243,,,,1590.2693999999983,1590.7688000000044,1589.761,1590.269200000003,1587.1276000000016,1589.761,1590.7688000000044,1591.2689999999998,1591.2689999999998,1594.1523000000043,2514,1594.1523999999986,5,1594.1573000000044,4,3,123,19,1,1.6,0.7,Time
,,784269,001,女,21,2025-06-03_22h40.14.546,Serial_Dependence_U,2023.2.3,Win32,120.48192771101236,,,,,,1594.1574999999998,337,4,1594.1576000000014,337,,,,1598.136,1598.6353999999983,1597.6276000000016,1598.1358999999984,1595.1608000000042,1597.6276000000016,1598.6353999999983,1599.1354999999999,1599.1354999999999,1602.5283000000045,2557,1602.5283999999983,5,1602.5323000000044,4,4,124,13,1,1.4,0.3,Time
,,784269,001,女,21,2025-06-03_22h40.14.546,Serial_Dependence_U,2023.2.3,Win32,120.48192771101236,,,,,,1602.5324999999998,40,4,1602.5326000000014,40,,,,1606.3033999999984,1606.8018999999986,1605.8023999999982,1606.3033000000046,1603.535700000003,1605.8023000000044,1606.8020000000001,1607.3020000000001,1607.3021000000012,1610.8105,2832,1610.8105,5,1610.8153000000043,4,5,125,2,1,1.2,0.3,Time
,,784269,001,女,21,2025-06-03_22h40.14.546,Serial_Dependence_U,2023.2.3,Win32,120.48192771101236,,,,,,1610.8156000000013,257,4,1610.8156000000013,257,,,,1614.1856000000016,1614.6851000000015,1613.6778999999983,1614.1855,1611.8107000000027,1613.6776000000013,1614.6851000000015,1615.185200000003,1615.185200000003,1618.6186000000016,2735,1618.6186000000016,5,1618.6237000000028,4,6,126,20,1,0.8,0.3,Time
,,784269,001,女,21,2025-06-03_22h40.14.546,Serial_Dependence_U,2023.2.3,Win32,120.48192771101236,,,,,,1618.6238999999982,111,4,1618.6239999999998,111,,,,1622.8018999999986,1623.3016000000016,1622.293700000003,1622.8018000000043,1619.6268999999984,1622.2936000000013,1623.3016000000016,1623.8016000000016,1623.8016000000016,1627.2266000000013,2725,1627.2266000000013,5,1627.2303000000043,4,7,127,14,1,1.6,0.3,Time
,,784269,001,女,21,2025-06-03_22h40.14.546,Serial_Dependence_U,2023.2.3,Win32,120.48192771101236,,,,,,1627.2303999999986,129,4,1627.2305000000001,129,,,,1630.5683999999983,1631.0683999999983,1630.060200000003,1630.5683999999983,1628.2268000000045,1630.0601000000015,1631.0684999999999,1631.568200000003,1631.568200000003,1634.6016000000013,2391,1634.601700000003,5,1634.606200000003,4,8,128,15,1,0.8,0.7,Time
,,784269,001,女,21,2025-06-03_22h40.14.546,Serial_Dependence_U,2023.2.3,Win32,120.48192771101236,,,,,,1634.6063999999983,57,4,1634.6064999999999,57,,,,1637.9433000000045,1638.4429999999998,1637.4351000000015,1637.9433000000045,1635.6018000000045,1637.435,1638.4429999999998,1638.9428999999986,1638.9428999999986,1641.9931000000015,2274,1641.9931000000015,5,1641.9978999999985,4,9,129,25,1,0.8,0.7,Time
,,784269,001,女,21,2025-06-03_22h40.14.546,Serial_Dependence_U,2023.2.3,Win32,120.48192771101236,,,,,,1641.9981000000016,266,4,1641.9981000000016,266,,,,1645.743200000003,1646.242700000003,1645.2350000000001,1645.7431000000015,1643.0013000000044,1645.2348999999986,1646.242700000003,1646.7428000000045,1646.7428000000045,1649.9180000000001,2496,1649.9180000000001,5,1649.9229999999998,4,10,130,17,1,1.2,0.7,Time
,,784269,001,女,21,2025-06-03_22h40.14.546,Serial_Dependence_U,2023.2.3,Win32,120.48192771101236,,,,,,1649.923200000003,7,4,1649.9233000000045,7,,,,1653.5013000000044,1654.0008000000043,1652.993,1653.5012000000029,1650.9263000000042,1652.993,1654.0008999999986,1654.5008999999986,1654.5008999999986,1657.4428999999986,2249,1657.4429999999998,5,1657.4474999999998,4,11,131,21,1,1,0.3,Time
,,784269,001,女,21,2025-06-03_22h40.14.546,Serial_Dependence_U,2023.2.3,Win32,120.48192771101236,,,,,,1657.4478000000045,236,4,1657.4478000000045,236,,,,1661.3843999999985,1661.884,1660.8761000000013,1661.3843999999985,1658.4428999999986,1660.8759999999997,1661.884,1662.384,1662.384,1665.9677000000029,3050,1665.9677000000029,5,1665.9718999999986,4,12,132,28,1,1.4,0.7,Time
,,784269,001,女,21,2025-06-03_22h40.14.546,Serial_Dependence_U,2023.2.3,Win32,120.48192771101236,,,,,,1665.9721000000013,75,4,1665.9721000000013,75,,,,1670.1093000000042,1670.6088000000045,1669.6008999999985,1670.1093000000042,1666.9685,1669.6008000000043,1670.6088999999984,1671.1088999999984,1671.109,1674.7506000000012,2820,1674.7507000000028,5,1674.7551000000012,4,13,133,9,1,1.6,0.7,Time
,,784269,001,女,21,2025-06-03_22h40.14.546,Serial_Dependence_U,2023.2.3,Win32,120.48192771101236,,,,,,1674.7553999999986,299,4,1674.7554999999998,299,,,,1678.4923000000044,1678.9921000000013,1677.9841000000015,1678.4923000000044,1675.7509999999997,1677.9841000000015,1678.9921000000013,1679.4921000000013,1679.4921000000013,1683.0673999999985,2980,1683.0675,5,1683.0724999999998,4,14,134,27,1,1.2,0.7,Time
,,784269,001,女,21,2025-06-03_22h40.14.546,Serial_Dependence_U,2023.2.3,Win32,120.48192771101236,,,,,,1683.072700000003,72,4,1683.0728000000045,72,,,,1687.2173000000043,1687.7168999999985,1686.7091000000014,1687.2172000000028,1684.0753999999984,1686.7089999999998,1687.7168999999985,1688.2168999999985,1688.217,1692.008700000003,3202,1692.0088000000042,5,1692.0137000000027,4,15,135,29,1,1.6,0.7,Time
,,784269,001,女,21,2025-06-03_22h40.14.546,Serial_Dependence_U,2023.2.3,Win32,120.48192771101236,,,,,,1692.0138999999986,21,4,1692.0140000000001,21,,,,1695.5587000000028,1696.0582000000027,1695.0504999999998,1695.5586000000012,1693.0169999999998,1695.0503999999983,1696.0583000000042,1696.5582000000027,1696.5582000000027,1699.7502000000027,2220,1699.7502000000027,5,1699.7543999999984,4,16,136,6,1,1,0.7,Time
,,784269,001,女,21,2025-06-03_22h40.14.546,Serial_Dependence_U,2023.2.3,Win32,120.48192771101236,,,,,,1699.7547000000027,108,4,1699.7548000000043,108,,,,1703.6918000000046,1704.1915,1703.1838000000043,1703.691700000003,1700.7503000000042,1703.1837000000028,1704.1915,1704.6915,1704.6915,1708.2167000000027,2868,1708.2168000000042,5,1708.2205,4,17,137,18,1,1.4,0.7,Time
,,784269,001,女,21,2025-06-03_22h40.14.546,Serial_Dependence_U,2023.2.3,Win32,120.48192771101236,,,,,,1708.2208000000046,167,4,1708.2208000000046,167,,,,1711.9917000000028,1712.4912000000031,1711.4833999999983,1711.9916000000012,1709.2168000000042,1711.4833000000044,1712.4912000000031,1712.9912000000031,1712.9912000000031,1716.5083000000045,2905,1716.5083999999983,5,1716.5133999999985,4,18,138,22,1,1.2,0.3,Time
,,784269,001,女,21,2025-06-03_22h40.14.546,Serial_Dependence_U,2023.2.3,Win32,120.48192771101236,,,,,,1716.5136000000016,39,4,1716.5137000000027,39,,,,1720.6916000000015,1721.1911000000014,1720.1831000000016,1720.6915,1717.5166000000013,1720.183,1721.191200000003,1721.6913000000045,1721.6913000000045,1724.7413000000042,2673,1724.7413999999985,5,1724.7462000000028,4,19,139,4,1,1.6,0.3,Time
,,784269,001,女,21,2025-06-03_22h40.14.546,Serial_Dependence_U,2023.2.3,Win32,120.48192771101236,,,,,,1724.7463999999986,260,4,1724.7463999999986,260,,,,1728.9092000000028,1729.4076000000014,1728.408,1728.909,1725.7417000000028,1728.4078999999983,1729.4076000000014,1729.907700000003,1729.9078000000045,1733.4661000000015,2800,1733.466200000003,5,1733.4708000000046,4,20,140,24,1,1.6,0.3,Time
,,784269,001,女,21,2025-06-03_22h40.14.546,Serial_Dependence_U,2023.2.3,Win32,120.48192771101236,,,,,,1733.471,123,4,1733.4711000000016,123,,,,1737.0162000000028,1737.5158999999985,1736.5078999999982,1737.0162000000028,1734.4753999999984,1736.5078000000044,1737.5158999999985,1738.0158000000042,1738.0158000000042,1741.5494999999996,2703,1741.5494999999996,5,1741.5539999999996,4,21,141,26,1,1,0.7,Time
,,784269,001,女,21,2025-06-03_22h40.14.546,Serial_Dependence_U,2023.2.3,Win32,120.48192771101236,,,,,,1741.5542000000028,352,4,1741.5543000000043,352,,,,1745.5326000000014,1746.0322000000028,1745.0242000000026,1745.5326000000014,1742.5576000000015,1745.0242000000026,1746.0323000000044,1746.5323000000044,1746.5323000000044,1749.4743999999982,2250,1749.4743999999982,5,1749.479200000003,4,22,142,23,1,1.4,0.3,Time
,,784269,001,女,21,2025-06-03_22h40.14.546,Serial_Dependence_U,2023.2.3,Win32,120.48192771101236,,,,,,1749.4793999999983,303,4,1749.4793999999983,303,,,,1753.0577000000026,1753.5571000000014,1752.5498999999982,1753.0577000000026,1750.4824999999996,1752.5496000000012,1753.557200000003,1754.0571000000014,1754.0571000000014,1757.7158000000045,2825,1757.7158999999983,5,1757.7196000000013,4,23,143,11,1,1,0.3,Time
,,784269,001,女,21,2025-06-03_22h40.14.546,Serial_Dependence_U,2023.2.3,Win32,120.48192771101236,,,,,,1757.7198000000044,258,4,1757.7198999999982,258,,,,1761.4573000000041,1761.9568999999983,1760.9493000000043,1761.4573000000041,1758.7165,1760.9492000000027,1761.9568999999983,1762.4571000000014,1762.4572000000026,1765.8153999999981,2192,1765.8153999999981,5,1765.8206000000014,4,24,144,7,1,1.2,0.7,Time
,,784269,001,女,21,2025-06-03_22h40.14.546,Serial_Dependence_U,2023.2.3,Win32,120.48192771101236,,,,,,1765.820800000004,92,4,1765.8208999999983,92,,,,1769.1988000000042,1769.6985,1768.6907000000028,1769.1987000000026,1766.8238999999985,1768.6906000000013,1769.6985,1770.1985,1770.1985,1772.9234999999999,2335,1772.9234999999999,5,1772.927700000003,4,25,145,0,1,0.8,0.3,Time
,,784269,001,女,21,2025-06-03_22h40.14.546,Serial_Dependence_U,2023.2.3,Win32,120.48192771101236,,,,,,1772.9278999999983,168,4,1772.9278999999983,168,,,,1776.9068999999981,1777.4066000000012,1776.3988000000045,1776.9068999999981,1773.932200000003,1776.398700000003,1777.4067000000027,1777.9064999999996,1777.9066000000012,1780.6151000000013,2314,1780.615200000003,5,1780.6198000000045,4,26,146,3,1,1.4,0.3,Time
,,784269,001,女,21,2025-06-03_22h40.14.546,Serial_Dependence_U,2023.2.3,Win32,120.48192771101236,,,,,,1780.6201000000015,46,4,1780.6202000000026,46,,,,1784.3983999999982,1784.8981000000013,1783.890200000003,1784.3983000000044,1781.6237000000028,1783.8901000000014,1784.8981000000013,1785.3981000000013,1785.3981000000013,1788.948300000004,2745,1788.948300000004,5,1788.953100000001,4,27,147,12,1,1.2,0.3,Time
,,784269,001,女,21,2025-06-03_22h40.14.546,Serial_Dependence_U,2023.2.3,Win32,120.48192771101236,,,,,,1788.9533000000042,55,4,1788.9534999999996,55,,,,1792.2987000000026,1792.7978999999982,1791.7902000000026,1792.2986000000014,1789.9568999999983,1791.790100000001,1792.7978999999982,1793.2979999999998,1793.2979999999998,1795.8647000000028,2054,1795.8647000000028,5,1795.8688999999981,4,28,148,5,1,0.8,0.7,Time
,,784269,001,女,21,2025-06-03_22h40.14.546,Serial_Dependence_U,2023.2.3,Win32,120.48192771101236,,,,,,1795.8689999999997,231,4,1795.8689999999997,231,,,,1799.4063000000042,1799.9061000000015,1798.8982000000028,1799.4063000000042,1796.8648999999982,1798.8981000000013,1799.9061000000015,1800.4062000000026,1800.4063000000042,1800.8731000000012,120,1800.8731000000012,1,1800.8774999999996,4,29,149,16,1,1,0.7,Time
,,784269,001,女,21,2025-06-03_22h40.14.546,Serial_Dependence_U,2023.2.3,Win32,120.48192771101236,,,,,,1800.8778000000043,66,5,1880.9248000000043,66,s,80.03060000000141,,1885.0716000000011,1885.5708999999983,1884.5628999999985,1885.0713999999984,1881.9298999999983,1884.5628000000042,1885.571,1886.0708999999983,1886.071,1890.3962000000029,3043,1890.3962000000029,5,1890.401300000004,5,0,150,29,1,1.6,0.7,Time
,,784269,001,女,21,2025-06-03_22h40.14.546,Serial_Dependence_U,2023.2.3,Win32,120.48192771101236,,,,,,1890.4013999999984,81,5,1890.4021000000012,81,,,,1893.9887000000026,1894.4874999999997,1893.4797000000026,1893.9886000000015,1891.4128000000042,1893.4796000000015,1894.4874999999997,1894.9873999999982,1894.9873999999982,1897.9628000000043,2300,1897.9628000000043,5,1897.9673000000043,5,1,151,11,1,1,0.3,Time
,,784269,001,女,21,2025-06-03_22h40.14.546,Serial_Dependence_U,2023.2.3,Win32,120.48192771101236,,,,,,1897.9674999999997,116,5,1897.9676000000013,116,,,,1901.7043000000044,1902.2038999999982,1901.1963000000042,1901.7042000000029,1898.9627000000028,1901.1963000000042,1902.2038999999982,1902.7039999999997,1902.7039999999997,1905.4957000000027,2269,1905.4958000000042,5,1905.5006000000012,5,2,152,7,1,1.2,0.7,Time
,,784269,001,女,21,2025-06-03_22h40.14.546,Serial_Dependence_U,2023.2.3,Win32,120.48192771101236,,,,,,1905.5008000000043,36,5,1905.5008999999982,36,,,,1909.2374999999997,1909.7371000000012,1908.729200000003,1909.2373999999982,1906.4958999999985,1908.7289999999998,1909.7371000000012,1910.2369999999996,1910.2371000000012,1913.254,2587,1913.2541000000015,5,1913.2587000000026,5,3,153,17,1,1.2,0.7,Time
,,784269,001,女,21,2025-06-03_22h40.14.546,Serial_Dependence_U,2023.2.3,Win32,120.48192771101236,,,,,,1913.2591000000011,317,5,1913.2591000000011,317,,,,1917.0382000000027,1917.5368999999982,1916.529100000001,1917.0381000000011,1914.2623999999983,1916.529,1917.5369999999998,1918.0368999999982,1918.0368999999982,1920.8038999999985,2390,1920.8038999999985,5,1920.8077000000026,5,4,154,12,1,1.2,0.3,Time
,,784269,001,女,21,2025-06-03_22h40.14.546,Serial_Dependence_U,2023.2.3,Win32,120.48192771101236,,,,,,1920.8078999999984,296,5,1920.8078999999984,296,,,,1924.7538999999983,1925.2533000000044,1924.2457000000027,1924.753800000004,1921.8123000000041,1924.245600000001,1925.2533000000044,1925.7533999999982,1925.7534999999998,1928.6953000000044,2400,1928.6953000000044,5,1928.700200000003,5,5,155,18,1,1.4,0.7,Time
,,784269,001,女,21,2025-06-03_22h40.14.546,Serial_Dependence_U,2023.2.3,Win32,120.48192771101236,,,,,,1928.7005,73,5,1928.7006000000015,73,,,,1932.8705,1933.3698999999983,1932.3621000000012,1932.8703000000041,1929.6953000000044,1932.3619999999996,1933.3698999999983,1933.87,1933.8701000000015,1936.895,2451,1936.895,5,1936.8992000000026,5,6,156,14,1,1.6,0.3,Time
,,784269,001,女,21,2025-06-03_22h40.14.546,Serial_Dependence_U,2023.2.3,Win32,120.48192771101236,,,,,,1936.8993000000041,318,5,1936.8993999999984,318,,,,1940.2453999999984,1940.7448999999983,1939.7368999999985,1940.2453000000041,1937.9037000000026,1939.7368999999985,1940.7448999999983,1941.244700000003,1941.244700000003,1944.2866000000013,2352,1944.2867000000028,5,1944.2913000000044,5,7,157,15,1,0.8,0.7,Time
,,784269,001,女,21,2025-06-03_22h40.14.546,Serial_Dependence_U,2023.2.3,Win32,120.48192771101236,,,,,,1944.2914999999998,355,5,1944.2916000000014,355,,,,1948.270100000001,1948.7694999999999,1947.7618000000043,1948.27,1945.2961000000014,1947.7617000000027,1948.7696000000014,1949.2694999999999,1949.2694999999999,1952.5949999999998,2837,1952.5949999999998,5,1952.599700000003,5,8,158,23,1,1.4,0.3,Time
,,784269,001,女,21,2025-06-03_22h40.14.546,Serial_Dependence_U,2023.2.3,Win32,120.48192771101236,,,,,,1952.5998999999983,31,5,1952.6,31,,,,1956.744700000003,1957.2443999999982,1956.2368999999985,1956.744700000003,1953.6033000000043,1956.2367000000027,1957.2443999999982,1957.7444999999998,1957.7444999999998,1960.5704999999998,2326,1960.570700000003,5,1960.575200000003,5,9,159,9,1,1.6,0.7,Time
,,784269,001,女,21,2025-06-03_22h40.14.546,Serial_Dependence_U,2023.2.3,Win32,120.48192771101236,,,,,,1960.5753999999984,236,5,1960.5755,236,,,,1964.744700000003,1965.2441000000013,1964.2363000000041,1964.744700000003,1961.5702000000028,1964.2362000000026,1965.2441000000013,1965.7442000000028,1965.7442000000028,1968.5609999999997,2357,1968.5612000000028,5,1968.5658000000044,5,10,160,24,1,1.6,0.3,Time
,,784269,001,女,21,2025-06-03_22h40.14.546,Serial_Dependence_U,2023.2.3,Win32,120.48192771101236,,,,,,1968.5659999999998,135,5,1968.566200000003,135,,,,1972.511100000001,1973.010800000004,1972.0028000000043,1972.511,1969.5694999999996,1972.0027000000027,1973.010800000004,1973.510700000003,1973.510800000004,1976.5112000000026,2625,1976.5112000000026,5,1976.5163000000043,5,11,161,28,1,1.4,0.7,Time
,,784269,001,女,21,2025-06-03_22h40.14.546,Serial_Dependence_U,2023.2.3,Win32,120.48192771101236,,,,,,1976.5168000000044,257,5,1976.5169999999998,257,,,,1979.8693000000044,1980.3688999999981,1979.3612000000026,1979.8693000000044,1977.5288000000041,1979.3611000000014,1980.3689999999997,1980.8688000000043,1980.8688999999981,1987.3029999999999,2179,1987.3032000000026,5,1987.3075,5,12,162,5,1,0.8,0.7,Time
,,784269,001,女,21,2025-06-03_22h40.14.546,Serial_Dependence_U,2023.2.3,Win32,120.48192771101236,,,,,,1987.3076000000015,359,5,1987.3077000000026,359,,,,1990.6773000000044,1991.1771000000012,1990.1693000000041,1990.6773000000044,1988.3023999999982,1990.169200000003,1991.1771000000012,1991.676899999998,1991.676899999998,1994.5103000000045,1921,1994.5103999999983,5,1994.5138000000043,5,13,163,0,1,0.8,0.3,Time
,,784269,001,女,21,2025-06-03_22h40.14.546,Serial_Dependence_U,2023.2.3,Win32,120.48192771101236,,,,,,1994.5139999999997,258,5,1994.5139999999997,258,,,,1998.4523000000045,1998.9519999999998,1997.9448999999981,1998.4521000000013,1995.510700000003,1997.9447000000027,1998.9521000000013,1999.4518000000044,1999.4518999999982,2003.0937000000026,3126,2003.0937000000026,5,2003.0978999999984,5,14,164,8,1,1.4,0.7,Time
,,784269,001,女,21,2025-06-03_22h40.14.546,Serial_Dependence_U,2023.2.3,Win32,120.48192771101236,,,,,,2003.098,52,5,2003.098100000001,52,,,,2006.8687000000027,2007.3683000000042,2006.3603999999982,2006.8687000000027,2004.0938000000042,2006.3603999999982,2007.3683000000042,2007.8683000000042,2007.8683999999985,2010.1769999999997,1754,2010.1769999999997,5,2010.1817000000028,5,15,165,2,1,1.2,0.3,Time
,,784269,001,女,21,2025-06-03_22h40.14.546,Serial_Dependence_U,2023.2.3,Win32,120.48192771101236,,,,,,2010.1818999999982,132,5,2010.1819999999998,132,,,,2014.351700000003,2014.8514999999998,2013.8438000000042,2014.351700000003,2011.1769999999997,2013.8438000000042,2014.8514999999998,2015.3516000000013,2015.351700000003,2018.301899999998,2442,2018.3019999999997,5,2018.3067000000028,5,16,166,4,1,1.6,0.3,Time
,,784269,001,女,21,2025-06-03_22h40.14.546,Serial_Dependence_U,2023.2.3,Win32,120.48192771101236,,,,,,2018.3068999999982,153,5,2018.3069999999998,153,,,,2021.6768000000043,2022.1763000000042,2021.168700000003,2021.6766000000011,2019.3018000000043,2021.1686000000013,2022.1763999999985,2022.6763000000042,2022.6763000000042,2025.1683000000044,1848,2025.1683999999982,5,2025.1733999999983,5,17,167,10,1,0.8,0.3,Time
,,784269,001,女,21,2025-06-03_22h40.14.546,Serial_Dependence_U,2023.2.3,Win32,120.48192771101236,,,,,,2025.1736000000014,154,5,2025.1736000000014,154,,,,2028.5433000000044,2029.0428000000043,2028.035200000003,2028.5432000000028,2026.1683999999982,2028.0351000000014,2029.0428000000043,2029.5428000000043,2029.542899999998,2031.9679999999998,1834,2031.9679999999998,5,2031.9719999999998,5,18,168,20,1,0.8,0.3,Time
,,784269,001,女,21,2025-06-03_22h40.14.546,Serial_Dependence_U,2023.2.3,Win32,120.48192771101236,,,,,,2031.9723000000045,25,5,2031.9723999999983,25,,,,2035.5432000000028,2036.0428000000043,2035.035200000003,2035.5432000000028,2032.9683999999984,2035.0351000000014,2036.0428000000043,2036.5428000000043,2036.5428000000043,2039.426899999998,2325,2039.4271000000012,5,2039.4314999999997,5,19,169,1,1,1,0.3,Time
,,784269,001,女,21,2025-06-03_22h40.14.546,Serial_Dependence_U,2023.2.3,Win32,120.48192771101236,,,,,,2039.4317000000028,112,5,2039.4318000000044,112,,,,2042.9764999999998,2043.475899999998,2042.4685,2042.9764999999998,2040.4348999999984,2042.4683999999984,2043.475899999998,2043.9759999999997,2043.9759999999997,2047.076,2492,2047.0761000000011,5,2047.0812000000028,5,20,170,6,1,1,0.7,Time
,,784269,001,女,21,2025-06-03_22h40.14.546,Serial_Dependence_U,2023.2.3,Win32,120.48192771101236,,,,,,2047.0813999999982,13,5,2047.0814999999998,13,,,,2050.6594999999998,2051.1593000000044,2050.1511000000014,2050.659399999998,2048.0843999999984,2050.1508999999983,2051.159399999998,2051.6589999999997,2051.6589999999997,2054.142800000004,2058,2054.1428999999985,5,2054.1478000000043,5,21,171,21,1,1,0.3,Time
,,784269,001,女,21,2025-06-03_22h40.14.546,Serial_Dependence_U,2023.2.3,Win32,120.48192771101236,,,,,,2054.147899999998,30,5,2054.1481000000013,30,,,,2058.117700000003,2058.617200000003,2057.6093999999985,2058.1176000000014,2055.1427000000026,2057.6093999999985,2058.617200000003,2059.117200000003,2059.1173000000044,2062.7676000000015,3068,2062.7677000000026,5,2062.7716000000014,5,22,172,3,1,1.4,0.3,Time
,,784269,001,女,21,2025-06-03_22h40.14.546,Serial_Dependence_U,2023.2.3,Win32,120.48192771101236,,,,,,2062.771800000004,265,5,2062.771800000004,265,,,,2066.550700000003,2067.0503000000044,2066.0423999999985,2066.550700000003,2063.7758000000044,2066.0423999999985,2067.0503000000044,2067.5503000000044,2067.5503999999983,2070.8423000000043,2725,2070.842399999998,5,2070.8462000000027,5,23,173,22,1,1.2,0.3,Time
,,784269,001,女,21,2025-06-03_22h40.14.546,Serial_Dependence_U,2023.2.3,Win32,120.48192771101236,,,,,,2070.8464999999997,291,5,2070.846600000001,291,,,,2074.5923000000043,2075.0923000000043,2074.084200000003,2074.592200000003,2071.8507000000027,2074.0841000000014,2075.092399999998,2075.592100000001,2075.592200000003,2078.3419999999996,2156,2078.342100000001,5,2078.346899999998,5,24,174,27,1,1.2,0.7,Time
,,784269,001,女,21,2025-06-03_22h40.14.546,Serial_Dependence_U,2023.2.3,Win32,120.48192771101236,,,,,,2078.347200000003,96,5,2078.3473000000045,96,,,,2081.8921000000014,2082.391700000003,2081.3838999999984,2081.8921000000014,2079.3503999999984,2081.3838999999984,2082.391700000003,2082.8918000000044,2082.8918000000044,2086.075200000003,2695,2086.075300000004,5,2086.079700000003,5,25,175,16,1,1,0.7,Time
,,784269,001,女,21,2025-06-03_22h40.14.546,Serial_Dependence_U,2023.2.3,Win32,120.48192771101236,,,,,,2086.08,297,5,2086.08,297,,,,2089.4251000000013,2089.9248000000043,2088.9172000000026,2089.4251000000013,2087.083700000003,2088.917,2089.924899999998,2090.424899999998,2090.4249999999997,2092.7083000000043,2114,2092.7084999999997,5,2092.7123000000042,5,26,176,25,1,0.8,0.7,Time
,,784269,001,女,21,2025-06-03_22h40.14.546,Serial_Dependence_U,2023.2.3,Win32,120.48192771101236,,,,,,2092.7124999999996,6,5,2092.7124999999996,6,,,,2096.8583999999983,2097.3579999999997,2096.3503999999984,2096.8583000000044,2093.7178999999983,2096.350300000004,2097.3581000000013,2097.8581000000013,2097.858200000003,2100.525100000001,2158,2100.5252000000028,5,2100.529899999998,5,27,177,19,1,1.6,0.7,Time
,,784269,001,女,21,2025-06-03_22h40.14.546,Serial_Dependence_U,2023.2.3,Win32,120.48192771101236,,,,,,2100.5301000000013,193,5,2100.530200000003,193,,,,2104.5081000000014,2105.0078999999982,2104,2104.508,2101.5333999999984,2103.9998999999984,2105.0078999999982,2105.5078999999982,2105.5078999999982,2108.2418000000043,2276,2108.241899999998,5,2108.2466000000013,5,28,178,13,1,1.4,0.3,Time
,,784269,001,女,21,2025-06-03_22h40.14.546,Serial_Dependence_U,2023.2.3,Win32,120.48192771101236,,,,,,2108.2468000000044,83,5,2108.2468999999983,83,,,,2111.7915,2112.290899999998,2111.283300000004,2111.7913999999982,2109.249800000004,2111.2832000000026,2112.2909999999997,2112.7909999999997,2112.7909999999997,2115.8246000000013,2479,2115.8246000000013,5,2115.8293000000044,5,29,179,26,1,1,0.7,Time
,,784269,001,女,21,2025-06-03_22h40.14.546,Serial_Dependence_U,2023.2.3,Win32,120.48192771101236,,,,,,2115.8295,76,6,2143.6951000000013,76,s,27.849100000001727,,2147.4417000000026,2147.940100000001,2146.9326000000015,2147.4415,2144.699100000001,2146.9323999999983,2147.9403000000043,2148.4403000000043,2148.4403000000043,2151.8073000000045,2806,2151.8073000000045,5,2151.8123999999984,6,0,180,27,1,1.2,0.7,Time
,,784269,001,女,21,2025-06-03_22h40.14.546,Serial_Dependence_U,2023.2.3,Win32,120.48192771101236,,,,,,2151.8127000000027,128,6,2151.8136000000013,128,,,,2155.3656000000015,2155.8653000000045,2154.857300000004,2155.3655,2152.8239999999996,2154.8572000000026,2155.8653999999983,2156.3651000000013,2156.365200000003,2158.9571000000014,2130,2158.9571000000014,5,2158.9618999999984,6,1,181,16,1,1,0.7,Time
,,784269,001,女,21,2025-06-03_22h40.14.546,Serial_Dependence_U,2023.2.3,Win32,120.48192771101236,,,,,,2158.962100000001,67,6,2158.9622000000027,67,,,,2162.540300000004,2163.0404999999996,2162.0319999999997,2162.5402000000026,2159.9656000000014,2162.031899999998,2163.040600000001,2163.5398999999984,2163.5398999999984,2165.9323999999983,1902,2165.9326000000015,5,2165.9372000000026,6,2,182,21,1,1,0.3,Time
,,784269,001,女,21,2025-06-03_22h40.14.546,Serial_Dependence_U,2023.2.3,Win32,120.48192771101236,,,,,,2165.9373999999984,157,6,2165.937600000001,157,,,,2169.306899999998,2169.8064999999997,2168.7986000000014,2169.3068000000044,2166.9321000000014,2168.7985,2169.8064999999997,2170.306399999998,2170.306399999998,2172.7983000000045,2036,2172.7983999999983,5,2172.8031000000015,6,3,183,10,1,0.8,0.3,Time
,,784269,001,女,21,2025-06-03_22h40.14.546,Serial_Dependence_U,2023.2.3,Win32,120.48192771101236,,,,,,2172.803300000004,244,6,2172.8033999999984,244,,,,2176.7482000000027,2177.2479999999996,2176.2403999999983,2176.7482000000027,2173.8071000000014,2176.2403000000045,2177.248100000001,2177.7479999999996,2177.7479999999996,2180.0148000000045,1830,2180.0148999999983,5,2180.0197000000026,6,4,184,8,1,1.4,0.7,Time
,,784269,001,女,21,2025-06-03_22h40.14.546,Serial_Dependence_U,2023.2.3,Win32,120.48192771101236,,,,,,2180.019800000004,36,6,2180.0198999999984,36,,,,2184.1981000000014,2184.6978000000045,2183.6899999999996,2184.198,2181.0233000000044,2183.6898999999985,2184.6978000000045,2185.1978000000045,2185.1978000000045,2187.698300000004,1988,2187.698300000004,4,2187.7025,6,5,185,24,1,1.6,0.3,Time
,,784269,001,女,21,2025-06-03_22h40.14.546,Serial_Dependence_U,2023.2.3,Win32,120.48192771101236,,,,,,2187.702800000004,1,6,2187.702800000004,1,,,,2191.048200000003,2191.5478000000044,2190.5398999999984,2191.0481000000013,2188.7065,2190.5398999999984,2191.5478000000044,2192.047700000003,2192.047700000003,2194.6311000000014,2170,2194.6311000000014,5,2194.6353000000045,6,6,186,5,1,0.8,0.7,Time
,,784269,001,女,21,2025-06-03_22h40.14.546,Serial_Dependence_U,2023.2.3,Win32,120.48192771101236,,,,,,2194.6355,16,6,2194.6355,16,,,,2198.573200000003,2199.0726000000013,2198.0647000000026,2198.5731000000014,2195.631300000004,2198.064600000001,2199.0726000000013,2199.5724999999998,2199.5724999999998,2202.514399999998,2418,2202.514399999998,5,2202.5193000000045,6,7,187,28,1,1.4,0.7,Time
,,784269,001,女,21,2025-06-03_22h40.14.546,Serial_Dependence_U,2023.2.3,Win32,120.48192771101236,,,,,,2202.5195,169,6,2202.5195,169,,,,2205.8559999999998,2206.355700000003,2205.348300000004,2205.8559999999998,2203.5148000000045,2205.348,2206.3558000000044,2206.855700000003,2206.855700000003,2210.256,2374,2210.256,5,2210.261,6,8,188,25,1,0.8,0.7,Time
,,784269,001,女,21,2025-06-03_22h40.14.546,Serial_Dependence_U,2023.2.3,Win32,120.48192771101236,,,,,,2210.2612000000026,33,6,2210.261300000004,33,,,,2213.631600000001,2214.1304999999998,2213.122800000004,2213.6315,2211.2561000000014,2213.1227000000026,2214.1306000000013,2214.630700000003,2214.6308000000045,2218.555800000004,2222,2218.555800000004,5,2218.560600000001,6,9,189,20,1,0.8,0.3,Time
,,784269,001,女,21,2025-06-03_22h40.14.546,Serial_Dependence_U,2023.2.3,Win32,120.48192771101236,,,,,,2218.560899999998,152,6,2218.5609999999997,152,,,,2221.898399999998,2222.3968999999984,2221.3893000000044,2221.898200000003,2219.5559999999996,2221.389200000003,2222.397,2222.8971000000015,2222.8972000000026,2225.8141000000014,2343,2225.8141000000014,5,2225.818800000004,6,10,190,15,1,0.8,0.7,Time
,,784269,001,女,21,2025-06-03_22h40.14.546,Serial_Dependence_U,2023.2.3,Win32,120.48192771101236,,,,,,2225.819100000001,202,6,2225.819100000001,202,,,,2229.7891000000013,2230.288600000001,2229.2808999999984,2229.788899999998,2226.8141000000014,2229.280800000004,2230.288700000003,2230.788700000003,2230.788700000003,2233.5638000000044,2375,2233.5638999999983,5,2233.569,6,11,191,3,1,1.4,0.3,Time
,,784269,001,女,21,2025-06-03_22h40.14.546,Serial_Dependence_U,2023.2.3,Win32,120.48192771101236,,,,,,2233.569600000001,308,6,2233.5698000000043,308,,,,2237.5138000000043,2238.013300000004,2237.0056000000013,2237.5137000000027,2234.5721000000012,2237.0054999999998,2238.0133999999985,2238.5135,2238.513600000001,2241.163600000001,2375,2241.163600000001,5,2241.168700000003,6,12,192,18,1,1.4,0.7,Time
,,784269,001,女,21,2025-06-03_22h40.14.546,Serial_Dependence_U,2023.2.3,Win32,120.48192771101236,,,,,,2241.169,137,6,2241.169,137,,,,2244.9053999999983,2245.4053000000044,2244.3978000000043,2244.9053000000044,2242.163899999998,2244.397600000001,2245.4055,2245.9048000000043,2245.904899999998,2249.0468999999985,2524,2249.0468999999985,5,2249.0517000000027,6,13,193,7,1,1.2,0.7,Time
,,784269,001,女,21,2025-06-03_22h40.14.546,Serial_Dependence_U,2023.2.3,Win32,120.48192771101236,,,,,,2249.051899999998,310,6,2249.0519999999997,310,,,,2252.421800000004,2252.9215,2251.913399999998,2252.421800000004,2250.0468999999985,2251.9133000000043,2252.9216000000015,2253.4213999999984,2253.4213999999984,2257.105,2359,2257.105100000001,5,2257.1095,6,14,194,0,1,0.8,0.3,Time
,,784269,001,女,21,2025-06-03_22h40.14.546,Serial_Dependence_U,2023.2.3,Win32,120.48192771101236,,,,,,2257.1097000000027,269,6,2257.1098000000043,269,,,,2261.08,2261.5795,2260.571600000001,2261.08,2258.105100000001,2260.5715,2261.5796000000014,2262.0795,2262.0796000000014,2265.2801000000013,2442,2265.2801000000013,5,2265.2851000000014,6,15,195,13,1,1.4,0.3,Time
,,784269,001,女,21,2025-06-03_22h40.14.546,Serial_Dependence_U,2023.2.3,Win32,120.48192771101236,,,,,,2265.285300000004,118,6,2265.2853999999984,118,,,,2268.8298999999984,2269.329700000003,2268.321600000001,2268.829800000004,2266.288,2268.3215,2269.329800000004,2269.8293999999983,2269.8295,2272.9629999999997,2392,2272.9629999999997,5,2272.9678999999983,6,16,196,26,1,1,0.7,Time
,,784269,001,女,21,2025-06-03_22h40.14.546,Serial_Dependence_U,2023.2.3,Win32,120.48192771101236,,,,,,2272.9681000000014,16,6,2272.968300000004,16,,,,2276.7463000000043,2277.2458999999985,2276.238,2276.746200000003,2273.971899999998,2276.238,2277.2458999999985,2277.7458000000042,2277.7458999999985,2280.446,2300,2280.446,5,2280.4506000000015,6,17,197,2,1,1.2,0.3,Time
,,784269,001,女,21,2025-06-03_22h40.14.546,Serial_Dependence_U,2023.2.3,Win32,120.48192771101236,,,,,,2280.450800000004,334,6,2280.4508999999985,334,,,,2284.5878000000043,2285.087600000001,2284.0796000000014,2284.5877000000028,2281.4462000000026,2284.0795,2285.087600000001,2285.5873000000042,2285.5873999999985,2288.9458999999983,2842,2288.946,5,2288.950800000004,6,18,198,9,1,1.6,0.7,Time
,,784269,001,女,21,2025-06-03_22h40.14.546,Serial_Dependence_U,2023.2.3,Win32,120.48192771101236,,,,,,2288.951100000001,16,6,2288.951100000001,16,,,,2293.1292000000026,2293.6292000000026,2292.6208999999985,2293.1291000000015,2289.9543999999983,2292.6208000000042,2293.6292000000026,2294.128800000004,2294.128800000004,2296.9043000000042,2292,2296.9043000000042,5,2296.908600000001,6,19,199,4,1,1.6,0.3,Time
,,784269,001,女,21,2025-06-03_22h40.14.546,Serial_Dependence_U,2023.2.3,Win32,120.48192771101236,,,,,,2296.9088000000042,320,6,2296.908899999998,320,,,,2300.8791000000015,2301.3786000000014,2300.3707000000027,2300.8791000000015,2297.904100000001,2300.3707000000027,2301.378700000003,2301.878700000003,2301.878700000003,2305.0204999999996,2722,2305.020600000001,5,2305.0254999999997,6,20,200,23,1,1.4,0.3,Time
,,784269,001,女,21,2025-06-03_22h40.14.546,Serial_Dependence_U,2023.2.3,Win32,120.48192771101236,,,,,,2305.0258000000044,31,6,2305.0258000000044,31,,,,2309.1704999999997,2309.6699999999996,2308.6623999999983,2309.1704999999997,2306.0288999999984,2308.662300000004,2309.670100000001,2310.1702000000028,2310.1702000000028,2312.8536000000013,2221,2312.853700000003,5,2312.8585,6,21,201,29,1,1.6,0.7,Time
,,784269,001,女,21,2025-06-03_22h40.14.546,Serial_Dependence_U,2023.2.3,Win32,120.48192771101236,,,,,,2312.858700000003,54,6,2312.858800000004,54,,,,2316.4371000000015,2316.9366000000014,2315.9288000000042,2316.4371000000015,2313.8619999999996,2315.9287000000027,2316.9366000000014,2317.4368000000045,2317.4368000000045,2320.395300000004,2224,2320.395300000004,5,2320.4003000000043,6,22,202,11,1,1,0.3,Time
,,784269,001,女,21,2025-06-03_22h40.14.546,Serial_Dependence_U,2023.2.3,Win32,120.48192771101236,,,,,,2320.4004999999997,72,6,2320.4006000000013,72,,,,2324.545399999998,2325.044800000004,2324.037,2324.5453000000043,2321.4036000000015,2324.0368999999982,2325.0448999999985,2325.544800000004,2325.5448999999985,2328.02,1671,2328.020100000001,3,2328.0242000000026,6,23,203,19,1,1.6,0.7,Time
,,784269,001,女,21,2025-06-03_22h40.14.546,Serial_Dependence_U,2023.2.3,Win32,120.48192771101236,,,,,,2328.0243999999984,13,6,2328.0245,13,,,,2331.8035,2332.303,2331.2958999999983,2331.8035,2329.029,2331.2958000000044,2332.303,2332.803,2332.8031000000015,2336.0033000000044,2266,2336.0033999999982,5,2336.0073000000043,6,24,204,22,1,1.2,0.3,Time
,,784269,001,女,21,2025-06-03_22h40.14.546,Serial_Dependence_U,2023.2.3,Win32,120.48192771101236,,,,,,2336.0074999999997,57,6,2336.0076000000013,57,,,,2339.7448999999983,2340.2445,2339.2369999999996,2339.7448999999983,2337.0041000000015,2339.236800000004,2340.2445,2340.7446000000014,2340.7446000000014,2343.8538000000044,2413,2343.8538000000044,5,2343.8583000000044,6,25,205,17,1,1.2,0.7,Time
,,784269,001,女,21,2025-06-03_22h40.14.546,Serial_Dependence_U,2023.2.3,Win32,120.48192771101236,,,,,,2343.8585,91,6,2343.8586000000014,91,,,,2347.4278999999983,2347.9278999999983,2346.919800000004,2347.4278000000045,2344.8533000000043,2346.9197000000026,2347.9278999999983,2348.427700000003,2348.427700000003,2351.2778000000044,2108,2351.2778000000044,5,2351.2819999999997,6,26,206,1,1,1,0.3,Time
,,784269,001,女,21,2025-06-03_22h40.14.546,Serial_Dependence_U,2023.2.3,Win32,120.48192771101236,,,,,,2351.282200000003,289,6,2351.282200000003,289,,,,2354.828300000004,2355.3275,2354.3198000000043,2354.8282000000027,2352.2862000000027,2354.3197000000027,2355.3275,2355.8273999999983,2355.8275,2359.069300000004,1919,2359.069300000004,5,2359.0739999999996,6,27,207,6,1,1,0.7,Time
,,784269,001,女,21,2025-06-03_22h40.14.546,Serial_Dependence_U,2023.2.3,Win32,120.48192771101236,,,,,,2359.0742000000027,186,6,2359.0743000000043,186,,,,2363.252600000001,2363.7528000000043,2362.745300000004,2363.2524999999996,2360.077800000004,2362.7452000000026,2363.7529999999997,2364.252300000004,2364.252300000004,2366.3858999999984,1777,2366.386,4,2366.3914999999997,6,28,208,14,1,1.6,0.3,Time
,,784269,001,女,21,2025-06-03_22h40.14.546,Serial_Dependence_U,2023.2.3,Win32,120.48192771101236,,,,,,2366.391700000003,29,6,2366.3918000000044,29,,,,2370.177700000003,2370.6771000000012,2369.6693999999984,2370.1776000000013,2367.4024999999997,2369.669300000004,2370.6771000000012,2371.177200000003,2371.1773000000044,2373.9523000000045,2248,2373.9523999999983,5,2373.9572000000026,6,29,209,12,1,1.2,0.3,Time
,,784269,001,女,21,2025-06-03_22h40.14.546,Serial_Dependence_U,2023.2.3,Win32,120.48192771101236,,,,,,2373.9573999999984,77,7,2445.5886000000014,77,s,71.61619999999539,,2449.735200000003,2450.233800000004,2449.226100000001,2449.7349999999997,2446.5924999999997,2449.2259999999997,2450.233800000004,2450.733800000004,2450.733800000004,2453.826399999998,2604,2453.826399999998,5,2453.8316000000013,7,0,210,19,1,1.6,0.7,Time
,,784269,001,女,21,2025-06-03_22h40.14.546,Serial_Dependence_U,2023.2.3,Win32,120.48192771101236,,,,,,2453.832,86,7,2453.8332000000028,86,,,,2457.8173000000043,2458.317,2457.309200000003,2457.8172000000027,2454.842399999998,2457.309200000003,2458.317,2458.817,2458.817,2461.2088999999983,1924,2461.209,5,2461.2135,7,1,211,3,1,1.4,0.3,Time
,,784269,001,女,21,2025-06-03_22h40.14.546,Serial_Dependence_U,2023.2.3,Win32,120.48192771101236,,,,,,2461.213800000004,122,7,2461.213800000004,122,,,,2464.5506000000014,2465.050200000003,2464.0431000000012,2464.5505,2462.2091000000014,2464.0429999999997,2465.050200000003,2465.550200000003,2465.550200000003,2469.8837000000026,2364,2469.883800000004,5,2469.8885,7,2,212,25,1,0.8,0.7,Time
,,784269,001,女,21,2025-06-03_22h40.14.546,Serial_Dependence_U,2023.2.3,Win32,120.48192771101236,,,,,,2469.8888000000043,190,7,2469.8888000000043,190,,,,2473.825200000003,2474.3251000000014,2473.317,2473.825200000003,2470.8837000000026,2473.3168999999984,2474.3251000000014,2474.825,2474.825,2477.958399999998,2783,2477.9584999999997,5,2477.9631000000013,7,3,213,18,1,1.4,0.7,Time
,,784269,001,女,21,2025-06-03_22h40.14.546,Serial_Dependence_U,2023.2.3,Win32,120.48192771101236,,,,,,2477.9633000000044,326,7,2477.9633999999983,326,,,,2481.9418999999984,2482.4413999999983,2481.4333999999985,2481.941800000004,2478.9668999999985,2481.4333999999985,2482.4413999999983,2482.9416000000015,2482.9417000000026,2485.4667000000027,2150,2485.4668000000042,5,2485.4718000000044,7,4,214,13,1,1.4,0.3,Time
,,784269,001,女,21,2025-06-03_22h40.14.546,Serial_Dependence_U,2023.2.3,Win32,120.48192771101236,,,,,,2485.4719999999998,0,7,2485.4721000000013,0,,,,2489.041700000003,2489.5413000000044,2488.533300000004,2489.0416000000014,2486.4667000000027,2488.533300000004,2489.5413000000044,2490.0413000000044,2490.0413999999982,2493.0583999999985,2638,2493.0583999999985,5,2493.0625,7,5,215,1,1,1,0.3,Time
,,784269,001,女,21,2025-06-03_22h40.14.546,Serial_Dependence_U,2023.2.3,Win32,120.48192771101236,,,,,,2493.0628000000042,43,7,2493.0628000000042,43,,,,2496.4332000000027,2496.9327000000026,2495.9251000000013,2496.433100000001,2494.0583000000042,2495.9249999999997,2496.9327000000026,2497.433,2497.433,2500.474700000003,2605,2500.474700000003,5,2500.479200000003,7,6,216,0,1,0.8,0.3,Time
,,784269,001,女,21,2025-06-03_22h40.14.546,Serial_Dependence_U,2023.2.3,Win32,120.48192771101236,,,,,,2500.4793999999983,213,7,2500.4793999999983,213,,,,2504.4165,2504.915899999998,2503.9078999999983,2504.4163999999982,2501.4748999999983,2503.9078999999983,2504.9159999999997,2505.4159999999997,2505.4159999999997,2508.816200000003,2734,2508.816200000003,5,2508.8208999999983,7,7,217,8,1,1.4,0.7,Time
,,784269,001,女,21,2025-06-03_22h40.14.546,Serial_Dependence_U,2023.2.3,Win32,120.48192771101236,,,,,,2508.8211000000015,183,7,2508.8212000000026,183,,,,2512.966300000004,2513.4658999999983,2512.458100000001,2512.966300000004,2509.8248999999983,2512.4579999999996,2513.4658999999983,2513.9658999999983,2513.9658999999983,2517.0408000000043,2614,2517.040899999998,5,2517.0454999999997,7,8,218,29,1,1.6,0.7,Time
,,784269,001,女,21,2025-06-03_22h40.14.546,Serial_Dependence_U,2023.2.3,Win32,120.48192771101236,,,,,,2517.045700000003,119,7,2517.0458999999983,119,,,,2521.182800000004,2521.6823999999983,2520.674300000004,2521.1827000000026,2518.0413999999982,2520.674300000004,2521.6823999999983,2522.1823000000045,2522.1823999999983,2525.1164999999996,2524,2525.1167000000028,5,2525.121100000001,7,9,219,9,1,1.6,0.7,Time
,,784269,001,女,21,2025-06-03_22h40.14.546,Serial_Dependence_U,2023.2.3,Win32,120.48192771101236,,,,,,2525.1213000000043,26,7,2525.1213000000043,26,,,,2528.865800000004,2529.3655,2528.3574999999996,2528.865800000004,2526.1243000000045,2528.3573999999985,2529.3656000000015,2529.8653999999983,2529.8655,2532.924899999998,2760,2532.9249999999997,5,2532.9296000000013,7,10,220,7,1,1.2,0.7,Time
,,784269,001,女,21,2025-06-03_22h40.14.546,Serial_Dependence_U,2023.2.3,Win32,120.48192771101236,,,,,,2532.9298999999983,240,7,2532.9298999999983,240,,,,2537.099200000003,2537.598600000001,2536.590700000003,2537.0991000000013,2533.924100000001,2536.590700000003,2537.598600000001,2538.0987000000027,2538.0988000000043,2541.4988999999982,2893,2541.499,5,2541.5035,7,11,221,24,1,1.6,0.3,Time
,,784269,001,女,21,2025-06-03_22h40.14.546,Serial_Dependence_U,2023.2.3,Win32,120.48192771101236,,,,,,2541.503700000003,331,7,2541.503800000004,331,,,,2545.6738999999984,2546.1735,2545.165600000001,2545.673800000004,2542.4988999999982,2545.1654999999996,2546.1735,2546.6736000000014,2546.6736000000014,2549.774,2709,2549.7741000000015,5,2549.777899999998,7,12,222,4,1,1.6,0.3,Time
,,784269,001,女,21,2025-06-03_22h40.14.546,Serial_Dependence_U,2023.2.3,Win32,120.48192771101236,,,,,,2549.7781000000014,52,7,2549.7781000000014,52,,,,2553.1486000000014,2553.648200000003,2552.6405,2553.1486000000014,2550.7736000000014,2552.6403999999984,2553.648200000003,2554.148399999998,2554.148399999998,2556.4733999999985,2131,2556.4733999999985,5,2556.4778999999985,7,13,223,10,1,0.8,0.3,Time
,,784269,001,女,21,2025-06-03_22h40.14.546,Serial_Dependence_U,2023.2.3,Win32,120.48192771101236,,,,,,2556.478100000001,142,7,2556.478100000001,142,,,,2559.8235,2560.3231000000014,2559.3152000000027,2559.8235,2557.482,2559.315100000001,2560.323200000003,2560.8231000000014,2560.823200000003,2563.5899999999997,2633,2563.5899999999997,5,2563.5948000000044,7,14,224,15,1,0.8,0.7,Time
,,784269,001,女,21,2025-06-03_22h40.14.546,Serial_Dependence_U,2023.2.3,Win32,120.48192771101236,,,,,,2563.595,301,7,2563.5951000000014,301,,,,2567.3399999999997,2567.839600000001,2566.8318999999983,2567.3399999999997,2564.5983999999985,2566.8318000000045,2567.8397000000027,2568.3397000000027,2568.3397000000027,2571.306700000003,2769,2571.3068000000044,5,2571.3104999999996,7,15,225,17,1,1.2,0.7,Time
,,784269,001,女,21,2025-06-03_22h40.14.546,Serial_Dependence_U,2023.2.3,Win32,120.48192771101236,,,,,,2571.3107000000027,121,7,2571.3108000000043,121,,,,2575.2565,2575.756200000003,2574.7483000000043,2575.2563999999984,2572.3148999999985,2574.7482000000027,2575.756200000003,2576.2561000000014,2576.256200000003,2579.6812000000027,3310,2579.681399999998,5,2579.6859999999997,7,16,226,28,1,1.4,0.7,Time
,,784269,001,女,21,2025-06-03_22h40.14.546,Serial_Dependence_U,2023.2.3,Win32,120.48192771101236,,,,,,2579.6861000000013,278,7,2579.686200000003,278,,,,2583.464899999998,2583.9644999999996,2582.957300000004,2583.4648000000043,2580.6902000000027,2582.9571000000014,2583.9644999999996,2584.464300000004,2584.4643999999985,2587.256300000004,2496,2587.256300000004,5,2587.261,7,17,227,12,1,1.2,0.3,Time
,,784269,001,女,21,2025-06-03_22h40.14.546,Serial_Dependence_U,2023.2.3,Win32,120.48192771101236,,,,,,2587.261300000004,83,7,2587.261300000004,83,,,,2590.6311000000014,2591.131,2590.123100000001,2590.631,2588.2563999999984,2590.1229999999996,2591.131,2591.630700000003,2591.6308000000045,2594.7727000000027,2530,2594.7727000000027,5,2594.777700000003,7,18,228,20,1,0.8,0.3,Time
,,784269,001,女,21,2025-06-03_22h40.14.546,Serial_Dependence_U,2023.2.3,Win32,120.48192771101236,,,,,,2594.777899999998,152,7,2594.7781000000014,152,,,,2598.3143999999984,2598.814,2597.8059999999996,2598.3143999999984,2595.7738999999983,2597.8059999999996,2598.814,2599.314,2599.314,2602.064200000003,2457,2602.064200000003,5,2602.069100000001,7,19,229,6,1,1,0.7,Time
,,784269,001,女,21,2025-06-03_22h40.14.546,Serial_Dependence_U,2023.2.3,Win32,120.48192771101236,,,,,,2602.069300000004,241,7,2602.0693999999985,241,,,,2605.805800000004,2606.3055,2605.298,2605.8057000000026,2603.0643999999984,2605.297899999998,2606.3055,2606.8056000000015,2606.8056000000015,2609.9892000000027,2945,2609.9893000000043,5,2609.9933999999985,7,20,230,27,1,1.2,0.7,Time
,,784269,001,女,21,2025-06-03_22h40.14.546,Serial_Dependence_U,2023.2.3,Win32,120.48192771101236,,,,,,2609.993600000001,255,7,2609.993600000001,255,,,,2613.530700000003,2614.0303999999983,2613.0233000000044,2613.5306000000014,2610.9893000000043,2613.0233000000044,2614.0303999999983,2614.5303000000044,2614.5303999999983,2617.7054999999996,2652,2617.705600000001,5,2617.7103000000043,7,21,231,26,1,1,0.7,Time
,,784269,001,女,21,2025-06-03_22h40.14.546,Serial_Dependence_U,2023.2.3,Win32,120.48192771101236,,,,,,2617.710700000003,16,7,2617.710700000003,16,,,,2621.489700000003,2621.9886000000015,2620.9808000000044,2621.489700000003,2618.714,2620.980700000003,2621.9886000000015,2622.4887000000026,2622.488800000004,2625.8053999999984,3176,2625.8055,5,2625.8103999999985,7,22,232,2,1,1.2,0.3,Time
,,784269,001,女,21,2025-06-03_22h40.14.546,Serial_Dependence_U,2023.2.3,Win32,120.48192771101236,,,,,,2625.8107000000027,214,7,2625.8107000000027,214,,,,2629.355399999998,2629.855100000001,2628.8469999999998,2629.3553000000043,2626.813700000003,2628.846899999998,2629.8552000000027,2630.355100000001,2630.355100000001,2633.2468000000044,2496,2633.2468999999983,5,2633.2511000000013,7,23,233,16,1,1,0.7,Time
,,784269,001,女,21,2025-06-03_22h40.14.546,Serial_Dependence_U,2023.2.3,Win32,120.48192771101236,,,,,,2633.2513000000044,348,7,2633.2513999999983,348,,,,2636.830600000001,2637.329700000003,2636.3219999999997,2636.8303999999985,2634.2553000000044,2636.321899999998,2637.329800000004,2637.829700000003,2637.829700000003,2640.6718999999985,2350,2640.672,5,2640.676600000001,7,24,234,11,1,1,0.3,Time
,,784269,001,女,21,2025-06-03_22h40.14.546,Serial_Dependence_U,2023.2.3,Win32,120.48192771101236,,,,,,2640.676899999998,242,7,2640.676899999998,242,,,,2644.6477000000027,2645.1463999999983,2644.146800000004,2644.6474999999996,2641.6801000000014,2644.146700000003,2645.1465,2645.6463000000044,2645.6463000000044,2648.6216000000013,2486,2648.621700000003,5,2648.626200000003,7,25,235,23,1,1.4,0.3,Time
,,784269,001,女,21,2025-06-03_22h40.14.546,Serial_Dependence_U,2023.2.3,Win32,120.48192771101236,,,,,,2648.6263999999983,59,7,2648.6265,59,,,,2652.3977000000027,2652.896200000003,2651.8965,2652.397600000001,2649.629899999998,2651.8965,2652.896200000003,2653.397,2653.3971000000015,2657.0216000000014,3272,2657.021700000003,5,2657.025700000003,7,26,236,22,1,1.2,0.3,Time
,,784269,001,女,21,2025-06-03_22h40.14.546,Serial_Dependence_U,2023.2.3,Win32,120.48192771101236,,,,,,2657.026,262,7,2657.026200000003,262,,,,2660.3714999999997,2660.8708999999985,2659.863,2660.371399999998,2658.029700000003,2659.8628999999983,2660.8708999999985,2661.3709999999996,2661.371100000001,2664.121200000003,2639,2664.1213000000043,5,2664.1258000000043,7,27,237,5,1,0.8,0.7,Time
,,784269,001,女,21,2025-06-03_22h40.14.546,Serial_Dependence_U,2023.2.3,Win32,120.48192771101236,,,,,,2664.1259999999997,251,7,2664.1261000000013,251,,,,2668.2961000000014,2668.7958000000044,2667.788,2668.2961000000014,2665.1218999999983,2667.7878999999984,2668.7958000000044,2669.2958000000044,2669.2958000000044,2673.3377000000028,3500,2673.3377000000028,5,2673.342200000003,7,28,238,14,1,1.6,0.3,Time
,,784269,001,女,21,2025-06-03_22h40.14.546,Serial_Dependence_U,2023.2.3,Win32,120.48192771101236,,,,,,2673.3424999999997,306,7,2673.3426000000013,306,,,,2676.922,2677.4206000000013,2676.412800000004,2676.9217000000026,2674.3458999999984,2676.4127000000026,2677.4206000000013,2677.9204999999997,2677.9206000000013,2681.0376000000015,2699,2681.0377000000026,5,2681.0418999999983,7,29,239,21,1,1,0.3,Time
,,784269,001,女,21,2025-06-03_22h40.14.546,Serial_Dependence_U,2023.2.3,Win32,120.48192771101236,,,,,,2681.0421000000015,236,8,2683.8419999999996,236,s,2.7857000000026346,,2687.9793999999983,2688.4788999999982,2687.4713000000042,2687.979300000004,2684.837600000001,2687.471100000001,2688.479,2688.9788000000044,2688.9788000000044,2692.662200000003,3217,2692.662200000003,5,2692.666800000004,8,0,240,19,1,1.6,0.7,Time
,,784269,001,女,21,2025-06-03_22h40.14.546,Serial_Dependence_U,2023.2.3,Win32,120.48192771101236,,,,,,2692.6671000000015,287,8,2692.6677000000027,287,,,,2696.245600000001,2696.7452000000026,2695.7381000000014,2696.245600000001,2693.6706000000013,2695.738,2696.7452000000026,2697.2452000000026,2697.2452000000026,2700.5377000000026,2794,2700.538,5,2700.5423999999985,8,1,241,11,1,1,0.3,Time
,,784269,001,女,21,2025-06-03_22h40.14.546,Serial_Dependence_U,2023.2.3,Win32,120.48192771101236,,,,,,2700.5425,296,8,2700.542600000001,296,,,,2704.720300000004,2705.220200000003,2704.2123000000042,2704.720200000003,2701.5456000000013,2704.212100000001,2705.220300000004,2705.720200000003,2705.7203999999983,2709.4784999999997,3400,2709.4784999999997,5,2709.4829999999997,8,2,242,24,1,1.6,0.3,Time
,,784269,001,女,21,2025-06-03_22h40.14.546,Serial_Dependence_U,2023.2.3,Win32,120.48192771101236,,,,,,2709.483200000003,217,8,2709.4833000000044,217,,,,2713.6618000000044,2714.1614999999997,2713.1537000000026,2713.6618000000044,2710.4878000000044,2713.1536000000015,2714.1614999999997,2714.661399999998,2714.661399999998,2718.737100000001,3663,2718.737100000001,5,2718.7417000000028,8,3,243,4,1,1.6,0.3,Time
,,784269,001,女,21,2025-06-03_22h40.14.546,Serial_Dependence_U,2023.2.3,Win32,120.48192771101236,,,,,,2718.7418000000043,73,8,2718.741899999998,73,,,,2722.0784999999996,2722.578,2721.5699999999997,2722.0783999999985,2719.737100000001,2721.5699999999997,2722.578,2723.0778999999984,2723.078,2726.970300000004,3333,2726.9705,5,2726.9752000000026,8,4,244,15,1,0.8,0.7,Time
,,784269,001,女,21,2025-06-03_22h40.14.546,Serial_Dependence_U,2023.2.3,Win32,120.48192771101236,,,,,,2726.975300000004,113,8,2726.9753999999984,113,,,,2730.52,2731.0193999999983,2730.0114999999996,2730.5198999999984,2727.9782000000027,2730.0113999999985,2731.0195,2731.5193999999983,2731.5193999999983,2735.544600000001,3445,2735.544600000001,5,2735.5494999999996,8,5,245,16,1,1,0.7,Time
,,784269,001,女,21,2025-06-03_22h40.14.546,Serial_Dependence_U,2023.2.3,Win32,120.48192771101236,,,,,,2735.5497000000028,190,8,2735.5497000000028,190,,,,2738.886300000004,2739.386,2738.378200000003,2738.886300000004,2736.544800000004,2738.3781000000013,2739.386100000001,2739.886,2739.886,2743.7446000000014,3325,2743.744700000003,5,2743.7488999999982,8,6,246,5,1,0.8,0.7,Time
,,784269,001,女,21,2025-06-03_22h40.14.546,Serial_Dependence_U,2023.2.3,Win32,120.48192771101236,,,,,,2743.7491000000014,353,8,2743.7491000000014,353,,,,2747.5278000000044,2748.027399999998,2747.0196000000014,2747.5278000000044,2744.7529999999997,2747.0195,2748.027399999998,2748.5274999999997,2748.5274999999997,2751.9611000000014,3241,2751.9611000000014,5,2751.9656000000014,8,7,247,2,1,1.2,0.3,Time
,,784269,001,女,21,2025-06-03_22h40.14.546,Serial_Dependence_U,2023.2.3,Win32,120.48192771101236,,,,,,2751.9658000000045,105,8,2751.9658999999983,105,,,,2755.3361000000014,2755.835899999998,2754.8276000000014,2755.335899999998,2752.961,2754.8276000000014,2755.836,2756.3354999999997,2756.3354999999997,2760.3273999999983,3539,2760.3273999999983,5,2760.3323999999984,8,8,248,20,1,0.8,0.3,Time
,,784269,001,女,21,2025-06-03_22h40.14.546,Serial_Dependence_U,2023.2.3,Win32,120.48192771101236,,,,,,2760.332600000001,204,8,2760.3327000000027,204,,,,2764.510800000004,2765.010700000003,2764.002600000001,2764.510800000004,2761.335899999998,2764.0024999999996,2765.0108999999984,2765.5103000000045,2765.5103999999983,2768.835700000003,2948,2768.835700000003,5,2768.840200000003,8,9,249,14,1,1.6,0.3,Time
,,784269,001,女,21,2025-06-03_22h40.14.546,Serial_Dependence_U,2023.2.3,Win32,120.48192771101236,,,,,,2768.840399999998,159,8,2768.8405,159,,,,2772.2188999999985,2772.7186000000015,2771.710700000003,2772.218800000004,2769.8439999999996,2771.710700000003,2772.7187000000026,2773.2185,2773.2185,2776.785600000001,3141,2776.785600000001,5,2776.7902000000026,8,10,250,0,1,0.8,0.3,Time
,,784269,001,女,21,2025-06-03_22h40.14.546,Serial_Dependence_U,2023.2.3,Win32,120.48192771101236,,,,,,2776.7904999999996,262,8,2776.790600000001,262,,,,2780.3611000000014,2780.8599999999997,2779.852300000004,2780.3608000000045,2777.7857000000026,2779.852300000004,2780.8599999999997,2781.360200000003,2781.360200000003,2785.2019999999998,3156,2785.2019999999998,5,2785.2065,8,11,251,21,1,1,0.3,Time
