Scale_setup.started,Scale_setup.stopped,participant,session,sex,age,date,expName,psychopyVersion,OS,frameRate,Intro.started,Intro.stopped,key_resp_2.keys,key_resp_2.rt,key_resp_2.duration,block.started,direction,Block_id,block.stopped,trial_direction,Block_resp_2.keys,Block_resp_2.rt,Block_resp_2.duration,ITI.started,ITI.stopped,Mask_2.started,Mask_2.stopped,encoding.started,encoding.stopped,Cue.started,Cue.stopped,Response.started,Response.stopped,keyDuration,Feedback_Time.started,FeedbackID_T,Feedback_Time.stopped,trials.thisRepN,trials.thisTrialN,trials.thisN,trials.thisIndex,trials.ran,TimeDur,Coherence1,TrialType
0.0001999999880837322,0.00030000001192576065,191755,001,M,23,2025-06-01_22h08.44.968,Serial_Dependence_U,2023.2.3,Win32,119.04761904759843,,,,,,,,,,,,,,,,,,,,,,,,,,,,,,,,,,,
,,191755,001,M,23,2025-06-01_22h08.44.968,Serial_Dependence_U,2023.2.3,Win32,119.04761904759843,14.25969999998808,15.36,space,1.0781999999880796,,,,,,,,,,,,,,,,,,,,,,,,,,,,,,,
,,191755,001,M,23,2025-06-01_22h08.44.968,Serial_Dependence_U,2023.2.3,Win32,119.04761904759843,,,,,,15.364800000011925,178,0,16.436199999988084,178,s,1.0607999999523159,,19.804600000023846,20.307899999976158,19.301899999976158,19.80419999998808,17.43569999998808,19.301500000000004,20.308100000023842,20.80560000002385,20.80580000001192,21.967199999988075,911,21.96750000000001,4,22.96219999998808,0,0,0,0,1,0.8,0.3,Time
,,191755,001,M,23,2025-06-01_22h08.44.968,Serial_Dependence_U,2023.2.3,Win32,119.04761904759843,,,,,,22.9625,222,0,22.964699999988078,222,,,,26.312500000000007,26.81110000002385,25.80719999998808,26.31210000002384,23.970999999999997,25.806699999988076,26.811199999988084,27.310600000023847,27.31069999998808,28.598999999999997,996,28.599100000023846,4,29.591899999976157,0,1,1,5,1,0.8,0.7,Time
,,191755,001,M,23,2025-06-01_22h08.44.968,Serial_Dependence_U,2023.2.3,Win32,119.04761904759843,,,,,,29.592199999988075,94,0,29.592199999988075,94,,,,33.53219999998809,34.026500000000006,33.029,33.53180000001192,30.59589999997616,33.028899999976154,34.026699999988075,34.53010000002384,34.53019999998808,35.793,1077,35.79310000002385,2,36.79280000001193,0,2,2,18,1,1.4,0.7,Time
,,191755,001,M,23,2025-06-01_22h08.44.968,Serial_Dependence_U,2023.2.3,Win32,119.04761904759843,,,,,,36.793,191,0,36.79310000002385,191,,,,40.53219999998809,41.029699999988075,40.030499999999996,40.531899999976154,37.794800000011925,40.02989999997616,41.029800000011925,41.528,41.528,43.05880000001192,1183,43.05880000001192,3,44.05739999997616,0,3,3,27,1,1.2,0.7,Time
,,191755,001,M,23,2025-06-01_22h08.44.968,Serial_Dependence_U,2023.2.3,Win32,119.04761904759843,,,,,,44.058,29,0,44.058199999988084,29,,,,47.83360000002384,48.330199999988075,47.32530000001193,47.83360000002384,45.05519999998808,47.32519999998808,48.330199999988075,48.82880000001192,48.828899999976166,50.27189999997616,1342,50.272,4,51.27319999998809,0,4,4,2,1,1.2,0.3,Time
,,191755,001,M,23,2025-06-01_22h08.44.968,Serial_Dependence_U,2023.2.3,Win32,119.04761904759843,,,,,,51.27389999997616,166,0,51.27430000001193,166,,,,55.040699999988085,55.539899999976164,54.53639999997616,55.04039999997617,52.275,54.53619999998808,55.539899999976164,56.04310000002385,56.04319999998808,57.83730000001193,1593,57.83730000001193,5,58.83560000002384,0,5,5,12,1,1.2,0.3,Time
,,191755,001,M,23,2025-06-01_22h08.44.968,Serial_Dependence_U,2023.2.3,Win32,119.04761904759843,,,,,,58.83580000001192,359,0,58.83589999997616,359,,,,62.59989999997617,63.09869999998808,62.09660000002385,62.59960000002385,59.83389999997616,62.09630000001193,63.09880000001193,63.59539999997616,63.59550000000001,65.04810000002385,1352,65.04819999998807,4,66.04580000001192,0,6,6,22,1,1.2,0.3,Time
,,191755,001,M,23,2025-06-01_22h08.44.968,Serial_Dependence_U,2023.2.3,Win32,119.04761904759843,,,,,,66.04650000000001,188,0,66.04680000001193,188,,,,70.01619999998809,70.511,69.5075,70.01589999997617,67.04480000001192,69.50710000002385,70.511,71.00260000002385,71.00260000002385,72.51019999998809,1225,72.51039999997616,2,73.50430000001191,0,7,7,13,1,1.4,0.3,Time
,,191755,001,M,23,2025-06-01_22h08.44.968,Serial_Dependence_U,2023.2.3,Win32,119.04761904759843,,,,,,73.50510000002384,53,0,73.50530000001191,53,,,,77.67319999998807,78.1705,77.16530000001191,77.67310000002385,74.50300000000001,77.16489999997617,78.17060000002385,78.66930000001193,78.66939999997615,80.31680000001191,1383,80.31689999997616,2,81.315,0,8,8,4,1,1.6,0.3,Time
,,191755,001,M,23,2025-06-01_22h08.44.968,Serial_Dependence_U,2023.2.3,Win32,119.04761904759843,,,,,,81.31569999998808,174,0,81.31580000001193,174,,,,84.65710000002383,85.15239999997615,84.15480000001193,84.65680000001191,82.31760000002384,84.15469999998808,85.1525,85.64639999997615,85.64660000002382,87.08680000001192,1150,87.08689999997614,5,88.08710000002384,0,9,9,15,1,0.8,0.7,Time
,,191755,001,M,23,2025-06-01_22h08.44.968,Serial_Dependence_U,2023.2.3,Win32,119.04761904759843,,,,,,88.08780000001192,10,0,88.08789999997614,10,,,,91.82910000002383,92.32819999998807,91.32680000001193,91.82880000001191,89.09219999998808,91.32660000002383,92.32819999998807,92.83069999998807,92.83080000001192,94.76160000002383,1146,94.7618000000119,3,95.76089999997615,0,10,10,7,1,1.2,0.7,Time
,,191755,001,M,23,2025-06-01_22h08.44.968,Serial_Dependence_U,2023.2.3,Win32,119.04761904759843,,,,,,95.76160000002383,330,0,95.76169999998808,330,,,,99.90769999998807,100.40430000001192,99.40010000002383,99.90739999997615,96.7653000000119,99.39980000001191,100.40430000001192,100.90369999998808,100.90369999998808,102.62719999998808,1411,102.62730000001193,2,103.62210000002383,0,11,11,19,1,1.6,0.7,Time
,,191755,001,M,23,2025-06-01_22h08.44.968,Serial_Dependence_U,2023.2.3,Win32,119.04761904759843,,,,,,103.62269999998807,340,0,103.62299999999999,340,,,,107.16319999998808,107.65939999997616,106.66169999998809,107.16319999998808,104.63049999999998,106.66130000001192,107.65939999997616,108.16060000002383,108.16069999998808,109.71710000002383,1352,109.71710000002383,5,110.72180000001191,0,12,12,6,1,1,0.7,Time
,,191755,001,M,23,2025-06-01_22h08.44.968,Serial_Dependence_U,2023.2.3,Win32,119.04761904759843,,,,,,110.72189999997616,334,0,110.72210000002383,334,,,,114.69210000002383,115.19089999997615,114.18380000001193,114.69200000000001,111.72299999999998,114.18369999998808,115.191,115.68930000001191,115.68939999997616,117.52080000001192,1454,117.52089999997617,3,118.51880000001191,0,13,13,3,1,1.4,0.3,Time
,,191755,001,M,23,2025-06-01_22h08.44.968,Serial_Dependence_U,2023.2.3,Win32,119.04761904759843,,,,,,118.51930000001192,81,0,118.51960000002384,81,,,,122.499,122.99689999997616,121.99080000001192,122.49860000002383,119.5238000000119,121.99030000001193,122.99689999997616,123.49310000002384,123.49319999998806,125.23249999999999,1450,125.23260000002384,3,126.22710000002382,0,14,14,23,1,1.4,0.3,Time
,,191755,001,M,23,2025-06-01_22h08.44.968,Serial_Dependence_U,2023.2.3,Win32,119.04761904759843,,,,,,126.22769999998806,131,0,126.22789999997616,131,,,,129.78169999998806,130.27319999998807,129.273,129.78139999997614,127.2365,129.27289999997615,130.27319999998807,130.7715,130.77160000002382,132.25639999997614,1070,132.2565,4,133.25830000001193,0,15,15,26,1,1,0.7,Time
,,191755,001,M,23,2025-06-01_22h08.44.968,Serial_Dependence_U,2023.2.3,Win32,119.04761904759843,,,,,,133.25880000001192,310,0,133.259,310,,,,136.82330000001193,137.31839999997615,136.32069999998808,136.82289999997616,134.25839999997615,136.32060000002383,137.3185,137.81539999997617,137.8155,139.13960000002385,1026,139.13969999998807,3,140.13869999998806,0,16,16,11,1,1,0.3,Time
,,191755,001,M,23,2025-06-01_22h08.44.968,Serial_Dependence_U,2023.2.3,Win32,119.04761904759843,,,,,,140.13930000001193,258,0,140.1395,258,,,,144.31739999997615,144.8131999999881,143.81130000001193,144.31730000001193,141.14849999999998,143.81089999997616,144.8131999999881,145.30949999999999,145.30969999998808,147.01999999999998,1353,147.02030000001193,2,148.02410000002385,0,17,17,24,1,1.6,0.3,Time
,,191755,001,M,23,2025-06-01_22h08.44.968,Serial_Dependence_U,2023.2.3,Win32,119.04761904759843,,,,,,148.0246999999881,26,0,148.02489999997616,26,,,,151.971,152.4683000000119,151.46630000001193,151.97069999998808,149.02599999999998,151.46619999998808,152.46839999997616,152.96769999998807,152.96780000001192,154.89580000001192,1492,154.89580000001192,4,155.89580000001192,0,18,18,28,1,1.4,0.7,Time
,,191755,001,M,23,2025-06-01_22h08.44.968,Serial_Dependence_U,2023.2.3,Win32,119.04761904759843,,,,,,155.8965,60,0,155.89669999998807,60,,,,159.47469999998808,159.97610000002385,158.97060000002384,159.4743000000119,156.89989999997616,158.97039999997617,159.97619999998807,160.47169999998806,160.4718000000119,161.92230000001192,1165,161.92239999997616,4,162.921,0,19,19,21,1,1,0.3,Time
,,191755,001,M,23,2025-06-01_22h08.44.968,Serial_Dependence_U,2023.2.3,Win32,119.04761904759843,,,,,,162.92119999998806,232,0,162.9213000000119,232,,,,166.29969999998806,166.80280000001193,165.79169999998808,166.29939999997615,163.927,165.79149999999998,166.803,167.29739999997616,167.29749999999999,168.76760000002383,1077,168.76769999998808,5,169.76819999998807,0,20,20,20,1,0.8,0.3,Time
,,191755,001,M,23,2025-06-01_22h08.44.968,Serial_Dependence_U,2023.2.3,Win32,119.04761904759843,,,,,,169.7688000000119,278,0,169.769,278,,,,173.33660000002385,173.838,172.83189999997614,173.3363000000119,170.76889999997616,172.83160000002383,173.838,174.33460000002384,174.33460000002384,176.1265,1263,176.12660000002384,4,177.1255,0,21,21,1,1,1,0.3,Time
,,191755,001,M,23,2025-06-01_22h08.44.968,Serial_Dependence_U,2023.2.3,Win32,119.04761904759843,,,,,,177.12619999998807,178,0,177.12639999997614,178,,,,181.2618000000119,181.7663000000119,180.75939999997615,181.26139999997616,178.12739999997615,180.759,181.7663000000119,182.265,182.26519999998808,183.71710000002383,1215,183.71710000002383,2,184.71669999998807,0,22,22,29,1,1.6,0.7,Time
,,191755,001,M,23,2025-06-01_22h08.44.968,Serial_Dependence_U,2023.2.3,Win32,119.04761904759843,,,,,,184.7173000000119,25,0,184.71739999997615,25,,,,188.10410000002383,188.60010000002384,187.59669999998806,188.10369999998807,185.7275,187.5965,188.60019999998806,189.09760000002385,189.09769999998807,190.448,1080,190.44819999998808,5,191.44880000001191,0,23,23,10,1,0.8,0.3,Time
,,191755,001,M,23,2025-06-01_22h08.44.968,Serial_Dependence_U,2023.2.3,Win32,119.04761904759843,,,,,,191.44939999997615,145,0,191.4495,145,,,,195.621,196.12110000002383,195.11680000001192,195.62069999998806,192.4561999999881,195.11669999998807,196.12110000002383,196.62169999998807,196.62169999998807,198.28469999998808,1286,198.28469999998808,2,199.28189999997616,0,24,24,14,1,1.6,0.3,Time
,,191755,001,M,23,2025-06-01_22h08.44.968,Serial_Dependence_U,2023.2.3,Win32,119.04761904759843,,,,,,199.28230000001193,73,0,199.2825,73,,,,202.83710000002384,203.3313000000119,202.3311999999881,202.83680000001192,200.29430000001193,202.33110000002384,203.33139999997616,203.82980000001191,203.82980000001191,205.33469999998806,1331,205.33469999998806,5,206.335,0,25,25,16,1,1,0.7,Time
,,191755,001,M,23,2025-06-01_22h08.44.968,Serial_Dependence_U,2023.2.3,Win32,119.04761904759843,,,,,,206.33560000002385,7,0,206.33569999998807,7,,,,210.4865,210.99010000002383,209.98089999997615,210.48610000002384,207.349,209.9805,210.99019999998808,211.48749999999998,211.48760000002383,212.98519999998805,1230,212.98519999998805,2,213.98499999999996,0,26,26,9,1,1.6,0.7,Time
,,191755,001,M,23,2025-06-01_22h08.44.968,Serial_Dependence_U,2023.2.3,Win32,119.04761904759843,,,,,,213.986,78,0,213.98610000002378,78,,,,217.73389999997613,218.23369999998806,217.22580000001187,217.7335,214.98830000001186,217.22569999998802,218.2338000000119,218.73139999997613,218.73139999997613,220.4786000000238,1049,220.4786000000238,2,221.47319999998803,0,27,27,17,1,1.2,0.7,Time
,,191755,001,M,23,2025-06-01_22h08.44.968,Serial_Dependence_U,2023.2.3,Win32,119.04761904759843,,,,,,221.47349999999994,268,0,221.4736000000238,268,,,,225.42330000001186,225.92110000002378,224.91639999997614,225.42299999999994,222.4748000000119,224.91619999998807,225.92119999998806,226.41689999997612,226.41689999997612,227.98399999999998,1269,227.98410000002383,2,228.98139999997613,0,28,28,8,1,1.4,0.7,Time
,,191755,001,M,23,2025-06-01_22h08.44.968,Serial_Dependence_U,2023.2.3,Win32,119.04761904759843,,,,,,228.98199999999997,355,0,228.98219999998804,355,,,,232.32430000001187,232.82480000001186,231.8225,232.32399999999996,229.9823000000119,231.82230000001186,232.82489999997614,233.32,233.32019999998806,234.70630000001188,1081,234.70630000001188,5,235.70489999997613,0,29,29,25,1,0.8,0.7,Time
,,191755,001,M,23,2025-06-01_22h08.44.968,Serial_Dependence_U,2023.2.3,Win32,119.04761904759843,,,,,,235.70549999999997,308,1,366.445,308,s,130.7265,,370.1883000000119,370.68089999997613,369.6851000000238,370.1883000000119,367.44699999999995,369.68489999997615,370.68089999997613,371.18039999997615,371.1805,372.8231000000238,1100,372.8231000000238,2,372.8233000000119,1,0,30,7,1,1.2,0.7,Time
,,191755,001,M,23,2025-06-01_22h08.44.968,Serial_Dependence_U,2023.2.3,Win32,119.04761904759843,,,,,,372.8236000000238,203,1,372.82469999998807,203,,,,376.799,377.29819999998807,376.29410000002383,376.79869999998806,373.82719999998807,376.2938000000119,377.29819999998807,377.79330000001187,377.79330000001187,379.55299999999994,1306,379.5531000000238,2,379.5533000000119,1,1,31,3,1,1.4,0.3,Time
,,191755,001,M,23,2025-06-01_22h08.44.968,Serial_Dependence_U,2023.2.3,Win32,119.04761904759843,,,,,,379.55369999998805,245,1,379.55369999998805,245,,,,383.7011000000238,384.2001000000238,383.1928000000119,383.7008000000119,380.5616000000238,383.19239999997615,384.20019999998806,384.701699999988,384.70189999997615,386.7218000000119,1550,386.72189999997613,3,386.72210000002383,1,2,32,19,1,1.6,0.7,Time
,,191755,001,M,23,2025-06-01_22h08.44.968,Serial_Dependence_U,2023.2.3,Win32,119.04761904759843,,,,,,386.7223000000119,332,1,386.7223999999761,332,,,,390.8693000000119,391.36969999998803,390.36839999997613,390.86919999998804,387.7343999999761,390.36819999998806,391.36969999998803,391.8688999999761,391.8691000000238,393.3168000000119,1175,393.3168999999761,2,393.3171000000238,1,3,33,9,1,1.6,0.7,Time
,,191755,001,M,23,2025-06-01_22h08.44.968,Serial_Dependence_U,2023.2.3,Win32,119.04761904759843,,,,,,393.31749999999994,258,1,393.3176000000238,258,,,,397.0916000000238,397.58930000001186,396.5861000000238,397.09149999999994,394.32439999997615,396.58599999999996,397.58939999997614,398.08919999998807,398.08919999998807,399.78210000002383,1283,399.78210000002383,4,399.7823000000119,1,4,34,12,1,1.2,0.3,Time
,,191755,001,M,23,2025-06-01_22h08.44.968,Serial_Dependence_U,2023.2.3,Win32,119.04761904759843,,,,,,399.78249999999997,225,1,399.7826000000238,225,,,,403.1603000000119,403.6598999999761,402.65630000001187,403.16019999998804,400.787,402.656199999988,403.65999999999997,404.16249999999997,404.16249999999997,405.6933000000119,1212,405.6933999999761,5,405.6935,1,5,35,0,1,0.8,0.3,Time
,,191755,001,M,23,2025-06-01_22h08.44.968,Serial_Dependence_U,2023.2.3,Win32,119.04761904759843,,,,,,405.69369999998804,124,1,405.69369999998804,124,,,,409.6313999999761,410.12919999998803,409.1283000000119,409.6311000000238,406.6938000000119,409.12789999997614,410.12919999998803,410.6256000000238,410.6256000000238,412.49339999997613,1571,412.4935,4,412.49360000002383,1,6,36,18,1,1.4,0.7,Time
,,191755,001,M,23,2025-06-01_22h08.44.968,Serial_Dependence_U,2023.2.3,Win32,119.04761904759843,,,,,,412.49369999998805,297,1,412.4938000000119,297,,,,416.4863000000119,416.9851000000238,415.9748000000119,416.48619999998806,413.5061000000238,415.9745,416.9851000000238,417.4826000000238,417.4826000000238,419.3673999999761,1521,419.36749999999995,4,419.3676000000238,1,7,37,23,1,1.4,0.3,Time
,,191755,001,M,23,2025-06-01_22h08.44.968,Serial_Dependence_U,2023.2.3,Win32,119.04761904759843,,,,,,419.36780000001187,38,1,419.36780000001187,38,,,,422.9468000000119,423.4416000000238,422.4416000000238,422.94649999999996,420.3808999999761,422.44149999999996,423.44169999998803,423.9363999999761,423.9363999999761,425.45739999997613,1225,425.45739999997613,4,425.4575,1,8,38,11,1,1,0.3,Time
,,191755,001,M,23,2025-06-01_22h08.44.968,Serial_Dependence_U,2023.2.3,Win32,119.04761904759843,,,,,,425.45760000002383,78,1,425.45769999998805,78,,,,428.8286000000238,429.326699999988,428.324199999988,428.82819999998804,426.4633999999761,428.3241000000238,429.326699999988,429.82480000001186,429.825,431.6791000000238,1451,431.6791000000238,5,431.67919999998804,1,9,39,20,1,0.8,0.3,Time
,,191755,001,M,23,2025-06-01_22h08.44.968,Serial_Dependence_U,2023.2.3,Win32,119.04761904759843,,,,,,431.6793999999761,125,1,431.67949999999996,125,,,,435.22549999999995,435.72830000001187,434.724,435.2253999999761,432.6818999999761,434.72380000001186,435.72830000001187,436.228199999988,436.22830000001187,437.7481000000238,1224,437.7481000000238,4,437.74819999998806,1,10,40,6,1,1,0.7,Time
,,191755,001,M,23,2025-06-01_22h08.44.968,Serial_Dependence_U,2023.2.3,Win32,119.04761904759843,,,,,,437.74839999997613,215,1,437.7485,215,,,,441.08799999999997,441.58719999998806,440.5848000000119,441.0876000000238,438.75239999997615,440.58439999997614,441.5873000000119,442.09189999997614,442.092,443.7638000000119,1410,443.7638000000119,5,443.76399999999995,1,11,41,25,1,0.8,0.7,Time
,,191755,001,M,23,2025-06-01_22h08.44.968,Serial_Dependence_U,2023.2.3,Win32,119.04761904759843,,,,,,443.7641000000238,178,1,443.764199999988,178,,,,447.9393000000119,448.4421000000238,447.43769999998807,447.9391000000238,444.7688000000119,447.4376000000238,448.4421000000238,448.9418000000119,448.9418000000119,451.04339999997615,1757,451.0435,4,451.04369999998806,1,12,42,4,1,1.6,0.3,Time
,,191755,001,M,23,2025-06-01_22h08.44.968,Serial_Dependence_U,2023.2.3,Win32,119.04761904759843,,,,,,451.04410000002383,223,1,451.0443000000119,223,,,,454.7841000000238,455.28419999998806,454.282,454.78389999997614,452.0478000000119,454.2816000000238,455.2843000000119,455.78799999999995,455.7881000000238,457.874699999988,1797,457.874699999988,5,457.87489999997615,1,13,43,17,1,1.2,0.7,Time
,,191755,001,M,23,2025-06-01_22h08.44.968,Serial_Dependence_U,2023.2.3,Win32,119.04761904759843,,,,,,457.87530000001186,284,1,457.87539999997614,284,,,,461.2128999999761,461.70799999999997,460.7116000000238,461.2125,458.8746000000238,460.71149999999994,461.70799999999997,462.21099999999996,462.2111000000238,464.0158000000119,1558,464.0158999999761,5,464.01599999999996,1,14,44,15,1,0.8,0.7,Time
,,191755,001,M,23,2025-06-01_22h08.44.968,Serial_Dependence_U,2023.2.3,Win32,119.04761904759843,,,,,,464.0161000000238,238,1,464.01619999998803,238,,,,468.17869999998805,468.67499999999995,467.67419999998805,468.17839999997614,465.01189999997615,467.6738000000119,468.67499999999995,469.1723999999761,469.1723999999761,471.296,1833,471.29610000002384,4,471.29630000001185,1,15,45,14,1,1.6,0.3,Time
,,191755,001,M,23,2025-06-01_22h08.44.968,Serial_Dependence_U,2023.2.3,Win32,119.04761904759843,,,,,,471.29680000001184,50,1,471.2968999999761,50,,,,475.46860000002386,475.96930000001186,474.96,475.46819999998803,472.2948000000119,474.959699999988,475.96930000001186,476.4773000000119,476.4773000000119,478.8395,2014,478.8395,4,478.839699999988,1,16,46,24,1,1.6,0.3,Time
,,191755,001,M,23,2025-06-01_22h08.44.968,Serial_Dependence_U,2023.2.3,Win32,119.04761904759843,,,,,,478.8401000000238,288,1,478.8401999999881,288,,,,482.3946000000238,482.89949999999993,481.8901000000238,482.3941999999881,479.85549999999995,481.8898999999761,482.8996000000238,483.4031000000238,483.4031000000238,485.18199999999996,1501,485.1821000000238,5,485.18230000001194,1,17,47,16,1,1,0.7,Time
,,191755,001,M,23,2025-06-01_22h08.44.968,Serial_Dependence_U,2023.2.3,Win32,119.04761904759843,,,,,,485.1826999999881,254,1,485.1828000000119,254,,,,488.5293000000119,489.02060000002376,488.022,488.5288999999761,486.186199999988,488.021699999988,489.02060000002376,489.5201000000238,489.5201000000238,491.4226000000238,1597,491.4226999999881,5,491.42280000001193,1,18,48,5,1,0.8,0.7,Time
,,191755,001,M,23,2025-06-01_22h08.44.968,Serial_Dependence_U,2023.2.3,Win32,119.04761904759843,,,,,,491.42299999999994,232,1,491.4231000000238,232,,,,495.16560000002386,495.667,494.65799999999996,495.1655,492.4218999999761,494.6576999999881,495.6671000000238,496.1643000000119,496.1644999999999,498.2256000000238,1812,498.2256000000238,5,498.22580000001193,1,19,49,27,1,1.2,0.7,Time
,,191755,001,M,23,2025-06-01_22h08.44.968,Serial_Dependence_U,2023.2.3,Win32,119.04761904759843,,,,,,498.22599999999994,344,1,498.2261000000238,344,,,,501.99999999999994,502.5041999999881,501.4986000000238,501.99999999999994,499.23330000001187,501.49830000001185,502.5041999999881,503.00019999998807,503.00019999998807,504.62730000001187,1311,504.62739999997615,4,504.6275,1,20,50,22,1,1.2,0.3,Time
,,191755,001,M,23,2025-06-01_22h08.44.968,Serial_Dependence_U,2023.2.3,Win32,119.04761904759843,,,,,,504.62810000002384,348,1,504.62810000002384,348,,,,508.20980000001185,508.7079999999999,507.7063999999761,508.2095,505.6398999999761,507.7061000000238,508.70810000002376,509.2028000000119,509.20289999997607,511.1503999999762,1632,511.1505,5,511.1508000000119,1,21,51,21,1,1,0.3,Time
,,191755,001,M,23,2025-06-01_22h08.44.968,Serial_Dependence_U,2023.2.3,Win32,119.04761904759843,,,,,,511.151199999988,313,1,511.15139999997615,313,,,,515.302,515.797300000012,514.793800000012,515.3016999999882,512.1578000000119,514.7936000000238,515.797300000012,516.3006999999881,516.3006999999881,518.8026000000239,2222,518.8026999999881,5,518.803,1,22,52,29,1,1.6,0.7,Time
,,191755,001,M,23,2025-06-01_22h08.44.968,Serial_Dependence_U,2023.2.3,Win32,119.04761904759843,,,,,,518.8035,74,1,518.8036000000238,74,,,,522.7518999999762,523.2415,522.2466999999881,522.7518000000119,519.8108999999762,522.2465,523.2415,523.7428000000119,523.7428000000119,526.2718999999762,2143,526.2718999999762,5,526.272,1,23,53,8,1,1.4,0.7,Time
,,191755,001,M,23,2025-06-01_22h08.44.968,Serial_Dependence_U,2023.2.3,Win32,119.04761904759843,,,,,,526.2721000000239,96,1,526.2721999999881,96,,,,530.0428999999762,530.5421999999882,529.5381000000239,530.0426999999881,527.2763000000119,529.5376999999881,530.5421999999882,531.0411999999881,531.0413000000119,532.9455,1535,532.9456000000239,4,532.946,1,24,54,2,1,1.2,0.3,Time
,,191755,001,M,23,2025-06-01_22h08.44.968,Serial_Dependence_U,2023.2.3,Win32,119.04761904759843,,,,,,532.9466000000239,160,1,532.9466999999881,160,,,,536.8891999999881,537.3841999999881,536.3826999999881,536.8888999999762,533.9476999999881,536.3826000000239,537.3841999999881,537.8878000000119,537.8878000000119,540.0648000000119,1823,540.0648000000119,5,540.0648999999762,1,25,55,28,1,1.4,0.7,Time
,,191755,001,M,23,2025-06-01_22h08.44.968,Serial_Dependence_U,2023.2.3,Win32,119.04761904759843,,,,,,540.0651999999881,103,1,540.0653000000119,103,,,,543.6105,544.1051000000239,543.104199999988,543.610300000012,541.0711000000239,543.1041000000239,544.1051000000239,544.601,544.6011000000238,546.1938999999762,1359,546.1938999999762,5,546.1941000000238,1,26,56,26,1,1,0.7,Time
,,191755,001,M,23,2025-06-01_22h08.44.968,Serial_Dependence_U,2023.2.3,Win32,119.04761904759843,,,,,,546.1945000000001,165,1,546.1946999999881,165,,,,549.7716000000239,550.2728999999762,549.2691000000239,549.7715000000001,547.2028999999761,549.2688999999762,550.2728999999762,550.7716000000239,550.7716999999881,552.8303999999762,1529,552.8303999999762,5,552.8305,1,27,57,1,1,1,0.3,Time
,,191755,001,M,23,2025-06-01_22h08.44.968,Serial_Dependence_U,2023.2.3,Win32,119.04761904759843,,,,,,552.8306000000239,156,1,552.8306999999882,156,,,,556.2051000000239,556.7016000000239,555.7021999999881,556.2046999999881,553.8376999999881,555.701800000012,556.7016999999881,557.1991000000239,557.1991999999881,558.767,1169,558.7671000000239,5,558.7671999999881,1,28,58,10,1,0.8,0.3,Time
,,191755,001,M,23,2025-06-01_22h08.44.968,Serial_Dependence_U,2023.2.3,Win32,119.04761904759843,,,,,,558.7673999999762,131,1,558.7675,131,,,,562.7425000000001,563.2433999999762,562.2401999999881,562.7421000000238,559.7785,562.2398999999762,563.2435,563.7455,563.7455,565.5403999999762,1418,565.5403999999762,3,565.5405000000001,1,29,59,13,1,1.4,0.3,Time
,,191755,001,M,23,2025-06-01_22h08.44.968,Serial_Dependence_U,2023.2.3,Win32,119.04761904759843,,,,,,565.5406999999881,50,2,607.4431000000238,50,s,41.893699999988144,,610.7941999999881,611.2923000000119,610.2826000000239,610.794,608.4488999999762,610.2825,611.2923999999762,611.7856000000239,611.7856000000239,613.2228999999762,1056,613.2228999999762,5,613.2230000000001,2,0,60,15,1,0.8,0.7,Time
,,191755,001,M,23,2025-06-01_22h08.44.968,Serial_Dependence_U,2023.2.3,Win32,119.04761904759843,,,,,,613.2233999999762,17,2,613.2241000000239,17,,,,616.7683000000119,617.2633999999762,616.2631000000239,616.768,614.2228999999762,616.2628999999762,617.2635,617.765800000012,617.7658999999762,619.5535,1456,619.5536000000238,5,619.5538999999762,2,1,61,26,1,1,0.7,Time
,,191755,001,M,23,2025-06-01_22h08.44.968,Serial_Dependence_U,2023.2.3,Win32,119.04761904759843,,,,,,619.5541999999881,130,2,619.554300000012,130,,,,623.1021000000238,623.6031000000239,622.597,623.101800000012,620.5601000000239,622.5966999999881,623.6031000000239,624.0963999999761,624.0963999999761,625.6856000000239,1327,625.6856999999881,5,625.6858000000119,2,2,62,6,1,1,0.7,Time
,,191755,001,M,23,2025-06-01_22h08.44.968,Serial_Dependence_U,2023.2.3,Win32,119.04761904759843,,,,,,625.686,118,2,625.686199999988,118,,,,629.4598999999762,629.9608999999762,628.9558000000119,629.4596000000239,626.6928999999761,628.9553999999762,629.9608999999762,630.4581000000238,630.4581000000238,631.9676000000238,1214,631.9676000000238,3,631.9678999999762,2,3,63,2,1,1.2,0.3,Time
,,191755,001,M,23,2025-06-01_22h08.44.968,Serial_Dependence_U,2023.2.3,Win32,119.04761904759843,,,,,,631.9683000000119,36,2,631.9683999999762,36,,,,635.9203000000119,636.4211999999881,635.417,635.9198999999762,632.9785,635.4168999999762,636.4213000000119,636.9153000000119,636.9153000000119,638.623,1441,638.623,3,638.6231999999881,2,4,64,18,1,1.4,0.7,Time
,,191755,001,M,23,2025-06-01_22h08.44.968,Serial_Dependence_U,2023.2.3,Win32,119.04761904759843,,,,,,638.6233999999762,282,2,638.6235,282,,,,642.393,642.8901000000238,641.8825,642.3928000000119,639.6195,641.8823000000119,642.8901999999881,643.388,643.3881000000239,645.2353999999762,1570,645.2353999999762,5,645.2356000000239,2,5,65,12,1,1.2,0.3,Time
,,191755,001,M,23,2025-06-01_22h08.44.968,Serial_Dependence_U,2023.2.3,Win32,119.04761904759843,,,,,,645.2356999999881,82,2,645.235800000012,82,,,,648.582,649.0731000000238,648.0745000000001,648.581800000012,646.2393000000119,648.0741999999881,649.0731000000238,649.5671999999881,649.567300000012,651.443800000012,1534,651.443800000012,5,651.4440000000001,2,6,66,25,1,0.8,0.7,Time
,,191755,001,M,23,2025-06-01_22h08.44.968,Serial_Dependence_U,2023.2.3,Win32,119.04761904759843,,,,,,651.4441999999881,179,2,651.4443000000119,179,,,,655.2230000000001,655.7183000000119,654.7218999999761,655.2226999999881,652.4533999999762,654.7216999999881,655.7183000000119,656.2133000000119,656.2133000000119,658.1983999999762,1697,658.1983999999762,5,658.1985,2,7,67,22,1,1.2,0.3,Time
,,191755,001,M,23,2025-06-01_22h08.44.968,Serial_Dependence_U,2023.2.3,Win32,119.04761904759843,,,,,,658.1986999999881,17,2,658.1986999999881,17,,,,661.5753000000119,662.0666999999881,661.0705,661.5751999999881,659.202,661.0703999999762,662.0666999999881,662.5615,662.5615,664.5121999999881,1487,664.5121999999881,5,664.5123000000119,2,8,68,10,1,0.8,0.3,Time
,,191755,001,M,23,2025-06-01_22h08.44.968,Serial_Dependence_U,2023.2.3,Win32,119.04761904759843,,,,,,664.5126000000239,55,2,664.5126000000239,55,,,,668.6508999999762,669.148300000012,668.1496999999881,668.6506999999881,665.517,668.1496999999881,669.148300000012,669.6441000000239,669.6441000000239,671.9203000000119,1946,671.9203000000119,4,671.9203999999762,2,9,69,19,1,1.6,0.7,Time
,,191755,001,M,23,2025-06-01_22h08.44.968,Serial_Dependence_U,2023.2.3,Win32,119.04761904759843,,,,,,671.9206000000239,242,2,671.9206999999881,242,,,,676.094,676.592800000012,675.5908999999762,676.0936999999881,672.9253000000119,675.590800000012,676.5928999999762,677.092300000012,677.0923999999762,679.152,1725,679.152,4,679.1521000000239,2,10,70,4,1,1.6,0.3,Time
,,191755,001,M,23,2025-06-01_22h08.44.968,Serial_Dependence_U,2023.2.3,Win32,119.04761904759843,,,,,,679.1523000000119,120,2,679.1523000000119,120,,,,682.5113999999762,683.0118999999762,682.0016000000238,682.5113000000119,680.1606000000239,682.0016000000238,683.0118999999762,683.5160000000001,683.5160000000001,685.0261999999881,1264,685.0263000000119,5,685.0266000000239,2,11,71,5,1,0.8,0.7,Time
,,191755,001,M,23,2025-06-01_22h08.44.968,Serial_Dependence_U,2023.2.3,Win32,119.04761904759843,,,,,,685.0268999999762,85,2,685.027,85,,,,688.9975000000001,689.4921999999881,688.4931999999881,688.9973999999762,686.0316999999881,688.4931000000239,689.4923000000119,689.9911999999881,689.9911999999881,691.582800000012,1326,691.582800000012,2,691.5828999999762,2,12,72,13,1,1.4,0.3,Time
,,191755,001,M,23,2025-06-01_22h08.44.968,Serial_Dependence_U,2023.2.3,Win32,119.04761904759843,,,,,,691.5831000000238,46,2,691.5831999999881,46,,,,695.1623999999762,695.6595,694.6596999999881,695.1623999999762,692.592800000012,694.6595,695.6595,696.1561000000239,696.1561000000239,697.8000000000001,1361,697.8000000000001,5,697.8001000000239,2,13,73,21,1,1,0.3,Time
,,191755,001,M,23,2025-06-01_22h08.44.968,Serial_Dependence_U,2023.2.3,Win32,119.04761904759843,,,,,,697.8003999999762,163,2,697.8005,163,,,,701.9386999999881,702.4356999999881,701.432300000012,701.938300000012,698.8001999999881,701.432300000012,702.4358000000119,702.9358000000119,702.9358999999762,704.754800000012,1505,704.7548999999761,2,704.755,2,14,74,29,1,1.6,0.7,Time
,,191755,001,M,23,2025-06-01_22h08.44.968,Serial_Dependence_U,2023.2.3,Win32,119.04761904759843,,,,,,704.7551999999881,33,2,704.755300000012,33,,,,708.907199999988,709.4103999999762,708.3986000000239,708.907,705.7578999999762,708.3985,709.4103999999762,709.9118999999762,709.9118999999762,711.458300000012,1358,711.4583999999762,2,711.4586999999881,2,15,75,9,1,1.6,0.7,Time
,,191755,001,M,23,2025-06-01_22h08.44.968,Serial_Dependence_U,2023.2.3,Win32,119.04761904759843,,,,,,711.4590000000001,19,2,711.4591000000239,19,,,,715.2061999999881,715.6988000000119,714.7008000000119,715.2058999999762,712.4646000000239,714.7001000000239,715.6988999999762,716.202300000012,716.202300000012,718.2433999999762,1820,718.2433999999762,5,718.2436000000239,2,16,76,27,1,1.2,0.7,Time
,,191755,001,M,23,2025-06-01_22h08.44.968,Serial_Dependence_U,2023.2.3,Win32,119.04761904759843,,,,,,718.2438000000119,181,2,718.2438999999762,181,,,,721.8096999999881,722.3053000000119,721.3083999999761,721.8095000000001,719.2468999999762,721.308300000012,722.3053999999762,722.802300000012,722.8023999999762,724.259,1173,724.259,4,724.2591999999881,2,17,77,1,1,1,0.3,Time
,,191755,001,M,23,2025-06-01_22h08.44.968,Serial_Dependence_U,2023.2.3,Win32,119.04761904759843,,,,,,724.2593999999762,244,2,724.2595,244,,,,728.0020000000001,728.4996999999881,727.5003999999761,728.0016999999881,725.2686999999881,727.5001000000238,728.499800000012,729.003,729.003,730.7563999999762,1386,730.7563999999762,4,730.7565000000001,2,18,78,7,1,1.2,0.7,Time
,,191755,001,M,23,2025-06-01_22h08.44.968,Serial_Dependence_U,2023.2.3,Win32,119.04761904759843,,,,,,730.7566999999881,256,2,730.7566999999881,256,,,,734.921699999988,735.4221999999882,734.4196000000238,734.9213999999762,731.7548999999761,734.4195,735.4221999999882,735.9201000000239,735.9201999999881,737.7298999999762,1618,737.73,3,737.7301999999881,2,19,79,14,1,1.6,0.3,Time
,,191755,001,M,23,2025-06-01_22h08.44.968,Serial_Dependence_U,2023.2.3,Win32,119.04761904759843,,,,,,737.730300000012,114,2,737.7303999999762,114,,,,741.3036000000238,741.8096999999881,740.7968000000119,741.303300000012,738.7361000000238,740.7968000000119,741.8096999999881,742.3056999999881,742.3056999999881,743.807300000012,1290,743.8075,4,743.807800000012,2,20,80,11,1,1,0.3,Time
,,191755,001,M,23,2025-06-01_22h08.44.968,Serial_Dependence_U,2023.2.3,Win32,119.04761904759843,,,,,,743.8081999999881,94,2,743.808300000012,94,,,,747.9846000000239,748.4865,747.4778999999762,747.9843999999762,744.8148000000119,747.4778000000119,748.4866999999881,748.9835,748.9835,750.6416999999881,1327,750.6418000000119,2,750.642,2,21,81,24,1,1.6,0.3,Time
,,191755,001,M,23,2025-06-01_22h08.44.968,Serial_Dependence_U,2023.2.3,Win32,119.04761904759843,,,,,,750.6423999999762,118,2,750.6425,118,,,,754.184,754.6858999999762,753.6723999999762,754.1838999999762,751.64,753.6721000000239,754.6858999999762,755.1806999999881,755.1808000000119,756.8803999999761,1438,756.8803999999761,5,756.8805,2,22,82,16,1,1,0.7,Time
,,191755,001,M,23,2025-06-01_22h08.44.968,Serial_Dependence_U,2023.2.3,Win32,119.04761904759843,,,,,,756.8806000000238,100,2,756.8806999999881,100,,,,760.8258000000119,761.3248000000119,760.3226000000238,760.8255,757.883,760.3221999999881,761.3248999999762,761.8258999999762,761.8258999999762,763.4625,1326,763.4626000000238,2,763.4628999999762,2,23,83,28,1,1.4,0.7,Time
,,191755,001,M,23,2025-06-01_22h08.44.968,Serial_Dependence_U,2023.2.3,Win32,119.04761904759843,,,,,,763.4633000000119,202,2,763.4633999999762,202,,,,767.2091999999881,767.7085000000001,766.7056999999882,767.2088999999762,764.471800000012,766.7053000000119,767.7085000000001,768.2088999999762,768.2088999999762,769.7623999999762,1377,769.7623999999762,4,769.7626000000239,2,24,84,17,1,1.2,0.7,Time
,,191755,001,M,23,2025-06-01_22h08.44.968,Serial_Dependence_U,2023.2.3,Win32,119.04761904759843,,,,,,769.7628000000119,9,2,769.7628999999762,9,,,,773.150300000012,773.6506999999881,772.6398999999761,773.1501000000238,770.775,772.639800000012,773.6506999999881,774.148,774.148,775.4448999999762,983,775.445,4,775.4451000000239,2,25,85,20,1,0.8,0.3,Time
,,191755,001,M,23,2025-06-01_22h08.44.968,Serial_Dependence_U,2023.2.3,Win32,119.04761904759843,,,,,,775.4453000000119,113,2,775.4453000000119,113,,,,779.3820000000001,779.8788000000119,778.8771999999881,779.3818000000119,776.443300000012,778.8768999999762,779.8788000000119,780.3736000000239,780.3736000000239,781.964699999988,1217,781.964699999988,2,781.9648999999762,2,26,86,8,1,1.4,0.7,Time
,,191755,001,M,23,2025-06-01_22h08.44.968,Serial_Dependence_U,2023.2.3,Win32,119.04761904759843,,,,,,781.965,134,2,781.9651000000239,134,,,,785.9261000000239,786.4225,785.4221999999882,785.9258000000119,782.96,785.4221000000239,786.4226000000239,786.924,786.9241000000238,788.8003000000119,1625,788.8003999999762,4,788.8005,2,27,87,3,1,1.4,0.3,Time
,,191755,001,M,23,2025-06-01_22h08.44.968,Serial_Dependence_U,2023.2.3,Win32,119.04761904759843,,,,,,788.8008000000119,141,2,788.8008999999762,141,,,,792.7731999999882,793.269800000012,792.2713000000119,792.773,789.8013000000119,792.2711999999881,793.2698999999761,793.7706000000238,793.7706000000238,795.8258000000119,1713,795.8258000000119,4,795.8258999999762,2,28,88,23,1,1.4,0.3,Time
,,191755,001,M,23,2025-06-01_22h08.44.968,Serial_Dependence_U,2023.2.3,Win32,119.04761904759843,,,,,,795.826300000012,101,2,795.826300000012,101,,,,799.2003999999762,799.6958000000119,798.6931000000238,799.2001000000239,796.8255,798.692800000012,799.6958000000119,800.197800000012,800.1978999999761,802.1781999999881,1712,802.1781999999881,5,802.1783999999761,2,29,89,0,1,0.8,0.3,Time
,,191755,001,M,23,2025-06-01_22h08.44.968,Serial_Dependence_U,2023.2.3,Win32,119.04761904759843,,,,,,802.1785,178,3,807.0501999999881,178,s,4.863000000000056,,810.6246000000239,811.1266000000238,810.1188000000119,810.624300000012,808.0578999999761,810.1185,811.1266999999881,811.6241999999882,811.6243999999762,813.3475,1508,813.3475,5,813.3476000000238,3,0,90,1,1,1,0.3,Time
,,191755,001,M,23,2025-06-01_22h08.44.968,Serial_Dependence_U,2023.2.3,Win32,119.04761904759843,,,,,,813.3476999999881,115,3,813.3496000000239,115,,,,817.520300000012,818.0158999999762,817.011,817.52,814.3443999999762,817.0106999999881,818.0160000000001,818.5238999999762,818.5238999999762,820.3346999999881,1616,820.3346999999881,3,820.3348000000119,3,1,91,14,1,1.6,0.3,Time
,,191755,001,M,23,2025-06-01_22h08.44.968,Serial_Dependence_U,2023.2.3,Win32,119.04761904759843,,,,,,820.3348999999762,233,3,820.335,233,,,,824.1151999999881,824.611800000012,823.610800000012,824.114800000012,821.3466999999881,823.6106000000239,824.611800000012,825.1163999999762,825.1166000000238,826.918800000012,1525,826.918800000012,4,826.919,3,2,92,2,1,1.2,0.3,Time
,,191755,001,M,23,2025-06-01_22h08.44.968,Serial_Dependence_U,2023.2.3,Win32,119.04761904759843,,,,,,826.9191999999881,146,3,826.9191999999881,146,,,,830.4645,830.9593000000119,829.9630000000001,830.4643000000119,827.9283999999761,829.962800000012,830.9593000000119,831.4558999999762,831.456,833.404300000012,1507,833.404300000012,5,833.4045,3,3,93,6,1,1,0.7,Time
,,191755,001,M,23,2025-06-01_22h08.44.968,Serial_Dependence_U,2023.2.3,Win32,119.04761904759843,,,,,,833.4046999999881,224,3,833.4046999999881,224,,,,836.9826000000239,837.4841000000239,836.4781000000239,836.9821999999881,834.4123999999762,836.4780000000001,837.4841000000239,837.9815,837.9816000000238,839.5251999999881,1357,839.525300000012,5,839.5255000000001,3,4,94,11,1,1,0.3,Time
,,191755,001,M,23,2025-06-01_22h08.44.968,Serial_Dependence_U,2023.2.3,Win32,119.04761904759843,,,,,,839.5256999999881,128,3,839.5256999999881,128,,,,843.4688999999762,843.967300000012,842.9618999999761,843.4686999999881,840.5281999999881,842.9616999999881,843.967300000012,844.4680000000001,844.4680000000001,846.5878999999762,1798,846.5878999999762,4,846.5880000000001,3,5,95,28,1,1.4,0.7,Time
,,191755,001,M,23,2025-06-01_22h08.44.968,Serial_Dependence_U,2023.2.3,Win32,119.04761904759843,,,,,,846.5883000000119,148,3,846.5883000000119,148,,,,849.9195,850.4216000000239,849.4186000000238,849.9193999999762,847.585800000012,849.4185,850.421699999988,850.917800000012,850.917800000012,852.5516999999882,1255,852.5516999999882,5,852.5518999999762,3,6,96,15,1,0.8,0.7,Time
,,191755,001,M,23,2025-06-01_22h08.44.968,Serial_Dependence_U,2023.2.3,Win32,119.04761904759843,,,,,,852.5521000000239,109,3,852.5521000000239,109,,,,855.9225,856.4246000000238,855.4208999999762,855.9223999999762,853.5513000000119,855.4206000000239,856.4246000000238,856.927,856.9271000000239,858.3096000000239,1041,858.3096999999881,5,858.3098999999762,3,7,97,10,1,0.8,0.3,Time
,,191755,001,M,23,2025-06-01_22h08.44.968,Serial_Dependence_U,2023.2.3,Win32,119.04761904759843,,,,,,858.3103000000119,270,3,858.3103999999762,270,,,,862.4756999999881,862.9718999999761,861.9748999999762,862.4755,859.3098000000119,861.9748000000119,862.9718999999761,863.466,863.466,865.693300000012,1902,865.693300000012,4,865.6933999999762,3,8,98,4,1,1.6,0.3,Time
,,191755,001,M,23,2025-06-01_22h08.44.968,Serial_Dependence_U,2023.2.3,Win32,119.04761904759843,,,,,,865.6935,130,3,865.6935,130,,,,869.8366999999881,870.3373999999761,869.3346000000239,869.8365,866.6996000000239,869.3345,870.3375,870.8380000000001,870.8381000000238,872.8391999999881,1752,872.8393000000119,4,872.8396000000239,3,9,99,29,1,1.6,0.7,Time
,,191755,001,M,23,2025-06-01_22h08.44.968,Serial_Dependence_U,2023.2.3,Win32,119.04761904759843,,,,,,872.84,267,3,872.8401000000239,267,,,,876.5858999999762,877.0856000000239,876.0771999999881,876.5858999999762,873.8421999999881,876.0771000000238,877.0856999999882,877.5901999999882,877.5901999999882,879.6181000000239,1761,879.6181000000239,5,879.6181999999881,3,10,100,7,1,1.2,0.7,Time
,,191755,001,M,23,2025-06-01_22h08.44.968,Serial_Dependence_U,2023.2.3,Win32,119.04761904759843,,,,,,879.6183999999762,183,3,879.6183999999762,183,,,,883.7656000000238,884.265300000012,883.2575,883.765300000012,880.6238999999762,883.2571999999881,884.265300000012,884.7601000000238,884.7601999999881,887.0405000000001,2080,887.0405000000001,5,887.0408000000119,3,11,101,19,1,1.6,0.7,Time
,,191755,001,M,23,2025-06-01_22h08.44.968,Serial_Dependence_U,2023.2.3,Win32,119.04761904759843,,,,,,887.041,23,3,887.0411000000239,23,,,,890.388199999988,890.8868000000119,889.88,890.3878999999762,888.0433999999761,889.8798999999761,890.8868000000119,891.3865000000001,891.3866000000239,892.8515,1250,892.8515,5,892.8516000000238,3,12,102,5,1,0.8,0.7,Time
,,191755,001,M,23,2025-06-01_22h08.44.968,Serial_Dependence_U,2023.2.3,Win32,119.04761904759843,,,,,,892.8516999999881,67,3,892.8516999999881,67,,,,896.2363999999761,896.735800000012,895.7258999999761,896.236300000012,893.8645,895.7255,896.7358999999761,897.2321000000238,897.2321999999881,899.0558000000119,1473,899.0558999999762,5,899.056199999988,3,13,103,0,1,0.8,0.3,Time
,,191755,001,M,23,2025-06-01_22h08.44.968,Serial_Dependence_U,2023.2.3,Win32,119.04761904759843,,,,,,899.0566000000239,66,3,899.0566999999882,66,,,,903.0291000000238,903.5288999999761,902.5251000000238,903.0286999999881,900.0586999999881,902.5246999999881,903.5288999999761,904.0303999999762,904.0305000000001,906.0783999999762,1675,906.0783999999762,4,906.0786999999881,3,14,104,13,1,1.4,0.3,Time
,,191755,001,M,23,2025-06-01_22h08.44.968,Serial_Dependence_U,2023.2.3,Win32,119.04761904759843,,,,,,906.0791000000239,330,3,906.0791000000239,330,,,,910.2238000000119,910.7211000000239,909.7168999999761,910.2233999999762,907.078300000012,909.7166999999881,910.7211999999881,911.2201000000239,911.2201999999882,913.0456000000239,1549,913.0456000000239,3,913.0456999999881,3,15,105,9,1,1.6,0.7,Time
,,191755,001,M,23,2025-06-01_22h08.44.968,Serial_Dependence_U,2023.2.3,Win32,119.04761904759843,,,,,,913.0458999999762,250,3,913.0458999999762,250,,,,916.5903000000119,917.0931000000238,916.081,916.5898000000119,914.044,916.0808999999762,917.0931000000238,917.5903000000119,917.5903999999762,919.2431999999881,1482,919.2431999999881,5,919.2433000000119,3,16,106,16,1,1,0.7,Time
,,191755,001,M,23,2025-06-01_22h08.44.968,Serial_Dependence_U,2023.2.3,Win32,119.04761904759843,,,,,,919.2433999999762,306,3,919.2435,306,,,,922.9836999999881,923.4791000000239,922.48,922.9836000000239,920.2471999999881,922.4796000000239,923.479199999988,923.985,923.985,925.7805000000001,1412,925.7805000000001,4,925.7806000000238,3,17,107,17,1,1.2,0.7,Time
,,191755,001,M,23,2025-06-01_22h08.44.968,Serial_Dependence_U,2023.2.3,Win32,119.04761904759843,,,,,,925.7808999999762,318,3,925.7810000000001,318,,,,929.5306000000238,930.0260000000001,929.0216000000239,929.530300000012,926.784800000012,929.0213999999762,930.0261999999881,930.5251000000238,930.5251999999881,932.3876999999881,1444,932.3876999999881,4,932.3878000000119,3,18,108,27,1,1.2,0.7,Time
,,191755,001,M,23,2025-06-01_22h08.44.968,Serial_Dependence_U,2023.2.3,Win32,119.04761904759843,,,,,,932.3878999999762,127,3,932.388,127,,,,936.3198000000119,936.8108999999762,935.8158000000119,936.3196999999881,933.3838999999762,935.815699999988,936.8108999999762,937.311199999988,937.3113000000119,939.2381999999881,1714,939.2383000000119,4,939.2383999999762,3,19,109,8,1,1.4,0.7,Time
,,191755,001,M,23,2025-06-01_22h08.44.968,Serial_Dependence_U,2023.2.3,Win32,119.04761904759843,,,,,,939.2388000000119,339,3,939.2388000000119,339,,,,942.5958999999762,943.0923999999762,942.0911999999881,942.5956999999881,940.2491000000239,942.091,943.0925,943.591,943.5911000000239,945.1255,1321,945.1256000000238,5,945.125800000012,3,20,110,25,1,0.8,0.7,Time
,,191755,001,M,23,2025-06-01_22h08.44.968,Serial_Dependence_U,2023.2.3,Win32,119.04761904759843,,,,,,945.1261999999881,256,3,945.126300000012,256,,,,949.097300000012,949.5933000000119,948.5893999999762,949.097,946.1238999999762,948.5893000000119,949.5933000000119,950.0938999999762,950.094,951.7021999999881,1381,951.7021999999881,3,951.7021999999881,3,21,111,23,1,1.4,0.3,Time
,,191755,001,M,23,2025-06-01_22h08.44.968,Serial_Dependence_U,2023.2.3,Win32,119.04761904759843,,,,,,951.7023999999761,125,3,951.7025,125,,,,955.0716999999881,955.567300000012,954.5695000000001,955.0713999999762,952.7065,954.5690000000001,955.5673999999761,956.063300000012,956.0633999999761,957.0405000000001,767,957.0406000000239,3,957.0406999999881,3,22,112,20,1,0.8,0.3,Time
,,191755,001,M,23,2025-06-01_22h08.44.968,Serial_Dependence_U,2023.2.3,Win32,119.04761904759843,,,,,,957.0408999999762,38,3,957.041,38,,,,961.2001000000239,961.6958000000119,960.6968999999762,961.2,958.0356999999881,960.696800000012,961.6958999999762,962.1931999999881,962.1931999999881,964.0741999999881,1528,964.0741999999881,3,964.0745000000001,3,23,113,24,1,1.6,0.3,Time
,,191755,001,M,23,2025-06-01_22h08.44.968,Serial_Dependence_U,2023.2.3,Win32,119.04761904759843,,,,,,964.0746999999881,255,3,964.0748000000119,255,,,,968.0158999999762,968.5191000000239,967.514,968.015800000012,965.0763999999762,967.513800000012,968.5191999999881,969.0216000000239,969.0216000000239,970.903300000012,1602,970.9035,4,970.903800000012,3,24,114,18,1,1.4,0.7,Time
,,191755,001,M,23,2025-06-01_22h08.44.968,Serial_Dependence_U,2023.2.3,Win32,119.04761904759843,,,,,,970.9041999999881,114,3,970.904300000012,114,,,,974.6781000000238,975.1696999999881,974.174300000012,974.677800000012,971.912,974.1738999999761,975.169800000012,975.6676000000239,975.6676000000239,977.5263000000119,1439,977.5263999999762,4,977.5268000000119,3,25,115,22,1,1.2,0.3,Time
,,191755,001,M,23,2025-06-01_22h08.44.968,Serial_Dependence_U,2023.2.3,Win32,119.04761904759843,,,,,,977.527199999988,49,3,977.5273000000119,49,,,,981.0771000000238,981.579,980.5713999999762,981.0768000000119,978.5361999999881,980.571,981.5791000000238,982.082199999988,982.082199999988,983.8626999999881,1334,983.8628000000119,5,983.863,3,26,116,26,1,1,0.7,Time
,,191755,001,M,23,2025-06-01_22h08.44.968,Serial_Dependence_U,2023.2.3,Win32,119.04761904759843,,,,,,983.8633999999761,75,3,983.8633999999761,75,,,,987.4425000000001,987.9436000000239,986.937100000024,987.4421999999881,984.8686000000239,986.9368999999763,987.9436000000239,988.4403999999761,988.4404999999999,990.22,1492,990.2201000000239,5,990.2203999999763,3,27,117,21,1,1,0.3,Time
,,191755,001,M,23,2025-06-01_22h08.44.968,Serial_Dependence_U,2023.2.3,Win32,119.04761904759843,,,,,,990.220699999988,350,3,990.2208000000119,350,,,,993.9966999999881,994.4933000000119,993.4898999999762,993.9966000000238,991.2231000000238,993.489699999988,994.4933000000119,994.9981999999882,994.998300000012,996.6748999999761,1234,996.675,3,996.675,3,28,118,12,1,1.2,0.3,Time
,,191755,001,M,23,2025-06-01_22h08.44.968,Serial_Dependence_U,2023.2.3,Win32,119.04761904759843,,,,,,996.6753000000119,182,3,996.6753000000119,182,,,,1000.6455000000001,1001.1473999999762,1000.142,1000.6453999999762,997.6763999999762,1000.1416999999881,1001.1473999999762,1001.6445000000001,1001.6445000000001,1003.7793999999762,1841,1003.7795000000001,5,1003.779699999988,3,29,119,3,1,1.4,0.3,Time
,,191755,001,M,23,2025-06-01_22h08.44.968,Serial_Dependence_U,2023.2.3,Win32,119.04761904759843,,,,,,1003.7798999999761,78,4,1033.8915,78,s,30.103000000000065,,1038.0345,1038.534,1037.529,1038.034100000024,1034.8928999999762,1037.528699999988,1038.534100000024,1039.031300000012,1039.031300000012,1040.4498999999762,1244,1040.4498999999762,2,1040.450100000024,4,0,120,19,1,1.6,0.7,Time
,,191755,001,M,23,2025-06-01_22h08.44.968,Serial_Dependence_U,2023.2.3,Win32,119.04761904759843,,,,,,1040.450399999976,350,4,1040.451,350,,,,1044.603399999976,1045.1051000000239,1044.102100000024,1044.6031999999882,1041.4611999999881,1044.102,1045.1051000000239,1045.6061999999881,1045.606300000012,1047.5398999999761,1602,1047.54,3,1047.540199999988,4,1,121,29,1,1.6,0.7,Time
,,191755,001,M,23,2025-06-01_22h08.44.968,Serial_Dependence_U,2023.2.3,Win32,119.04761904759843,,,,,,1047.540300000012,29,4,1047.540300000012,29,,,,1051.2878000000119,1051.7911000000238,1050.782199999988,1051.2875000000001,1048.5451999999882,1050.781899999976,1051.791199999988,1052.296,1052.296,1054.2565,1680,1054.2565,5,1054.256699999988,4,2,122,17,1,1.2,0.7,Time
,,191755,001,M,23,2025-06-01_22h08.44.968,Serial_Dependence_U,2023.2.3,Win32,119.04761904759843,,,,,,1054.256800000012,251,4,1054.2568999999762,251,,,,1058.4296000000238,1058.934600000024,1057.925600000024,1058.4293000000118,1055.2615,1057.9253999999762,1058.934600000024,1059.430399999976,1059.4305,1061.0256000000238,1358,1061.025699999988,2,1061.025800000012,4,3,123,14,1,1.6,0.3,Time
,,191755,001,M,23,2025-06-01_22h08.44.968,Serial_Dependence_U,2023.2.3,Win32,119.04761904759843,,,,,,1061.0258999999762,150,4,1061.026,150,,,,1064.805,1065.305300000012,1064.301,1064.804699999988,1062.031800000012,1064.300600000024,1065.305300000012,1065.8048999999762,1065.8048999999762,1067.381100000024,1458,1067.3811999999882,4,1067.3813000000118,4,4,124,12,1,1.2,0.3,Time
,,191755,001,M,23,2025-06-01_22h08.44.968,Serial_Dependence_U,2023.2.3,Win32,119.04761904759843,,,,,,1067.3816000000238,92,4,1067.3816000000238,92,,,,1070.9283999999761,1071.432,1070.4265,1070.928,1068.3836000000238,1070.4263999999762,1071.432,1071.9363999999762,1071.9363999999762,1073.745100000024,1502,1073.745199999988,5,1073.7453000000119,4,5,125,26,1,1,0.7,Time
,,191755,001,M,23,2025-06-01_22h08.44.968,Serial_Dependence_U,2023.2.3,Win32,119.04761904759843,,,,,,1073.7453999999761,24,4,1073.7453999999761,24,,,,1077.494800000012,1077.9891000000239,1076.9853999999762,1077.4943999999762,1074.753300000012,1076.9853000000119,1077.9891999999882,1078.4931000000238,1078.493300000012,1080.0775,1333,1080.0775,4,1080.077699999988,4,6,126,7,1,1.2,0.7,Time
,,191755,001,M,23,2025-06-01_22h08.44.968,Serial_Dependence_U,2023.2.3,Win32,119.04761904759843,,,,,,1080.0778000000118,285,4,1080.0778000000118,285,,,,1084.0511000000238,1084.55,1083.5488000000119,1084.0506999999882,1081.0825,1083.5485,1084.5501000000238,1085.0443000000118,1085.0443999999761,1086.7213999999763,1346,1086.7213999999763,3,1086.721699999988,4,7,127,13,1,1.4,0.3,Time
,,191755,001,M,23,2025-06-01_22h08.44.968,Serial_Dependence_U,2023.2.3,Win32,119.04761904759843,,,,,,1086.7221000000238,205,4,1086.722199999988,205,,,,1090.2871000000239,1090.793199999988,1089.7851999999882,1090.2868999999762,1087.7233999999762,1089.785100000024,1090.793199999988,1091.294,1091.294,1093.3435,1700,1093.3436000000238,5,1093.343699999988,4,8,128,11,1,1,0.3,Time
,,191755,001,M,23,2025-06-01_22h08.44.968,Serial_Dependence_U,2023.2.3,Win32,119.04761904759843,,,,,,1093.344100000024,14,4,1093.344100000024,14,,,,1097.5171999999882,1098.019699999988,1097.0145,1097.516800000012,1094.3476999999882,1097.0143000000119,1098.019699999988,1098.5136999999881,1098.513800000012,1100.447100000024,1687,1100.447100000024,4,1100.447100000024,4,9,129,4,1,1.6,0.3,Time
,,191755,001,M,23,2025-06-01_22h08.44.968,Serial_Dependence_U,2023.2.3,Win32,119.04761904759843,,,,,,1100.4473000000119,50,4,1100.4473999999761,50,,,,1104.420100000024,1104.9288999999762,1103.913300000012,1104.420100000024,1101.4483999999761,1103.9131000000239,1104.9288999999762,1105.425300000012,1105.425300000012,1107.6496999999881,1969,1107.6496999999881,5,1107.6498999999762,4,10,130,3,1,1.4,0.3,Time
,,191755,001,M,23,2025-06-01_22h08.44.968,Serial_Dependence_U,2023.2.3,Win32,119.04761904759843,,,,,,1107.65,215,4,1107.650100000024,215,,,,1110.991300000012,1111.4885,1110.489,1110.991,1108.657,1110.488699999988,1111.4885,1111.982199999988,1111.982199999988,1113.303199999988,1074,1113.303199999988,5,1113.3033000000119,4,11,131,5,1,0.8,0.7,Time
,,191755,001,M,23,2025-06-01_22h08.44.968,Serial_Dependence_U,2023.2.3,Win32,119.04761904759843,,,,,,1113.3035,202,4,1113.3036000000238,202,,,,1117.444199999988,1117.945800000012,1116.9396000000238,1117.444,1114.3028999999763,1116.9391999999882,1117.9458999999763,1118.441,1118.4411999999882,1120.4868999999762,1750,1120.4868999999762,4,1120.487300000012,4,12,132,9,1,1.6,0.7,Time
,,191755,001,M,23,2025-06-01_22h08.44.968,Serial_Dependence_U,2023.2.3,Win32,119.04761904759843,,,,,,1120.4876000000238,199,4,1120.487699999988,199,,,,1123.8481000000238,1124.344699999988,1123.3435,1123.847800000012,1121.4825,1123.343100000024,1124.344699999988,1124.8453999999763,1124.8455000000001,1126.397300000012,1309,1126.397300000012,5,1126.3973999999762,4,13,133,10,1,0.8,0.3,Time
,,191755,001,M,23,2025-06-01_22h08.44.968,Serial_Dependence_U,2023.2.3,Win32,119.04761904759843,,,,,,1126.3976000000239,330,4,1126.3976999999882,330,,,,1130.146199999988,1130.6438000000119,1129.6376999999882,1130.146,1127.4045,1129.637600000024,1130.6438999999762,1131.1478999999763,1131.1478999999763,1133.129199999988,1507,1133.1293000000119,4,1133.1293999999762,4,14,134,27,1,1.2,0.7,Time
,,191755,001,M,23,2025-06-01_22h08.44.968,Serial_Dependence_U,2023.2.3,Win32,119.04761904759843,,,,,,1133.1295,352,4,1133.1295,352,,,,1137.0955000000001,1137.592100000024,1136.588600000024,1137.0951999999882,1134.1273999999762,1136.588300000012,1137.592199999988,1138.095600000024,1138.0958000000119,1139.8698999999763,1437,1139.8698999999763,3,1139.8700000000001,4,15,135,23,1,1.4,0.3,Time
,,191755,001,M,23,2025-06-01_22h08.44.968,Serial_Dependence_U,2023.2.3,Win32,119.04761904759843,,,,,,1139.870100000024,256,4,1139.870199999988,256,,,,1143.237,1143.7336999999882,1142.733800000012,1143.236699999988,1140.8705,1142.7335,1143.7336999999882,1144.228800000012,1144.228800000012,1146.1116000000238,1530,1146.111699999988,5,1146.111800000012,4,16,136,0,1,0.8,0.3,Time
,,191755,001,M,23,2025-06-01_22h08.44.968,Serial_Dependence_U,2023.2.3,Win32,119.04761904759843,,,,,,1146.1118999999762,246,4,1146.112,246,,,,1149.4918000000118,1149.986699999988,1148.9856999999881,1149.4918000000118,1147.124,1148.9856999999881,1149.986800000012,1150.4875,1150.4876000000238,1152.582100000024,1741,1152.5823000000119,5,1152.5823999999761,4,17,137,20,1,0.8,0.3,Time
,,191755,001,M,23,2025-06-01_22h08.44.968,Serial_Dependence_U,2023.2.3,Win32,119.04761904759843,,,,,,1152.5826000000238,205,4,1152.582699999988,205,,,,1156.1313000000118,1156.6251999999881,1155.622100000024,1156.131,1153.5868999999761,1155.622,1156.625300000012,1157.123800000012,1157.123800000012,1159.1441000000239,1455,1159.1441000000239,5,1159.1441999999881,4,18,138,16,1,1,0.7,Time
,,191755,001,M,23,2025-06-01_22h08.44.968,Serial_Dependence_U,2023.2.3,Win32,119.04761904759843,,,,,,1159.144300000012,86,4,1159.1445,86,,,,1163.0996999999882,1163.602100000024,1162.5906999999881,1163.0996000000239,1160.1571000000238,1162.5903999999762,1163.6021999999882,1164.097,1164.0971000000238,1166.2501999999881,1692,1166.2501999999881,4,1166.250300000012,4,19,139,8,1,1.4,0.7,Time
,,191755,001,M,23,2025-06-01_22h08.44.968,Serial_Dependence_U,2023.2.3,Win32,119.04761904759843,,,,,,1166.250600000024,157,4,1166.250600000024,157,,,,1169.791300000012,1170.2878000000119,1169.290300000012,1169.791199999988,1167.2558999999762,1169.2901000000238,1170.2878000000119,1170.7805,1170.7805,1172.9331000000238,1702,1172.9331000000238,5,1172.9333999999762,4,20,140,6,1,1,0.7,Time
,,191755,001,M,23,2025-06-01_22h08.44.968,Serial_Dependence_U,2023.2.3,Win32,119.04761904759843,,,,,,1172.9335,39,4,1172.9335,39,,,,1177.104800000012,1177.6058000000119,1176.599300000012,1177.1046000000238,1173.938,1176.599199999988,1177.6058000000119,1178.108,1178.1081000000238,1180.2031000000238,1684,1180.203199999988,4,1180.2035,4,21,141,24,1,1.6,0.3,Time
,,191755,001,M,23,2025-06-01_22h08.44.968,Serial_Dependence_U,2023.2.3,Win32,119.04761904759843,,,,,,1180.203899999976,330,4,1180.204,330,,,,1184.1563999999762,1184.652800000012,1183.652300000012,1184.1561000000238,1181.212699999988,1183.6521999999882,1184.652800000012,1185.151699999988,1185.151699999988,1187.2363999999761,1809,1187.2363999999761,4,1187.2365,4,22,142,28,1,1.4,0.7,Time
,,191755,001,M,23,2025-06-01_22h08.44.968,Serial_Dependence_U,2023.2.3,Win32,119.04761904759843,,,,,,1187.236800000012,272,4,1187.2368999999762,272,,,,1191.1756999999882,1191.6751000000238,1190.6728999999762,1191.175600000024,1188.2391000000239,1190.6725000000001,1191.675199999988,1192.174800000012,1192.175,1194.1445,1672,1194.1445,4,1194.1448999999761,4,23,143,18,1,1.4,0.7,Time
,,191755,001,M,23,2025-06-01_22h08.44.968,Serial_Dependence_U,2023.2.3,Win32,119.04761904759843,,,,,,1194.145300000012,80,4,1194.1455,80,,,,1197.7301000000239,1198.220699999988,1197.2215,1197.729699999988,1195.155600000024,1197.2211000000239,1198.220699999988,1198.715300000012,1198.7155,1200.466800000012,1549,1200.466800000012,5,1200.4668999999762,4,24,144,21,1,1,0.3,Time
,,191755,001,M,23,2025-06-01_22h08.44.968,Serial_Dependence_U,2023.2.3,Win32,119.04761904759843,,,,,,1200.467,309,4,1200.467100000024,309,,,,1203.804100000024,1204.2995,1203.297300000012,1203.804,1201.463199999988,1203.297,1204.2995,1204.7965,1204.7965,1206.0645,1084,1206.0646000000238,5,1206.064800000012,4,25,145,15,1,0.8,0.7,Time
,,191755,001,M,23,2025-06-01_22h08.44.968,Serial_Dependence_U,2023.2.3,Win32,119.04761904759843,,,,,,1206.065100000024,312,4,1206.0651999999882,312,,,,1209.6411999999882,1210.138199999988,1209.1335,1209.6411999999882,1207.0703999999762,1209.1335,1210.138199999988,1210.6341000000239,1210.6341999999881,1212.0528999999763,1119,1212.053,4,1212.053100000024,4,26,146,1,1,1,0.3,Time
,,191755,001,M,23,2025-06-01_22h08.44.968,Serial_Dependence_U,2023.2.3,Win32,119.04761904759843,,,,,,1212.0533000000119,94,4,1212.0533000000119,94,,,,1215.834399999976,1216.3368999999761,1215.3328999999762,1215.834,1213.063,1215.3326000000238,1216.3368999999761,1216.8318999999763,1216.8318999999763,1218.5401000000238,1516,1218.5401000000238,4,1218.540300000012,4,27,147,2,1,1.2,0.3,Time
,,191755,001,M,23,2025-06-01_22h08.44.968,Serial_Dependence_U,2023.2.3,Win32,119.04761904759843,,,,,,1218.5403999999762,59,4,1218.5405,59,,,,1222.326699999988,1222.827,1221.8183999999762,1222.326300000012,1219.5491000000238,1221.8181000000238,1222.8271999999881,1223.3256000000238,1223.325699999988,1225.2525,1742,1225.2525,5,1225.252600000024,4,28,148,22,1,1.2,0.3,Time
,,191755,001,M,23,2025-06-01_22h08.44.968,Serial_Dependence_U,2023.2.3,Win32,119.04761904759843,,,,,,1225.253,122,4,1225.2531000000238,122,,,,1228.5968000000119,1229.098199999988,1228.091800000012,1228.596600000024,1226.259699999988,1228.0913999999761,1229.098300000012,1229.602,1229.602,1231.668199999988,1805,1231.6683000000119,5,1231.6686999999881,4,29,149,25,1,0.8,0.7,Time
,,191755,001,M,23,2025-06-01_22h08.44.968,Serial_Dependence_U,2023.2.3,Win32,119.04761904759843,,,,,,1231.669100000024,181,5,1258.0848999999762,181,s,26.40360000002397,,1262.2315,1262.7266000000238,1261.7268999999762,1262.231300000012,1259.0883999999762,1261.726800000012,1262.7266000000238,1263.218300000012,1263.2185,1265.187800000012,1535,1265.1878999999763,3,1265.188,5,0,150,29,1,1.6,0.7,Time
,,191755,001,M,23,2025-06-01_22h08.44.968,Serial_Dependence_U,2023.2.3,Win32,119.04761904759843,,,,,,1265.188199999988,166,5,1265.189699999988,166,,,,1269.1586999999881,1269.655,1268.657300000012,1269.1586999999881,1266.1958999999763,1268.657,1269.655,1270.1580000000001,1270.158100000024,1272.161300000012,1627,1272.161399999976,4,1272.1615,5,1,151,3,1,1.4,0.3,Time
,,191755,001,M,23,2025-06-01_22h08.44.968,Serial_Dependence_U,2023.2.3,Win32,119.04761904759843,,,,,,1272.1616000000238,4,5,1272.161699999988,4,,,,1276.1015,1276.599800000012,1275.598899999976,1276.1013000000119,1273.163,1275.598800000012,1276.599800000012,1277.1053999999763,1277.1053999999763,1278.829199999988,1461,1278.829199999988,3,1278.8293999999762,5,2,152,8,1,1.4,0.7,Time
,,191755,001,M,23,2025-06-01_22h08.44.968,Serial_Dependence_U,2023.2.3,Win32,119.04761904759843,,,,,,1278.829600000024,61,5,1278.829600000024,61,,,,1283.001,1283.5055,1282.494,1283.0008000000118,1279.8281000000238,1282.4938999999763,1283.5055,1284.001800000012,1284.001899999976,1285.9063999999762,1637,1285.9063999999762,3,1285.9065,5,3,153,4,1,1.6,0.3,Time
,,191755,001,M,23,2025-06-01_22h08.44.968,Serial_Dependence_U,2023.2.3,Win32,119.04761904759843,,,,,,1285.9066999999882,101,5,1285.9066999999882,101,,,,1289.8643999999763,1290.362300000012,1289.356600000024,1289.8641000000239,1286.9195,1289.3561999999881,1290.362300000012,1290.8573999999762,1290.8573999999762,1292.756100000024,1624,1292.756100000024,4,1292.7565,5,4,154,28,1,1.4,0.7,Time
,,191755,001,M,23,2025-06-01_22h08.44.968,Serial_Dependence_U,2023.2.3,Win32,119.04761904759843,,,,,,1292.756699999988,134,5,1292.7568999999762,134,,,,1296.5365,1297.040800000012,1296.0321000000238,1296.536100000024,1293.768300000012,1296.031899999976,1297.040899999976,1297.540199999988,1297.540300000012,1299.430100000024,1488,1299.4301999999882,4,1299.430399999976,5,5,155,2,1,1.2,0.3,Time
,,191755,001,M,23,2025-06-01_22h08.44.968,Serial_Dependence_U,2023.2.3,Win32,119.04761904759843,,,,,,1299.4306000000238,258,5,1299.4306000000238,258,,,,1303.008699999988,1303.5015,1302.5021000000238,1303.0085,1300.439699999988,1302.502,1303.501600000024,1304.001899999976,1304.002,1305.812800000012,1481,1305.812800000012,5,1305.8128999999763,5,6,156,21,1,1,0.3,Time
,,191755,001,M,23,2025-06-01_22h08.44.968,Serial_Dependence_U,2023.2.3,Win32,119.04761904759843,,,,,,1305.813100000024,117,5,1305.813199999988,117,,,,1309.3606999999881,1309.856699999988,1308.8551999999881,1309.3606000000239,1306.821300000012,1308.8548999999762,1309.8568000000118,1310.352699999988,1310.352800000012,1312.3551000000239,1699,1312.3551999999881,5,1312.355300000012,5,7,157,16,1,1,0.7,Time
,,191755,001,M,23,2025-06-01_22h08.44.968,Serial_Dependence_U,2023.2.3,Win32,119.04761904759843,,,,,,1312.3553999999763,185,5,1312.3553999999763,185,,,,1316.502800000012,1317.002899999976,1315.9995000000001,1316.5025,1313.366199999988,1315.9993999999763,1317.002899999976,1317.501199999988,1317.501300000012,1319.1045,1484,1319.1046000000238,2,1319.104800000012,5,8,158,9,1,1.6,0.7,Time
,,191755,001,M,23,2025-06-01_22h08.44.968,Serial_Dependence_U,2023.2.3,Win32,119.04761904759843,,,,,,1319.1051000000239,275,5,1319.1051999999881,275,,,,1322.8483999999762,1323.343399999976,1322.344100000024,1322.8481000000238,1320.1068999999761,1322.344,1323.343399999976,1323.842,1323.842,1325.84,1617,1325.84,5,1325.840199999988,5,9,159,17,1,1.2,0.7,Time
,,191755,001,M,23,2025-06-01_22h08.44.968,Serial_Dependence_U,2023.2.3,Win32,119.04761904759843,,,,,,1325.8405,34,5,1325.8405,34,,,,1329.5808999999763,1330.0756000000238,1329.079199999988,1329.5806999999882,1326.843800000012,1329.078899999976,1330.0756000000238,1330.5748999999762,1330.575,1332.910100000024,1565,1332.9101999999882,5,1332.9105,5,10,160,27,1,1.2,0.7,Time
,,191755,001,M,23,2025-06-01_22h08.44.968,Serial_Dependence_U,2023.2.3,Win32,119.04761904759843,,,,,,1332.9108999999762,14,5,1332.911,14,,,,1336.854800000012,1337.351199999988,1336.348,1336.8543999999763,1333.915199999988,1336.347600000024,1337.351199999988,1337.8523999999761,1337.8525,1340.166800000012,1483,1340.1668999999763,4,1340.1671000000238,5,11,161,18,1,1.4,0.7,Time
,,191755,001,M,23,2025-06-01_22h08.44.968,Serial_Dependence_U,2023.2.3,Win32,119.04761904759843,,,,,,1340.1675,237,5,1340.1676999999881,237,,,,1344.348899999976,1344.8503999999762,1343.840800000012,1344.348600000024,1341.1721000000239,1343.840800000012,1344.8503999999762,1345.346600000024,1345.346699999988,1347.3786999999882,1727,1347.378800000012,4,1347.3791000000238,5,12,162,24,1,1.6,0.3,Time
,,191755,001,M,23,2025-06-01_22h08.44.968,Serial_Dependence_U,2023.2.3,Win32,119.04761904759843,,,,,,1347.3796000000239,262,5,1347.379800000012,262,,,,1351.153699999988,1351.6535000000001,1350.6448999999761,1351.1533999999763,1348.3836000000238,1350.6445,1351.6535000000001,1352.1525,1352.1525,1354.4286000000238,1774,1354.4286000000238,5,1354.428699999988,5,13,163,12,1,1.2,0.3,Time
,,191755,001,M,23,2025-06-01_22h08.44.968,Serial_Dependence_U,2023.2.3,Win32,119.04761904759843,,,,,,1354.4288999999762,41,5,1354.429,41,,,,1358.5746000000238,1359.072800000012,1358.068300000012,1358.574399999976,1355.432300000012,1358.068199999988,1359.0728999999762,1359.5763999999763,1359.5763999999763,1361.3065,1555,1361.3065,3,1361.3066000000238,5,14,164,19,1,1.6,0.7,Time
,,191755,001,M,23,2025-06-01_22h08.44.968,Serial_Dependence_U,2023.2.3,Win32,119.04761904759843,,,,,,1361.306800000012,141,5,1361.3068999999762,141,,,,1364.6621999999882,1365.1623999999763,1364.1526000000238,1364.6621000000239,1362.314800000012,1364.152399999976,1365.1623999999763,1365.658800000012,1365.659,1367.256699999988,1341,1367.256800000012,5,1367.257,5,15,165,25,1,0.8,0.7,Time
,,191755,001,M,23,2025-06-01_22h08.44.968,Serial_Dependence_U,2023.2.3,Win32,119.04761904759843,,,,,,1367.257100000024,104,5,1367.257100000024,104,,,,1371.226,1371.7285,1370.7243999999762,1371.2256999999881,1368.263199999988,1370.724300000012,1371.7285,1372.231,1372.2311000000238,1373.925600000024,1408,1373.925600000024,3,1373.925800000012,5,16,166,13,1,1.4,0.3,Time
,,191755,001,M,23,2025-06-01_22h08.44.968,Serial_Dependence_U,2023.2.3,Win32,119.04761904759843,,,,,,1373.9261000000238,35,5,1373.9261000000238,35,,,,1377.700100000024,1378.2051000000238,1377.1913999999763,1377.699800000012,1374.928800000012,1377.1911000000239,1378.205199999988,1378.705300000012,1378.7053999999762,1380.749600000024,1603,1380.749699999988,5,1380.7498000000119,5,17,167,22,1,1.2,0.3,Time
,,191755,001,M,23,2025-06-01_22h08.44.968,Serial_Dependence_U,2023.2.3,Win32,119.04761904759843,,,,,,1380.7501000000238,125,5,1380.7501000000238,125,,,,1384.4946000000239,1384.9956000000238,1383.9895000000001,1384.494300000012,1381.7546999999881,1383.9893999999763,1384.9956999999881,1385.497399999976,1385.4975,1387.357300000012,1565,1387.3573999999762,5,1387.357600000024,5,18,168,7,1,1.2,0.7,Time
,,191755,001,M,23,2025-06-01_22h08.44.968,Serial_Dependence_U,2023.2.3,Win32,119.04761904759843,,,,,,1387.3581000000238,139,5,1387.3581000000238,139,,,,1390.7271999999882,1391.222,1390.225199999988,1390.7268999999762,1388.362399999976,1390.2248999999763,1391.222199999988,1391.7205000000001,1391.720600000024,1393.669199999988,1609,1393.6693000000118,5,1393.6693999999761,5,19,169,20,1,0.8,0.3,Time
,,191755,001,M,23,2025-06-01_22h08.44.968,Serial_Dependence_U,2023.2.3,Win32,119.04761904759843,,,,,,1393.6696000000238,213,5,1393.669699999988,213,,,,1397.2443999999762,1397.748300000012,1396.7391999999882,1397.244300000012,1394.676300000012,1396.7388999999762,1397.748300000012,1398.246100000024,1398.246100000024,1400.0355,1601,1400.0356000000238,5,1400.035800000012,5,20,170,11,1,1,0.3,Time
,,191755,001,M,23,2025-06-01_22h08.44.968,Serial_Dependence_U,2023.2.3,Win32,119.04761904759843,,,,,,1400.036,13,5,1400.036,13,,,,1404.005,1404.505699999988,1403.501800000012,1404.0046999999881,1401.034800000012,1403.5015,1404.505699999988,1405.0036999999882,1405.0036999999882,1406.9628999999761,1695,1406.9628999999761,4,1406.963300000012,5,21,171,23,1,1.4,0.3,Time
,,191755,001,M,23,2025-06-01_22h08.44.968,Serial_Dependence_U,2023.2.3,Win32,119.04761904759843,,,,,,1406.963600000024,291,5,1406.9636999999882,291,,,,1410.3025,1410.800899999976,1409.796300000012,1410.302199999988,1407.963199999988,1409.796100000024,1410.800899999976,1411.2975000000001,1411.297600000024,1412.885600000024,1340,1412.885699999988,5,1412.886,5,22,172,5,1,0.8,0.7,Time
,,191755,001,M,23,2025-06-01_22h08.44.968,Serial_Dependence_U,2023.2.3,Win32,119.04761904759843,,,,,,1412.8863999999762,214,5,1412.8865,214,,,,1416.4333999999762,1416.929699999988,1415.930300000012,1416.4331000000238,1413.898199999988,1415.9298999999762,1416.929699999988,1417.4321000000239,1417.432300000012,1419.0763999999763,1262,1419.0765000000001,4,1419.0768000000119,5,23,173,26,1,1,0.7,Time
,,191755,001,M,23,2025-06-01_22h08.44.968,Serial_Dependence_U,2023.2.3,Win32,119.04761904759843,,,,,,1419.0771000000238,156,5,1419.0771999999881,156,,,,1422.4521999999881,1422.9491999999882,1421.944899999976,1422.4521999999881,1420.0825,1421.9446999999882,1422.9491999999882,1423.4438000000118,1423.443899999976,1424.868800000012,934,1424.868800000012,4,1424.8688999999763,5,24,174,10,1,0.8,0.3,Time
,,191755,001,M,23,2025-06-01_22h08.44.968,Serial_Dependence_U,2023.2.3,Win32,119.04761904759843,,,,,,1424.869199999988,158,5,1424.869300000012,158,,,,1428.4061000000238,1428.9083000000119,1427.903,1428.405800000012,1425.868199999988,1427.902800000012,1428.9083999999762,1429.406300000012,1429.406300000012,1431.197800000012,1404,1431.198,5,1431.198199999988,5,25,175,6,1,1,0.7,Time
,,191755,001,M,23,2025-06-01_22h08.44.968,Serial_Dependence_U,2023.2.3,Win32,119.04761904759843,,,,,,1431.1985,164,5,1431.198699999988,164,,,,1434.7726000000239,1435.2711000000238,1434.2688999999762,1434.7726000000239,1432.208100000024,1434.268699999988,1435.2711000000238,1435.766100000024,1435.7661999999882,1437.827300000012,1701,1437.8275,5,1437.827699999988,5,26,176,1,1,1,0.3,Time
,,191755,001,M,23,2025-06-01_22h08.44.968,Serial_Dependence_U,2023.2.3,Win32,119.04761904759843,,,,,,1437.8281000000238,351,5,1437.8281000000238,351,,,,1441.1721999999882,1441.6733999999763,1440.666800000012,1441.171800000012,1438.8338999999762,1440.6665,1441.6733999999763,1442.1735,1442.173600000024,1443.834100000024,1486,1443.8341999999882,5,1443.834399999976,5,27,177,15,1,0.8,0.7,Time
,,191755,001,M,23,2025-06-01_22h08.44.968,Serial_Dependence_U,2023.2.3,Win32,119.04761904759843,,,,,,1443.8348999999762,181,5,1443.835,181,,,,1447.214300000012,1447.7115000000001,1446.708800000012,1447.2141000000238,1444.837699999988,1446.7086000000238,1447.7115000000001,1448.2096000000238,1448.2096000000238,1450.0008999999761,1422,1450.0008999999761,5,1450.001,5,28,178,0,1,0.8,0.3,Time
,,191755,001,M,23,2025-06-01_22h08.44.968,Serial_Dependence_U,2023.2.3,Win32,119.04761904759843,,,,,,1450.001199999988,353,5,1450.001300000012,353,,,,1454.178,1454.6765,1453.6738000000119,1454.177800000012,1451.008800000012,1453.673699999988,1454.6765,1455.180399999976,1455.1805,1456.8453999999763,1499,1456.8455000000001,2,1456.845699999988,5,29,179,14,1,1.6,0.3,Time
,,191755,001,M,23,2025-06-01_22h08.44.968,Serial_Dependence_U,2023.2.3,Win32,119.04761904759843,,,,,,1456.8461000000239,315,6,1572.414600000024,315,s,115.55719999998814,,1576.3585,1576.860100000024,1575.8546000000238,1576.358199999988,1573.422,1575.8543999999763,1576.860100000024,1577.361199999988,1577.361199999988,1579.4541000000238,1544,1579.454199999988,4,1579.454600000024,6,0,180,28,1,1.4,0.7,Time
,,191755,001,M,23,2025-06-01_22h08.44.968,Serial_Dependence_U,2023.2.3,Win32,119.04761904759843,,,,,,1579.455,214,6,1579.4566000000239,214,,,,1583.6055000000001,1584.0996000000239,1583.099300000012,1583.605300000012,1580.4623999999762,1583.099,1584.0996000000239,1584.594399999976,1584.5945,1586.546699999988,1551,1586.5468999999762,3,1586.5471000000239,6,1,181,9,1,1.6,0.7,Time
,,191755,001,M,23,2025-06-01_22h08.44.968,Serial_Dependence_U,2023.2.3,Win32,119.04761904759843,,,,,,1586.5475000000001,46,6,1586.547600000024,46,,,,1590.6861000000238,1591.1838999999761,1590.178199999988,1590.685800000012,1587.547,1590.178100000024,1591.1838999999761,1591.684800000012,1591.684899999976,1593.490600000024,1325,1593.490699999988,2,1593.4908999999761,6,2,182,29,1,1.6,0.7,Time
,,191755,001,M,23,2025-06-01_22h08.44.968,Serial_Dependence_U,2023.2.3,Win32,119.04761904759843,,,,,,1593.4913999999762,138,6,1593.4915,138,,,,1597.2646000000238,1597.7676000000238,1596.761600000024,1597.2643999999761,1594.496199999988,1596.7613999999762,1597.7676000000238,1598.267399999976,1598.267399999976,1600.0001000000238,1510,1600.0001999999881,4,1600.0003999999763,6,3,183,2,1,1.2,0.3,Time
,,191755,001,M,23,2025-06-01_22h08.44.968,Serial_Dependence_U,2023.2.3,Win32,119.04761904759843,,,,,,1600.0008000000118,79,6,1600.0008999999761,79,,,,1603.548300000012,1604.0511000000238,1603.0438999999762,1603.5478999999762,1601.0031000000238,1603.043800000012,1604.0511000000238,1604.551800000012,1604.551800000012,1606.964300000012,1538,1606.964300000012,5,1606.9645,6,4,184,16,1,1,0.7,Time
,,191755,001,M,23,2025-06-01_22h08.44.968,Serial_Dependence_U,2023.2.3,Win32,119.04761904759843,,,,,,1606.9646999999882,128,6,1606.9646999999882,128,,,,1610.7018000000119,1611.1973999999761,1610.200800000012,1610.701699999988,1607.968800000012,1610.200800000012,1611.1975,1611.6928999999761,1611.693,1613.665,1662,1613.6651000000238,5,1613.665300000012,6,5,185,7,1,1.2,0.7,Time
,,191755,001,M,23,2025-06-01_22h08.44.968,Serial_Dependence_U,2023.2.3,Win32,119.04761904759843,,,,,,1613.6656999999882,128,6,1613.665800000012,128,,,,1617.4223999999763,1617.9211999999882,1616.9176000000239,1617.4221000000239,1614.6806000000238,1616.917199999988,1617.921300000012,1618.4223999999763,1618.4223999999763,1620.5806000000239,1525,1620.5806000000239,4,1620.5808999999763,6,6,186,17,1,1.2,0.7,Time
,,191755,001,M,23,2025-06-01_22h08.44.968,Serial_Dependence_U,2023.2.3,Win32,119.04761904759843,,,,,,1620.5813000000119,136,6,1620.5813999999762,136,,,,1624.5575000000001,1625.0543000000118,1624.053199999988,1624.5571999999881,1621.583800000012,1624.053100000024,1625.054399999976,1625.558300000012,1625.558300000012,1627.633300000012,1546,1627.6335,4,1627.633800000012,6,7,187,23,1,1.4,0.3,Time
,,191755,001,M,23,2025-06-01_22h08.44.968,Serial_Dependence_U,2023.2.3,Win32,119.04761904759843,,,,,,1627.6341000000239,81,6,1627.6343999999763,81,,,,1630.977100000024,1631.4813999999762,1630.4748999999763,1630.976800000012,1628.643699999988,1630.474800000012,1631.4813999999762,1631.9825,1631.9825,1634.107300000012,1589,1634.107300000012,5,1634.1075,6,8,188,25,1,0.8,0.7,Time
,,191755,001,M,23,2025-06-01_22h08.44.968,Serial_Dependence_U,2023.2.3,Win32,119.04761904759843,,,,,,1634.107600000024,52,6,1634.1076999999882,52,,,,1638.076699999988,1638.5773999999763,1637.5746000000238,1638.0763999999763,1635.1106000000239,1637.574399999976,1638.5773999999763,1639.074300000012,1639.074300000012,1640.926,1338,1640.926,3,1640.926199999988,6,9,189,13,1,1.4,0.3,Time
,,191755,001,M,23,2025-06-01_22h08.44.968,Serial_Dependence_U,2023.2.3,Win32,119.04761904759843,,,,,,1640.926300000012,227,6,1640.9263999999762,227,,,,1644.4963000000118,1644.9931000000238,1643.9898999999762,1644.496199999988,1641.9288999999762,1643.9898000000119,1644.9931000000238,1645.488,1645.488100000024,1647.059600000024,1283,1647.059600000024,4,1647.0596999999882,6,10,190,11,1,1,0.3,Time
,,191755,001,M,23,2025-06-01_22h08.44.968,Serial_Dependence_U,2023.2.3,Win32,119.04761904759843,,,,,,1647.06,127,6,1647.06,127,,,,1650.5935,1651.093800000012,1650.0926000000238,1650.593399999976,1648.0581000000238,1650.0923000000118,1651.0938999999762,1651.5881000000238,1651.5881000000238,1653.588800000012,1489,1653.588899999976,5,1653.5891000000238,6,11,191,26,1,1,0.7,Time
,,191755,001,M,23,2025-06-01_22h08.44.968,Serial_Dependence_U,2023.2.3,Win32,119.04761904759843,,,,,,1653.5895,187,6,1653.5896999999882,187,,,,1657.565399999976,1658.063800000012,1657.0611000000238,1657.565100000024,1654.5955000000001,1657.0606999999882,1658.0638999999762,1658.559199999988,1658.559199999988,1660.8971000000238,1873,1660.8971000000238,5,1660.8975,6,12,192,3,1,1.4,0.3,Time
,,191755,001,M,23,2025-06-01_22h08.44.968,Serial_Dependence_U,2023.2.3,Win32,119.04761904759843,,,,,,1660.897800000012,126,6,1660.898,126,,,,1664.466100000024,1664.9678999999762,1663.964,1664.4656999999881,1661.9028999999762,1663.963899999976,1664.9678999999762,1665.464899999976,1665.465,1667.101699999988,1337,1667.101699999988,5,1667.101800000012,6,13,193,21,1,1,0.3,Time
,,191755,001,M,23,2025-06-01_22h08.44.968,Serial_Dependence_U,2023.2.3,Win32,119.04761904759843,,,,,,1667.1018999999762,297,6,1667.102,297,,,,1670.471699999988,1670.964600000024,1669.9635,1670.471600000024,1668.1013999999761,1669.963300000012,1670.964600000024,1671.4711000000239,1671.4711999999881,1673.2186000000238,1368,1673.218699999988,5,1673.2188999999762,6,14,194,10,1,0.8,0.3,Time
,,191755,001,M,23,2025-06-01_22h08.44.968,Serial_Dependence_U,2023.2.3,Win32,119.04761904759843,,,,,,1673.219399999976,225,6,1673.2196000000238,225,,,,1677.006100000024,1677.5091999999881,1676.505,1677.006,1674.24,1676.504800000012,1677.5091999999881,1678.016699999988,1678.016699999988,1679.740300000012,1513,1679.7403999999763,4,1679.740699999988,6,15,195,12,1,1.2,0.3,Time
,,191755,001,M,23,2025-06-01_22h08.44.968,Serial_Dependence_U,2023.2.3,Win32,119.04761904759843,,,,,,1679.7411000000238,82,6,1679.741199999988,82,,,,1683.110800000012,1683.6108999999763,1682.607899999976,1683.1106999999881,1680.7413999999762,1682.607800000012,1683.6108999999763,1684.1100000000001,1684.1100000000001,1685.830300000012,1534,1685.8303999999762,5,1685.8306000000239,6,16,196,0,1,0.8,0.3,Time
,,191755,001,M,23,2025-06-01_22h08.44.968,Serial_Dependence_U,2023.2.3,Win32,119.04761904759843,,,,,,1685.8306999999882,201,6,1685.8310000000001,201,,,,1689.182,1689.676199999988,1688.671800000012,1689.1818999999762,1686.837300000012,1688.671699999988,1689.676199999988,1690.1738000000119,1690.1738999999761,1691.666800000012,1113,1691.666800000012,5,1691.6668999999763,6,17,197,5,1,0.8,0.7,Time
,,191755,001,M,23,2025-06-01_22h08.44.968,Serial_Dependence_U,2023.2.3,Win32,119.04761904759843,,,,,,1691.6671000000238,116,6,1691.667300000012,116,,,,1695.6143999999763,1696.111699999988,1695.1096999999882,1695.6141999999882,1692.666199999988,1695.1096000000239,1696.111699999988,1696.6061999999881,1696.6061999999881,1698.3503000000119,1515,1698.3503999999762,4,1698.3506000000239,6,18,198,8,1,1.4,0.7,Time
,,191755,001,M,23,2025-06-01_22h08.44.968,Serial_Dependence_U,2023.2.3,Win32,119.04761904759843,,,,,,1698.351,64,6,1698.3513000000119,64,,,,1702.0908999999763,1702.5871000000238,1701.5896999999882,1702.0906000000239,1699.356300000012,1701.5896999999882,1702.5871000000238,1703.0838999999762,1703.084,1704.6136000000238,1240,1704.6136000000238,3,1704.613800000012,6,19,199,27,1,1.2,0.7,Time
,,191755,001,M,23,2025-06-01_22h08.44.968,Serial_Dependence_U,2023.2.3,Win32,119.04761904759843,,,,,,1704.6138999999762,85,6,1704.614,85,,,,1708.755199999988,1709.2565,1708.253300000012,1708.755100000024,1705.6176999999882,1708.253,1709.2565,1709.7545,1709.7545,1711.205300000012,1400,1711.205300000012,2,1711.2053999999762,6,20,200,19,1,1.6,0.7,Time
,,191755,001,M,23,2025-06-01_22h08.44.968,Serial_Dependence_U,2023.2.3,Win32,119.04761904759843,,,,,,1711.2055,20,6,1711.2056000000239,20,,,,1714.742300000012,1715.2391000000239,1714.237100000024,1714.742,1712.2065,1714.2368999999762,1715.2391999999882,1715.742600000024,1715.742600000024,1717.586600000024,1532,1717.586699999988,5,1717.587,6,21,201,6,1,1,0.7,Time
,,191755,001,M,23,2025-06-01_22h08.44.968,Serial_Dependence_U,2023.2.3,Win32,119.04761904759843,,,,,,1717.5873999999762,98,6,1717.587699999988,98,,,,1720.964300000012,1721.4565,1720.4605,1720.964199999988,1718.5965,1720.4601000000239,1721.4566000000239,1721.9521999999881,1721.952300000012,1724.0713999999762,1554,1724.0713999999762,5,1724.0715,6,22,202,20,1,0.8,0.3,Time
,,191755,001,M,23,2025-06-01_22h08.44.968,Serial_Dependence_U,2023.2.3,Win32,119.04761904759843,,,,,,1724.0716999999881,44,6,1724.071800000012,44,,,,1728.0203999999762,1728.5181000000239,1727.5121000000238,1728.0201000000238,1725.078800000012,1727.5116999999882,1728.5181999999882,1729.015699999988,1729.0158999999762,1730.810899999976,1435,1730.811,3,1730.8111000000238,6,23,203,18,1,1.4,0.7,Time
,,191755,001,M,23,2025-06-01_22h08.44.968,Serial_Dependence_U,2023.2.3,Win32,119.04761904759843,,,,,,1730.811300000012,94,6,1730.811300000012,94,,,,1734.585699999988,1735.0801000000238,1734.0785,1734.585300000012,1731.8155,1734.078199999988,1735.0801000000238,1735.578600000024,1735.578600000024,1737.868300000012,1679,1737.868300000012,5,1737.8685,6,24,204,22,1,1.2,0.3,Time
,,191755,001,M,23,2025-06-01_22h08.44.968,Serial_Dependence_U,2023.2.3,Win32,119.04761904759843,,,,,,1737.868600000024,117,6,1737.868800000012,117,,,,1742.0465,1742.540600000024,1741.5425,1742.046100000024,1738.876300000012,1741.5421000000238,1742.5406999999882,1743.042199999988,1743.042199999988,1745.221300000012,1661,1745.2213999999763,3,1745.221600000024,6,25,205,14,1,1.6,0.3,Time
,,191755,001,M,23,2025-06-01_22h08.44.968,Serial_Dependence_U,2023.2.3,Win32,119.04761904759843,,,,,,1745.222,324,6,1745.222199999988,324,,,,1749.4031000000239,1749.902300000012,1748.8981000000238,1749.403,1746.229800000012,1748.898,1749.902399999976,1750.399199999988,1750.3993000000119,1752.1598999999762,1466,1752.1598999999762,2,1752.160100000024,6,26,206,24,1,1.6,0.3,Time
,,191755,001,M,23,2025-06-01_22h08.44.968,Serial_Dependence_U,2023.2.3,Win32,119.04761904759843,,,,,,1752.1605,97,6,1752.160699999988,97,,,,1755.5063000000118,1756.0081999999882,1755.001300000012,1755.506100000024,1753.1665,1755.0011000000238,1756.0081999999882,1756.5123999999762,1756.5125,1758.907,1607,1758.907,5,1758.907300000012,6,27,207,15,1,0.8,0.7,Time
,,191755,001,M,23,2025-06-01_22h08.44.968,Serial_Dependence_U,2023.2.3,Win32,119.04761904759843,,,,,,1758.9076000000239,265,6,1758.9076999999882,265,,,,1763.0771999999881,1763.5723000000119,1762.5745,1763.077,1759.9048000000118,1762.574399999976,1763.5723999999761,1764.0696999999882,1764.0696999999882,1765.7608999999761,1313,1765.761,2,1765.761199999988,6,28,208,4,1,1.6,0.3,Time
,,191755,001,M,23,2025-06-01_22h08.44.968,Serial_Dependence_U,2023.2.3,Win32,119.04761904759843,,,,,,1765.761300000012,204,6,1765.7615,204,,,,1769.3265000000001,1769.8220000000001,1768.8233999999761,1769.326300000012,1766.761199999988,1768.823199999988,1769.8220000000001,1770.321300000012,1770.321300000012,1772.196800000012,1593,1772.196800000012,5,1772.1970000000001,6,29,209,1,1,1,0.3,Time
,,191755,001,M,23,2025-06-01_22h08.44.968,Serial_Dependence_U,2023.2.3,Win32,119.04761904759843,,,,,,1772.197199999988,140,7,1774.3065,140,s,2.1000999999641863,,1777.8731999999882,1778.367300000012,1777.370800000012,1777.873,1775.3056000000238,1777.3706999999881,1778.367300000012,1778.861800000012,1778.861800000012,1780.8265000000001,1590,1780.8265000000001,5,1780.8268000000119,7,0,210,1,1,1,0.3,Time
,,191755,001,M,23,2025-06-01_22h08.44.968,Serial_Dependence_U,2023.2.3,Win32,119.04761904759843,,,,,,1780.8271000000238,323,7,1780.828899999976,323,,,,1784.401,1784.9053999999762,1783.891699999988,1784.400699999988,1781.8263999999763,1783.891399999976,1784.9055,1785.404300000012,1785.4043999999762,1787.5325,1566,1787.5325,5,1787.5326000000239,7,1,211,21,1,1,0.3,Time
,,191755,001,M,23,2025-06-01_22h08.44.968,Serial_Dependence_U,2023.2.3,Win32,119.04761904759843,,,,,,1787.532800000012,103,7,1787.5328999999763,103,,,,1791.700399999976,1792.199399999976,1791.1945,1791.7,1788.5288000000119,1791.194300000012,1792.199399999976,1792.7023999999763,1792.7025,1794.6381000000238,1660,1794.638199999988,3,1794.6383999999762,7,2,212,4,1,1.6,0.3,Time
,,191755,001,M,23,2025-06-01_22h08.44.968,Serial_Dependence_U,2023.2.3,Win32,119.04761904759843,,,,,,1794.6386000000239,81,7,1794.6386999999881,81,,,,1798.819600000024,1799.3226000000238,1798.311,1798.8193999999762,1795.6426000000238,1798.310600000024,1799.3226999999881,1799.818899999976,1799.819,1801.958100000024,1738,1801.958100000024,4,1801.9583000000118,7,3,213,14,1,1.6,0.3,Time
,,191755,001,M,23,2025-06-01_22h08.44.968,Serial_Dependence_U,2023.2.3,Win32,119.04761904759843,,,,,,1801.9585,254,7,1801.9586000000238,254,,,,1805.7111999999881,1806.207100000024,1805.203800000012,1805.7108999999762,1802.9686000000238,1805.2036999999882,1806.207199999988,1806.7013999999763,1806.7015000000001,1808.486100000024,1447,1808.486100000024,4,1808.4863000000119,7,4,214,17,1,1.2,0.7,Time
,,191755,001,M,23,2025-06-01_22h08.44.968,Serial_Dependence_U,2023.2.3,Win32,119.04761904759843,,,,,,1808.4866000000238,59,7,1808.486800000012,59,,,,1811.839600000024,1812.339600000024,1811.3326000000238,1811.839199999988,1809.4898000000119,1811.3323999999761,1812.339600000024,1812.8373999999762,1812.8373999999762,1814.7621000000238,1567,1814.7621000000238,5,1814.762300000012,7,5,215,25,1,0.8,0.7,Time
,,191755,001,M,23,2025-06-01_22h08.44.968,Serial_Dependence_U,2023.2.3,Win32,119.04761904759843,,,,,,1814.7625,117,7,1814.7626999999882,117,,,,1818.534199999988,1819.0336999999881,1818.0288000000119,1818.534,1815.7681999999882,1818.028699999988,1819.0336999999881,1819.530899999976,1819.530899999976,1821.616300000012,1735,1821.6163999999762,5,1821.616600000024,7,6,216,22,1,1.2,0.3,Time
,,191755,001,M,23,2025-06-01_22h08.44.968,Serial_Dependence_U,2023.2.3,Win32,119.04761904759843,,,,,,1821.6171000000238,58,7,1821.617300000012,58,,,,1825.758699999988,1826.2535,1825.2508999999761,1825.7585,1822.6173999999762,1825.2508000000118,1826.2536000000239,1826.7540000000001,1826.7540000000001,1828.7926000000239,1801,1828.7926000000239,4,1828.792800000012,7,7,217,19,1,1.6,0.7,Time
,,191755,001,M,23,2025-06-01_22h08.44.968,Serial_Dependence_U,2023.2.3,Win32,119.04761904759843,,,,,,1828.7930000000001,77,7,1828.793199999988,77,,,,1832.1698999999762,1832.671800000012,1831.665300000012,1832.169800000012,1829.799300000012,1831.6648999999761,1832.6718999999762,1833.168100000024,1833.168199999988,1835.103399999976,1607,1835.1035,5,1835.1036000000238,7,8,218,20,1,0.8,0.3,Time
,,191755,001,M,23,2025-06-01_22h08.44.968,Serial_Dependence_U,2023.2.3,Win32,119.04761904759843,,,,,,1835.103699999988,292,7,1835.103800000012,292,,,,1838.461699999988,1838.955800000012,1837.9535,1838.4615000000001,1836.1116000000238,1837.9535,1838.9558999999763,1839.4511999999881,1839.4513999999763,1841.685,1901,1841.685,5,1841.685,7,9,219,5,1,0.8,0.7,Time
,,191755,001,M,23,2025-06-01_22h08.44.968,Serial_Dependence_U,2023.2.3,Win32,119.04761904759843,,,,,,1841.685199999988,161,7,1841.6853999999762,161,,,,1845.4573000000119,1845.957100000024,1844.955,1845.457,1842.6925,1844.9543999999762,1845.957100000024,1846.4563999999762,1846.4563999999762,1848.6551000000238,1801,1848.6551000000238,5,1848.655199999988,7,10,220,12,1,1.2,0.3,Time
,,191755,001,M,23,2025-06-01_22h08.44.968,Serial_Dependence_U,2023.2.3,Win32,119.04761904759843,,,,,,1848.6553999999762,51,7,1848.6553999999762,51,,,,1852.208,1852.698800000012,1851.7008999999762,1852.207699999988,1849.6671000000238,1851.7005,1852.6988999999762,1853.1943999999762,1853.1945,1855.5511000000238,1813,1855.551199999988,5,1855.5513999999762,7,11,221,16,1,1,0.7,Time
,,191755,001,M,23,2025-06-01_22h08.44.968,Serial_Dependence_U,2023.2.3,Win32,119.04761904759843,,,,,,1855.5516000000239,194,7,1855.5516999999882,194,,,,1859.520600000024,1860.024199999988,1859.019,1859.520300000012,1856.5501000000238,1859.0188999999762,1860.024199999988,1860.522800000012,1860.5228999999763,1862.5638999999762,1676,1862.5638999999762,4,1862.564,7,12,222,13,1,1.4,0.3,Time
,,191755,001,M,23,2025-06-01_22h08.44.968,Serial_Dependence_U,2023.2.3,Win32,119.04761904759843,,,,,,1862.564399999976,80,7,1862.5645,80,,,,1866.532300000012,1867.032300000012,1866.030300000012,1866.532199999988,1863.5668999999762,1866.0298999999761,1867.032300000012,1867.5338999999763,1867.534,1869.745199999988,1896,1869.7453000000119,5,1869.7456000000238,7,13,223,3,1,1.4,0.3,Time
,,191755,001,M,23,2025-06-01_22h08.44.968,Serial_Dependence_U,2023.2.3,Win32,119.04761904759843,,,,,,1869.745800000012,120,7,1869.7458999999762,120,,,,1873.698199999988,1874.201600000024,1873.1856999999882,1873.698100000024,1870.75,1873.185600000024,1874.201600000024,1874.6975,1874.6975,1877.332,2053,1877.332100000024,5,1877.3323999999761,7,14,224,28,1,1.4,0.7,Time
,,191755,001,M,23,2025-06-01_22h08.44.968,Serial_Dependence_U,2023.2.3,Win32,119.04761904759843,,,,,,1877.332800000012,78,7,1877.3328999999762,78,,,,1881.5043999999762,1882.001199999988,1880.9998999999762,1881.504199999988,1878.3348999999762,1880.9998000000119,1882.001199999988,1882.495100000024,1882.495100000024,1884.7745,1949,1884.7746000000238,4,1884.775,7,15,225,24,1,1.6,0.3,Time
,,191755,001,M,23,2025-06-01_22h08.44.968,Serial_Dependence_U,2023.2.3,Win32,119.04761904759843,,,,,,1884.7753999999761,247,7,1884.775699999988,247,,,,1888.3175,1888.8181000000238,1887.8111000000238,1888.3175,1885.7726999999882,1887.810899999976,1888.818199999988,1889.3141999999882,1889.314300000012,1891.7253000000119,1767,1891.7253999999762,5,1891.7255,7,16,226,26,1,1,0.7,Time
,,191755,001,M,23,2025-06-01_22h08.44.968,Serial_Dependence_U,2023.2.3,Win32,119.04761904759843,,,,,,1891.7256999999881,51,7,1891.7256999999881,51,,,,1895.503800000012,1896.001,1894.9950000000001,1895.5035,1892.7263000000119,1894.9948999999763,1896.001,1896.497100000024,1896.497100000024,1897.9681999999882,1226,1897.968300000012,3,1897.968399999976,7,17,227,2,1,1.2,0.3,Time
,,191755,001,M,23,2025-06-01_22h08.44.968,Serial_Dependence_U,2023.2.3,Win32,119.04761904759843,,,,,,1897.9686000000238,247,7,1897.968699999988,247,,,,1901.315699999988,1901.8133000000118,1900.803699999988,1901.3156000000238,1898.9695,1900.8033999999761,1901.8133999999761,1902.314100000024,1902.314100000024,1904.020300000012,1476,1904.020300000012,5,1904.0205,7,18,228,15,1,0.8,0.7,Time
,,191755,001,M,23,2025-06-01_22h08.44.968,Serial_Dependence_U,2023.2.3,Win32,119.04761904759843,,,,,,1904.0208000000118,89,7,1904.021,89,,,,1908.1735,1908.6735,1907.6648999999761,1908.1731999999881,1905.027,1907.6645,1908.673699999988,1909.174600000024,1909.174800000012,1911.2781000000239,1743,1911.2781000000239,4,1911.278300000012,7,19,229,9,1,1.6,0.7,Time
,,191755,001,M,23,2025-06-01_22h08.44.968,Serial_Dependence_U,2023.2.3,Win32,119.04761904759843,,,,,,1911.2785000000001,56,7,1911.278699999988,56,,,,1915.219699999988,1915.715,1914.7163999999761,1915.2196000000238,1912.285800000012,1914.7163000000119,1915.7151000000238,1916.217199999988,1916.2173000000118,1918.4033999999763,1900,1918.4033999999763,5,1918.403600000024,7,20,230,8,1,1.4,0.7,Time
,,191755,001,M,23,2025-06-01_22h08.44.968,Serial_Dependence_U,2023.2.3,Win32,119.04761904759843,,,,,,1918.4038000000119,29,7,1918.404,29,,,,1921.976,1922.4803999999763,1921.4711000000239,1921.9758999999763,1919.4076999999882,1921.470699999988,1922.4805000000001,1922.9786000000238,1922.978699999988,1924.6925,1325,1924.692600000024,5,1924.6928000000119,7,21,231,11,1,1,0.3,Time
,,191755,001,M,23,2025-06-01_22h08.44.968,Serial_Dependence_U,2023.2.3,Win32,119.04761904759843,,,,,,1924.6931000000238,132,7,1924.693300000012,132,,,,1928.661100000024,1929.155199999988,1928.1596000000238,1928.661,1925.696199999988,1928.159199999988,1929.155199999988,1929.6531999999881,1929.653300000012,1931.695,1513,1931.695,4,1931.695199999988,7,22,232,23,1,1.4,0.3,Time
,,191755,001,M,23,2025-06-01_22h08.44.968,Serial_Dependence_U,2023.2.3,Win32,119.04761904759843,,,,,,1931.6953999999762,206,7,1931.695600000024,206,,,,1935.4536999999882,1935.9518000000119,1934.9445,1935.4535,1932.703199999988,1934.9443999999762,1935.9518000000119,1936.4555,1936.4556000000239,1938.670800000012,1640,1938.670800000012,5,1938.671,7,23,233,27,1,1.2,0.7,Time
,,191755,001,M,23,2025-06-01_22h08.44.968,Serial_Dependence_U,2023.2.3,Win32,119.04761904759843,,,,,,1938.671,166,7,1938.671100000024,166,,,,1942.815300000012,1943.316699999988,1942.307,1942.815100000024,1939.6718999999762,1942.3066000000238,1943.316699999988,1943.8206999999882,1943.8206999999882,1946.0551999999882,1728,1946.055300000012,4,1946.0555,7,24,234,29,1,1.6,0.7,Time
,,191755,001,M,23,2025-06-01_22h08.44.968,Serial_Dependence_U,2023.2.3,Win32,119.04761904759843,,,,,,1946.055800000012,4,7,1946.0558999999762,4,,,,1950.001,1950.498699999988,1949.4975,1950.000699999988,1947.063800000012,1949.4971999999882,1950.498699999988,1950.9943999999762,1950.9945,1953.3635,2034,1953.363699999988,5,1953.3638999999762,7,25,235,18,1,1.4,0.7,Time
,,191755,001,M,23,2025-06-01_22h08.44.968,Serial_Dependence_U,2023.2.3,Win32,119.04761904759843,,,,,,1953.364300000012,180,7,1953.3645000000001,180,,,,1957.096,1957.593800000012,1956.595600000024,1957.0958999999762,1954.364,1956.5953999999763,1957.593800000012,1958.096600000024,1958.096600000024,1959.5038999999763,1248,1959.5041000000238,3,1959.504199999988,7,26,236,7,1,1.2,0.7,Time
,,191755,001,M,23,2025-06-01_22h08.44.968,Serial_Dependence_U,2023.2.3,Win32,119.04761904759843,,,,,,1959.5045,314,7,1959.5046999999881,314,,,,1962.891300000012,1963.391399999976,1962.382399999976,1962.891,1960.518699999988,1962.3821999999882,1963.391399999976,1963.8851999999881,1963.885300000012,1965.328199999988,1291,1965.328300000012,5,1965.328600000024,7,27,237,10,1,0.8,0.3,Time
,,191755,001,M,23,2025-06-01_22h08.44.968,Serial_Dependence_U,2023.2.3,Win32,119.04761904759843,,,,,,1965.329,280,7,1965.329199999988,280,,,,1968.7075,1969.2066999999881,1968.204,1968.7073000000119,1966.339,1968.2036999999882,1969.2066999999881,1969.703,1969.703,1971.3335,1452,1971.3336000000238,5,1971.3338999999762,7,28,238,0,1,0.8,0.3,Time
,,191755,001,M,23,2025-06-01_22h08.44.968,Serial_Dependence_U,2023.2.3,Win32,119.04761904759843,,,,,,1971.334300000012,79,7,1971.3345,79,,,,1974.8653999999763,1975.3658999999761,1974.363399999976,1974.8651999999881,1972.3305,1974.363300000012,1975.366,1975.8651999999881,1975.8651999999881,1977.4643999999762,1375,1977.4643999999762,5,1977.464600000024,7,29,239,6,1,1,0.7,Time
,,191755,001,M,23,2025-06-01_22h08.44.968,Serial_Dependence_U,2023.2.3,Win32,119.04761904759843,,,,,,1977.4646999999882,347,8,1979.7083000000118,347,s,2.2360000000001037,,1983.4955,1983.9908000000119,1982.987300000012,1983.495199999988,1980.7211000000239,1982.987100000024,1983.9908000000119,1984.491199999988,1984.491199999988,1986.5923999999761,1566,1986.5923999999761,5,1986.5926000000238,8,0,240,12,1,1.2,0.3,Time
,,191755,001,M,23,2025-06-01_22h08.44.968,Serial_Dependence_U,2023.2.3,Win32,119.04761904759843,,,,,,1986.592699999988,187,8,1986.5938999999762,187,,,,1990.5505,1991.0485,1990.047600000024,1990.550300000012,1987.6081000000238,1990.047300000012,1991.048600000024,1991.545399999976,1991.5455,1993.2968999999762,1520,1993.297,4,1993.2971000000239,8,1,241,28,1,1.4,0.7,Time
,,191755,001,M,23,2025-06-01_22h08.44.968,Serial_Dependence_U,2023.2.3,Win32,119.04761904759843,,,,,,1993.2971999999882,86,8,1993.2973999999763,86,,,,1997.044699999988,1997.5438999999762,1996.5375000000001,1997.0443000000118,1994.305100000024,1996.5371000000239,1997.5438999999762,1998.0493999999762,1998.0493999999762,1999.6861000000238,1445,1999.6861000000238,4,1999.6861000000238,8,2,242,7,1,1.2,0.7,Time
,,191755,001,M,23,2025-06-01_22h08.44.968,Serial_Dependence_U,2023.2.3,Win32,119.04761904759843,,,,,,1999.6863999999762,41,8,1999.6863999999762,41,,,,2003.0351999999882,2003.5335,2002.529699999988,2003.0348999999762,2000.691,2002.5295,2003.5336000000239,2004.038,2004.038,2005.490600000024,1342,2005.490600000024,5,2005.490800000012,8,3,243,5,1,0.8,0.7,Time
,,191755,001,M,23,2025-06-01_22h08.44.968,Serial_Dependence_U,2023.2.3,Win32,119.04761904759843,,,,,,2005.4908999999764,71,8,2005.4910000000002,71,,,,2009.6648999999766,2010.1611999999882,2009.161300000012,2009.6646999999884,2006.4971999999884,2009.1608000000124,2010.1611999999882,2010.6663999999764,2010.6665000000003,2012.1435000000001,1130,2012.143600000024,2,2012.143800000012,8,4,244,4,1,1.6,0.3,Time
,,191755,001,M,23,2025-06-01_22h08.44.968,Serial_Dependence_U,2023.2.3,Win32,119.04761904759843,,,,,,2012.1438999999764,85,8,2012.1440000000002,85,,,,2016.2813999999762,2016.7821999999883,2015.7768999999762,2016.2813000000124,2013.1425000000004,2015.7768000000124,2016.7823000000121,2017.2823000000121,2017.2823999999764,2019.123300000012,1500,2019.123300000012,2,2019.123600000024,8,5,245,19,1,1.6,0.7,Time
,,191755,001,M,23,2025-06-01_22h08.44.968,Serial_Dependence_U,2023.2.3,Win32,119.04761904759843,,,,,,2019.1240000000003,161,8,2019.124100000024,161,,,,2022.6978000000122,2023.204100000024,2022.1961000000242,2022.697600000024,2020.130100000024,2022.1958999999765,2023.2041999999883,2023.7068999999765,2023.7070000000003,2025.3808999999765,1368,2025.3808999999765,5,2025.3811000000242,8,6,246,11,1,1,0.3,Time
,,191755,001,M,23,2025-06-01_22h08.44.968,Serial_Dependence_U,2023.2.3,Win32,119.04761904759843,,,,,,2025.3816000000243,233,8,2025.3818000000124,233,,,,2029.1461999999883,2029.645300000012,2028.645199999988,2029.1458999999763,2026.3840000000005,2028.6450000000004,2029.6453999999762,2030.141100000024,2030.1411999999882,2032.4041999999881,1804,2032.404300000012,5,2032.4045,8,7,247,2,1,1.2,0.3,Time
,,191755,001,M,23,2025-06-01_22h08.44.968,Serial_Dependence_U,2023.2.3,Win32,119.04761904759843,,,,,,2032.404800000012,340,8,2032.4048999999764,340,,,,2036.373,2036.8756999999882,2035.869100000024,2036.3726999999885,2033.4078999999765,2035.8690000000001,2036.875800000012,2037.3761999999883,2037.3761999999883,2039.4153000000124,1871,2039.4153000000124,5,2039.4153999999762,8,8,248,3,1,1.4,0.3,Time
,,191755,001,M,23,2025-06-01_22h08.44.968,Serial_Dependence_U,2023.2.3,Win32,119.04761904759843,,,,,,2039.4155,112,8,2039.4155,112,,,,2043.5925000000002,2044.0953999999765,2043.0816999999884,2043.5925000000002,2040.4153000000124,2043.081300000012,2044.0953999999765,2044.588100000024,2044.5881999999883,2046.3575,1481,2046.3575,2,2046.357800000012,8,9,249,24,1,1.6,0.3,Time
,,191755,001,M,23,2025-06-01_22h08.44.968,Serial_Dependence_U,2023.2.3,Win32,119.04761904759843,,,,,,2046.358100000024,255,8,2046.3581999999883,255,,,,2050.505300000012,2051.005800000012,2049.996300000012,2050.505,2047.3648999999764,2049.996199999988,2051.005800000012,2051.5073999999763,2051.5073999999763,2053.3998999999762,1635,2053.3998999999762,3,2053.4,8,10,250,9,1,1.6,0.7,Time
,,191755,001,M,23,2025-06-01_22h08.44.968,Serial_Dependence_U,2023.2.3,Win32,119.04761904759843,,,,,,2053.400300000012,267,8,2053.4005,267,,,,2057.3680000000004,2057.870800000012,2056.865300000012,2057.3678999999765,2054.4040000000005,2056.8650000000002,2057.8708999999762,2058.3756999999882,2058.3756999999882,2060.3948000000123,1424,2060.3948999999766,3,2060.3951000000243,8,11,251,23,1,1.4,0.3,Time
,,191755,001,M,23,2025-06-01_22h08.44.968,Serial_Dependence_U,2023.2.3,Win32,119.04761904759843,,,,,,2060.395300000012,95,8,2060.3955,95,,,,2063.929300000012,2064.4288999999762,2063.4260000000004,2063.9288999999762,2061.394300000012,2063.425600000024,2064.429,2064.9236999999885,2064.9238000000123,2067.213600000024,1554,2067.2136999999884,5,2067.2138999999765,8,12,252,6,1,1,0.7,Time
,,191755,001,M,23,2025-06-01_22h08.44.968,Serial_Dependence_U,2023.2.3,Win32,119.04761904759843,,,,,,2067.2143000000124,169,8,2067.2145,169,,,,2070.7886999999882,2071.2808000000123,2070.2805000000003,2070.7886999999882,2068.217199999988,2070.2803999999765,2071.2808000000123,2071.784300000012,2071.7843999999764,2074.5453999999763,1641,2074.5453999999763,5,2074.545600000024,8,13,253,21,1,1,0.3,Time
,,191755,001,M,23,2025-06-01_22h08.44.968,Serial_Dependence_U,2023.2.3,Win32,119.04761904759843,,,,,,2074.545800000012,177,8,2074.5458999999764,177,,,,2077.9218999999766,2078.4170000000004,2077.416100000024,2077.9216999999885,2075.547100000024,2077.416,2078.4170000000004,2078.915800000012,2078.915800000012,2080.3773000000124,1219,2080.3773000000124,5,2080.377399999976,8,14,254,20,1,0.8,0.3,Time
,,191755,001,M,23,2025-06-01_22h08.44.968,Serial_Dependence_U,2023.2.3,Win32,119.04761904759843,,,,,,2080.377600000024,174,8,2080.377600000024,174,,,,2084.3296999999884,2084.834100000024,2083.8233000000123,2084.3295000000003,2081.3883000000124,2083.8230000000003,2084.834100000024,2085.329100000024,2085.329100000024,2086.9443000000124,1278,2086.9443000000124,2,2086.944399999976,8,15,255,8,1,1.4,0.7,Time
,,191755,001,M,23,2025-06-01_22h08.44.968,Serial_Dependence_U,2023.2.3,Win32,119.04761904759843,,,,,,2086.944800000012,171,8,2086.945,171,,,,2090.2851999999884,2090.790399999976,2089.7781999999884,2090.284800000012,2087.9468999999763,2089.778100000024,2090.7905,2091.287100000024,2091.287100000024,2093.0073999999763,1486,2093.0073999999763,5,2093.0075,8,16,256,15,1,0.8,0.7,Time
,,191755,001,M,23,2025-06-01_22h08.44.968,Serial_Dependence_U,2023.2.3,Win32,119.04761904759843,,,,,,2093.007600000024,156,8,2093.0078999999764,156,,,,2096.7488999999764,2097.249600000024,2096.2455000000004,2096.748800000012,2094.0130000000004,2096.2453999999766,2097.2496999999885,2097.7495000000004,2097.749600000024,2099.2741999999885,1379,2099.2741999999885,4,2099.2743999999766,8,17,257,17,1,1.2,0.7,Time
