Scale_setup.started,Scale_setup.stopped,participant,session,sex,age,date,expName,psychopyVersion,OS,frameRate,Intro.started,Intro.stopped,key_resp_2.keys,key_resp_2.rt,key_resp_2.duration,block.started,direction,Block_id,block.stopped,trial_direction,Block_resp_2.keys,Block_resp_2.rt,Block_resp_2.duration,ITI.started,ITI.stopped,Mask_2.started,Mask_2.stopped,encoding.started,encoding.stopped,Cue.started,Cue.stopped,Response.started,Response.stopped,keyDuration,Feedback_Time.started,FeedbackID_T,Feedback_Time.stopped,trials.thisRepN,trials.thisTrialN,trials.thisN,trials.thisIndex,trials.ran,TimeDur,Coherence1,TrialType
0.00009999996422038748,0.0003999999761390427,820531,001,男,20,2025-06-04_17h46.37.523,Serial_Dependence_U,2023.2.3,Win32,142.85714285714286,,,,,,,,,,,,,,,,,,,,,,,,,,,,,,,,,,,
,,820531,001,男,20,2025-06-04_17h46.37.523,Serial_Dependence_U,2023.2.3,Win32,142.85714285714286,50.76479999995232,54.611699999988076,space,3.825800000011924,,,,,,,,,,,,,,,,,,,,,,,,,,,,,,,
,,820531,001,男,20,2025-06-04_17h46.37.523,Serial_Dependence_U,2023.2.3,Win32,142.85714285714286,,,,,,54.61529999995233,329,0,58.36839999997616,329,s,3.735600000023851,,61.93359999996423,62.43069999998809,61.432199999988086,61.93350000000001,59.37119999998808,61.43209999996424,62.43089999997616,62.93069999998809,62.93079999995231,64.13499999999999,562,64.13519999998809,1,65.13219999998807,0,0,0,11,1,1,0.3,Time
,,820531,001,男,20,2025-06-04_17h46.37.523,Serial_Dependence_U,2023.2.3,Win32,142.85714285714286,,,,,,65.13259999996424,8,0,65.13379999995232,8,,,,69.27789999997617,69.77309999996424,68.77359999996423,69.27789999997617,66.13909999996423,68.77359999996423,69.77309999996424,70.27079999995232,70.27079999995232,72.13459999996425,1272,72.13459999996425,2,73.1317999999523,0,1,1,9,1,1.6,0.7,Time
,,820531,001,男,20,2025-06-04_17h46.37.523,Serial_Dependence_U,2023.2.3,Win32,142.85714285714286,,,,,,73.13209999996423,136,0,73.13209999996423,136,,,,76.4827999999523,76.97889999997616,75.97229999995233,76.4827999999523,74.13889999997616,75.97219999998808,76.97889999997616,77.47889999997616,77.47889999997616,78.77250000000001,882,78.77250000000001,4,79.7705,0,2,2,25,1,0.8,0.7,Time
,,820531,001,男,20,2025-06-04_17h46.37.523,Serial_Dependence_U,2023.2.3,Win32,142.85714285714286,,,,,,79.77069999998807,313,0,79.77079999995232,313,,,,83.90950000000001,84.40929999995231,83.40519999998807,83.90939999997616,80.77339999997616,83.40509999996425,84.40929999995231,84.90919999998809,84.90919999998809,86.59879999995232,1304,86.59879999995232,2,87.59669999998809,0,3,3,29,1,1.6,0.7,Time
,,820531,001,男,20,2025-06-04_17h46.37.523,Serial_Dependence_U,2023.2.3,Win32,142.85714285714286,,,,,,87.59700000000001,6,0,87.59709999996423,6,,,,90.97189999997616,91.47159999996424,90.46739999997615,90.97179999995231,88.60379999995232,90.46729999995233,91.47169999998809,91.97159999996424,91.97159999996424,92.77719999998808,535,92.77719999998808,1,93.77709999996424,0,4,4,0,1,0.8,0.3,Time
,,820531,001,男,20,2025-06-04_17h46.37.523,Serial_Dependence_U,2023.2.3,Win32,142.85714285714286,,,,,,93.7772999999523,28,0,93.77739999997615,28,,,,97.95539999997615,98.45059999996423,97.44669999998808,97.95539999997615,94.77909999996425,97.44669999998808,98.45059999996423,98.95079999995232,98.95079999995232,100.16869999998809,911,100.16879999995231,1,101.16579999995233,0,5,5,4,1,1.6,0.3,Time
,,820531,001,男,20,2025-06-04_17h46.37.523,Serial_Dependence_U,2023.2.3,Win32,142.85714285714286,,,,,,101.16609999996425,32,0,101.16609999996425,32,,,,104.91589999997615,105.41569999998808,104.40899999999999,104.91589999997615,102.17289999997615,104.40889999997617,105.41569999998808,105.91569999998808,105.91569999998808,107.49209999996424,1011,107.49209999996424,2,108.49189999997617,0,6,6,27,1,1.2,0.7,Time
,,820531,001,男,20,2025-06-04_17h46.37.523,Serial_Dependence_U,2023.2.3,Win32,142.85714285714286,,,,,,108.49229999995231,127,0,108.49239999997616,127,,,,111.83939999997617,112.33909999996425,111.33250000000001,111.83919999998807,109.49909999996424,111.33229999995231,112.33919999998807,112.83909999996425,112.83909999996425,114.43639999997615,1088,114.4365,5,115.43199999999999,0,7,7,5,1,0.8,0.7,Time
,,820531,001,男,20,2025-06-04_17h46.37.523,Serial_Dependence_U,2023.2.3,Win32,142.85714285714286,,,,,,115.43219999998809,314,0,115.43239999997616,314,,,,119.20369999998809,119.7027999999523,118.69619999998807,119.20369999998809,116.43209999996424,118.69619999998807,119.7027999999523,120.20329999995232,120.20329999995232,121.19629999995232,563,121.19639999997617,1,122.19309999996423,0,8,8,2,1,1.2,0.3,Time
,,820531,001,男,20,2025-06-04_17h46.37.523,Serial_Dependence_U,2023.2.3,Win32,142.85714285714286,,,,,,122.19329999995233,309,0,122.19339999997615,309,,,,126.13759999996424,126.63739999997617,125.63239999997617,126.13759999996424,123.20009999996424,125.63229999995232,126.63739999997617,127.13729999995232,127.13739999997617,128.58879999995233,1090,128.58879999995233,2,129.58879999995233,0,9,9,8,1,1.4,0.7,Time
,,820531,001,男,20,2025-06-04_17h46.37.523,Serial_Dependence_U,2023.2.3,Win32,142.85714285714286,,,,,,129.589,6,0,129.58909999996425,6,,,,133.3622999999523,133.85939999997618,132.8585,133.3621999999881,130.59589999997615,132.8585,133.85939999997618,134.35939999997618,134.35939999997618,136.02619999998808,1016,136.02619999998808,2,137.026,0,10,10,12,1,1.2,0.3,Time
,,820531,001,男,20,2025-06-04_17h46.37.523,Serial_Dependence_U,2023.2.3,Win32,142.85714285714286,,,,,,137.02619999998808,45,0,137.0262999999523,45,,,,140.99829999995234,141.4980999999642,140.49579999995234,140.99829999995234,138.02789999997617,140.49579999995234,141.4980999999642,141.9980999999642,141.9980999999642,143.18569999998806,889,143.18569999998806,1,144.1855,0,11,11,3,1,1.4,0.3,Time
,,820531,001,男,20,2025-06-04_17h46.37.523,Serial_Dependence_U,2023.2.3,Win32,142.85714285714286,,,,,,144.18569999998806,218,0,144.1858999999762,218,,,,148.12609999996425,148.62289999997614,147.62489999997615,148.12609999996425,145.19259999996422,147.6247999999523,148.623,149.123,149.123,150.6367999999523,1201,150.63689999997615,2,151.6367999999523,0,12,12,28,1,1.4,0.7,Time
,,820531,001,男,20,2025-06-04_17h46.37.523,Serial_Dependence_U,2023.2.3,Win32,142.85714285714286,,,,,,151.63709999996422,179,0,151.63719999998807,179,,,,155.61599999999999,156.11569999998807,155.10909999996426,155.61599999999999,152.64389999997616,155.10899999999998,156.11579999995234,156.61579999995234,156.61579999995234,158.3727999999523,1216,158.3727999999523,2,159.37269999998807,0,13,13,23,1,1.4,0.3,Time
,,820531,001,男,20,2025-06-04_17h46.37.523,Serial_Dependence_U,2023.2.3,Win32,142.85714285714286,,,,,,159.37289999997614,228,0,159.37289999997614,228,,,,162.74789999997614,163.2475,162.24089999997614,162.7477999999523,160.38,162.24089999997614,163.2475,163.7475,163.7475,165.06009999996422,861,165.06019999998807,4,166.06009999996422,0,14,14,10,1,0.8,0.3,Time
,,820531,001,男,20,2025-06-04_17h46.37.523,Serial_Dependence_U,2023.2.3,Win32,142.85714285714286,,,,,,166.0602999999523,263,0,166.06039999997614,263,,,,170.23369999998806,170.7335,169.72679999995233,170.23369999998806,167.06019999998807,169.72669999998806,170.7335999999642,171.23339999997614,171.23339999997614,174.92789999997615,1119,174.92789999997615,1,175.9277999999523,0,15,15,24,1,1.6,0.3,Time
,,820531,001,男,20,2025-06-04_17h46.37.523,Serial_Dependence_U,2023.2.3,Win32,142.85714285714286,,,,,,175.928,207,0,175.92809999996422,207,,,,179.47659999996426,179.9762999999523,178.96949999999998,179.47659999996426,176.93489999997615,178.96949999999998,179.97639999997614,180.47639999997614,180.47639999997614,182.00259999996422,1224,182.00269999998807,4,183.00409999996424,0,16,16,6,1,1,0.7,Time
,,820531,001,男,20,2025-06-04_17h46.37.523,Serial_Dependence_U,2023.2.3,Win32,142.85714285714286,,,,,,183.00439999997616,141,0,183.00439999997616,141,,,,187.15699999999998,187.65669999998806,186.64989999997618,187.15689999997613,184.01269999998806,186.64979999995234,187.65679999995234,188.15659999996421,188.15659999996421,189.74699999999999,1088,189.7470999999642,1,190.74689999997614,0,17,17,19,1,1.6,0.7,Time
,,820531,001,男,20,2025-06-04_17h46.37.523,Serial_Dependence_U,2023.2.3,Win32,142.85714285714286,,,,,,190.74729999995228,295,0,190.74729999995228,295,,,,194.4917999999523,194.98979999995228,193.98599999999996,194.4917999999523,191.74869999998808,193.98599999999996,194.98979999995228,195.48979999995228,195.48979999995228,197.55239999997613,1052,197.55239999997613,2,198.55229999995228,0,18,18,7,1,1.2,0.7,Time
,,820531,001,男,20,2025-06-04_17h46.37.523,Serial_Dependence_U,2023.2.3,Win32,142.85714285714286,,,,,,198.55249999999998,204,0,198.5525999999642,204,,,,202.10089999997612,202.60069999998805,201.5940999999642,202.10089999997612,199.5592999999523,201.59399999999997,202.60069999998805,203.09649999999996,203.09649999999996,205.33959999996424,2004,205.33969999998803,5,206.33679999995226,0,19,19,16,1,1,0.7,Time
,,820531,001,男,20,2025-06-04_17h46.37.523,Serial_Dependence_U,2023.2.3,Win32,142.85714285714286,,,,,,206.33709999996424,223,0,206.33709999996424,223,,,,209.908,210.4060999999642,209.40179999995232,209.908,207.33869999998805,209.40169999998804,210.4060999999642,210.90599999999998,210.90599999999998,212.58669999998804,1029,212.58669999998804,3,213.5865999999642,0,20,20,1,1,1,0.3,Time
,,820531,001,男,20,2025-06-04_17h46.37.523,Serial_Dependence_U,2023.2.3,Win32,142.85714285714286,,,,,,213.58669999998804,71,0,213.58679999995226,71,,,,217.5310999999642,218.03099999999998,217.02419999998804,217.53099999999998,214.59379999995227,217.0240999999642,218.03099999999998,218.53079999995228,218.53079999995228,219.99619999998808,1110,219.99619999998808,2,220.99609999996423,0,21,21,18,1,1.4,0.7,Time
,,820531,001,男,20,2025-06-04_17h46.37.523,Serial_Dependence_U,2023.2.3,Win32,142.85714285714286,,,,,,220.9962999999523,185,0,220.9962999999523,185,,,,224.97539999997613,225.47519999998806,224.4685999999642,224.97529999995228,222.00319999998803,224.46839999997613,225.47519999998806,225.97519999998806,225.97519999998806,227.32939999997612,988,227.32939999997612,2,228.32929999995227,0,22,22,13,1,1.4,0.3,Time
,,820531,001,男,20,2025-06-04_17h46.37.523,Serial_Dependence_U,2023.2.3,Win32,142.85714285714286,,,,,,228.32949999999997,125,0,228.3295999999642,125,,,,232.50979999995226,233.00969999998804,232.0028999999761,232.50979999995226,229.33639999997612,232.00279999995232,233.00969999998804,233.5095999999642,233.5095999999642,235.0720999999642,1093,235.07219999998804,1,236.0720999999642,0,23,23,14,1,1.6,0.3,Time
,,820531,001,男,20,2025-06-04_17h46.37.523,Serial_Dependence_U,2023.2.3,Win32,142.85714285714286,,,,,,236.07229999995226,84,0,236.0723999999761,84,,,,239.85,240.3497999999523,239.3430999999642,239.85,237.07929999995227,239.343,240.3497999999523,240.84969999998808,240.8497999999523,242.30809999996418,1239,242.30819999998803,3,243.30809999996418,0,24,24,22,1,1.2,0.3,Time
,,820531,001,男,20,2025-06-04_17h46.37.523,Serial_Dependence_U,2023.2.3,Win32,142.85714285714286,,,,,,243.30819999998803,319,0,243.3083999999761,319,,,,246.6552999999523,247.15519999998807,246.14849999999998,246.6552999999523,244.3150999999642,246.14839999997614,247.1552999999523,247.65539999997614,247.65539999997614,249.16909999996423,1149,249.16909999996423,5,250.1688999999761,0,25,25,15,1,0.8,0.7,Time
,,820531,001,男,20,2025-06-04_17h46.37.523,Serial_Dependence_U,2023.2.3,Win32,142.85714285714286,,,,,,250.16919999998802,125,0,250.16919999998802,125,,,,253.74549999999996,254.24529999995227,253.23859999996424,253.74549999999996,251.17619999998803,253.23849999999996,254.24529999995227,254.74519999998805,254.74529999995227,255.89809999996422,736,255.89809999996422,2,256.898,0,26,26,21,1,1,0.3,Time
,,820531,001,男,20,2025-06-04_17h46.37.523,Serial_Dependence_U,2023.2.3,Win32,142.85714285714286,,,,,,256.89819999998804,19,0,256.89819999998804,19,,,,260.2730999999642,260.7728999999762,259.76609999996424,260.273,257.905,259.76599999999996,260.7728999999762,261.273,261.273,262.0853999999762,534,262.0853999999762,1,263.0852999999523,0,27,27,20,1,0.8,0.3,Time
,,820531,001,男,20,2025-06-04_17h46.37.523,Serial_Dependence_U,2023.2.3,Win32,142.85714285714286,,,,,,263.0855999999642,340,0,263.08569999998804,340,,,,266.8355,267.3352999999523,266.32849999999996,266.8352999999523,264.0923999999761,266.3283999999761,267.3352999999523,267.83519999998805,267.83519999998805,269.404699999988,1185,269.404699999988,3,270.4045,0,28,28,17,1,1.2,0.7,Time
,,820531,001,男,20,2025-06-04_17h46.37.523,Serial_Dependence_U,2023.2.3,Win32,142.85714285714286,,,,,,270.4047999999523,339,0,270.4048999999761,339,,,,273.9465,274.4460999999642,273.43949999999995,273.9462999999523,271.4047999999523,273.43949999999995,274.4460999999642,274.94619999998804,274.94619999998804,276.5016999999881,1178,276.50179999995225,4,277.5016999999881,0,29,29,26,1,1,0.7,Time
,,820531,001,男,20,2025-06-04_17h46.37.523,Serial_Dependence_U,2023.2.3,Win32,142.85714285714286,,,,,,277.5018999999761,161,1,282.7792999999523,161,s,5.26400000000001,,286.3278999999761,286.8277999999523,285.8210999999642,286.3277999999523,283.7863999999761,285.821,286.8277999999523,287.3277999999523,287.3277999999523,288.7860999999642,1203,288.78619999998807,4,288.78629999995223,1,0,30,6,1,1,0.7,Time
,,820531,001,男,20,2025-06-04_17h46.37.523,Serial_Dependence_U,2023.2.3,Win32,142.85714285714286,,,,,,288.78649999999993,321,1,288.78719999998805,321,,,,292.7653999999761,293.26509999996426,292.2583999999762,292.7653999999761,289.79339999997615,292.2582999999523,293.26509999996426,293.76509999996426,293.765199999988,295.2998999999761,1124,295.2998999999761,2,295.30009999996423,1,1,31,23,1,1.4,0.3,Time
,,820531,001,男,20,2025-06-04_17h46.37.523,Serial_Dependence_U,2023.2.3,Win32,142.85714285714286,,,,,,295.3001999999881,70,1,295.30029999995224,70,,,,299.44569999998805,299.9454999999999,298.9388999999761,299.44569999998805,296.30689999997617,298.93879999995227,299.9455999999642,300.4453999999761,300.4454999999999,302.1886999999881,1513,302.1886999999881,2,302.18879999995227,1,2,32,9,1,1.6,0.7,Time
,,820531,001,男,20,2025-06-04_17h46.37.523,Serial_Dependence_U,2023.2.3,Win32,142.85714285714286,,,,,,302.18899999999996,66,1,302.18909999996424,66,,,,305.7271999999881,306.2252999999523,305.226,305.7271999999881,303.19139999997617,305.226,306.2252999999523,306.7252999999523,306.7252999999523,308.39300000000003,1396,308.39300000000003,5,308.3930999999642,1,3,33,16,1,1,0.7,Time
,,820531,001,男,20,2025-06-04_17h46.37.523,Serial_Dependence_U,2023.2.3,Win32,142.85714285714286,,,,,,308.3932999999523,236,1,308.39339999997617,236,,,,312.3272999999523,312.82709999996416,311.8241999999881,312.327199999988,309.3925999999642,311.82409999996423,312.827199999988,313.327,313.32709999996416,315.0215999999642,1298,315.0215999999642,2,315.0216999999881,1,4,34,28,1,1.4,0.7,Time
,,820531,001,男,20,2025-06-04_17h46.37.523,Serial_Dependence_U,2023.2.3,Win32,142.85714285714286,,,,,,315.0218999999761,131,1,315.02199999999993,131,,,,318.59799999999996,319.0976999999881,318.0935999999642,318.5978999999761,316.03009999996425,318.0935999999642,319.09779999995226,319.5976999999881,319.59779999995226,321.115699999988,1022,321.115699999988,3,321.115699999988,1,5,35,21,1,1,0.3,Time
,,820531,001,男,20,2025-06-04_17h46.37.523,Serial_Dependence_U,2023.2.3,Win32,142.85714285714286,,,,,,321.11589999997614,56,1,321.11589999997614,56,,,,325.0560999999642,325.5558999999761,324.5518999999762,325.0560999999642,322.1197999999523,324.5518999999762,325.5558999999761,326.0558999999761,326.0558999999761,327.9170999999642,1384,327.9170999999642,3,327.91719999998804,1,6,36,18,1,1.4,0.7,Time
,,820531,001,男,20,2025-06-04_17h46.37.523,Serial_Dependence_U,2023.2.3,Win32,142.85714285714286,,,,,,327.9175,131,1,327.9175,131,,,,332.06289999997614,332.55789999997614,331.5572999999523,332.06289999997614,328.92409999996426,331.55719999998803,332.55789999997614,333.05309999996416,333.05309999996416,335.028,1628,335.0280999999642,3,335.02819999998803,1,7,37,19,1,1.6,0.7,Time
,,820531,001,男,20,2025-06-04_17h46.37.523,Serial_Dependence_U,2023.2.3,Win32,142.85714285714286,,,,,,335.0285,242,1,335.0285,242,,,,338.9655999999642,339.46519999998804,338.4612999999523,338.9655,336.0280999999642,338.461199999988,339.4652999999523,339.96519999998804,339.9652999999523,341.65979999995227,1414,341.65979999995227,3,341.6598999999761,1,8,38,8,1,1.4,0.7,Time
,,820531,001,男,20,2025-06-04_17h46.37.523,Serial_Dependence_U,2023.2.3,Win32,142.85714285714286,,,,,,341.66009999996425,321,1,341.66009999996425,321,,,,345.8117999999523,346.31079999995234,345.3014999999999,345.8117999999523,342.66679999995233,345.3014999999999,346.31079999995234,346.812,346.8120999999642,348.5485,1293,348.5485,2,348.5487999999523,1,9,39,29,1,1.6,0.7,Time
,,820531,001,男,20,2025-06-04_17h46.37.523,Serial_Dependence_U,2023.2.3,Win32,142.85714285714286,,,,,,348.54889999997613,121,1,348.549,121,,,,352.11799999999994,352.6176999999881,351.6139999999999,352.1178999999761,349.54859999996415,351.6138999999762,352.6176999999881,353.1176999999881,353.11779999995224,354.4095,1002,354.4095,3,354.40959999996426,1,10,40,1,1,1,0.3,Time
,,820531,001,男,20,2025-06-04_17h46.37.523,Serial_Dependence_U,2023.2.3,Win32,142.85714285714286,,,,,,354.4098999999761,95,1,354.4098999999761,95,,,,357.779,358.2773999999762,357.27179999995224,357.779,355.41149999999993,357.27179999995224,358.2773999999762,358.7773999999762,358.7773999999762,360.0342999999523,896,360.0342999999523,4,360.0345,1,11,41,10,1,0.8,0.3,Time
,,820531,001,男,20,2025-06-04_17h46.37.523,Serial_Dependence_U,2023.2.3,Win32,142.85714285714286,,,,,,360.03459999996426,202,1,360.0346999999881,202,,,,364.00649999999996,364.5063999999761,363.4995999999642,364.00649999999996,361.03459999996426,363.4995999999642,364.5063999999761,365.00629999995226,365.00629999995226,366.3605,1062,366.36059999996417,2,366.360699999988,1,12,42,13,1,1.4,0.3,Time
,,820531,001,男,20,2025-06-04_17h46.37.523,Serial_Dependence_U,2023.2.3,Win32,142.85714285714286,,,,,,366.36089999997614,157,1,366.36089999997614,157,,,,369.7355,370.2352999999523,369.22869999998807,369.7355,367.36749999999995,369.2285999999642,370.23539999997615,370.73539999997615,370.73539999997615,371.8257999999523,818,371.8258999999762,3,371.826,1,13,43,20,1,0.8,0.3,Time
,,820531,001,男,20,2025-06-04_17h46.37.523,Serial_Dependence_U,2023.2.3,Win32,142.85714285714286,,,,,,371.82619999998803,96,1,371.8262999999523,96,,,,375.5686999999881,376.0685,375.0617999999523,375.5686999999881,372.8257999999523,375.06169999998804,376.06859999996425,376.5685,376.5685,377.9990999999642,1181,377.99919999998804,3,377.9992999999523,1,14,44,7,1,1.2,0.7,Time
,,820531,001,男,20,2025-06-04_17h46.37.523,Serial_Dependence_U,2023.2.3,Win32,142.85714285714286,,,,,,377.9995999999642,277,1,377.9995999999642,277,,,,381.54359999996416,382.0427999999523,381.0387999999523,381.54359999996416,379.0061999999881,381.03859999996416,382.04289999997616,382.5427999999523,382.5427999999523,383.8947999999523,1091,383.8947999999523,4,383.89509999996426,1,15,45,26,1,1,0.7,Time
,,820531,001,男,20,2025-06-04_17h46.37.523,Serial_Dependence_U,2023.2.3,Win32,142.85714285714286,,,,,,383.8951999999881,334,1,383.8952999999523,334,,,,387.86699999999996,388.3668999999761,387.36279999995224,387.8668999999761,384.90179999995235,387.36279999995224,388.3668999999761,388.86679999995226,388.86679999995226,390.16549999999995,1027,390.16549999999995,2,390.1656999999881,1,16,46,3,1,1.4,0.3,Time
,,820531,001,男,20,2025-06-04_17h46.37.523,Serial_Dependence_U,2023.2.3,Win32,142.85714285714286,,,,,,390.1658999999762,32,1,390.16600000000005,32,,,,393.54049999999995,394.04029999995237,393.0335999999643,393.5403999999761,391.1725,393.0335999999643,394.04029999995237,394.54049999999995,394.54049999999995,395.7140999999642,851,395.7140999999642,4,395.71429999995235,1,17,47,0,1,0.8,0.3,Time
,,820531,001,男,20,2025-06-04_17h46.37.523,Serial_Dependence_U,2023.2.3,Win32,142.85714285714286,,,,,,395.7143999999762,110,1,395.71450000000004,110,,,,399.48489999997616,399.98469999998804,398.97799999999995,399.48489999997616,396.7140999999642,398.97779999995237,399.98469999998804,400.4847999999523,400.4847999999523,401.85259999996424,947,401.8526999999881,2,401.85279999995237,1,18,48,12,1,1.2,0.3,Time
,,820531,001,男,20,2025-06-04_17h46.37.523,Serial_Dependence_U,2023.2.3,Win32,142.85714285714286,,,,,,401.8528999999761,91,1,401.8528999999761,91,,,,405.63039999997613,406.1301999999881,405.1235999999642,405.63039999997613,402.8597999999523,405.12350000000004,406.1301999999881,406.6301999999881,406.6302999999523,407.77609999996423,877,407.7761999999881,2,407.77629999995236,1,19,49,22,1,1.2,0.3,Time
,,820531,001,男,20,2025-06-04_17h46.37.523,Serial_Dependence_U,2023.2.3,Win32,142.85714285714286,,,,,,407.7763999999762,114,1,407.77650000000006,114,,,,411.1233999999762,411.62329999995234,410.6165,411.1233999999762,408.783199999988,410.6165,411.62329999995234,412.12319999998806,412.12319999998806,413.68579999995234,1085,413.68579999995234,5,413.6858999999762,1,20,50,25,1,0.8,0.7,Time
,,820531,001,男,20,2025-06-04_17h46.37.523,Serial_Dependence_U,2023.2.3,Win32,142.85714285714286,,,,,,413.6860999999642,185,1,413.68619999998805,185,,,,417.0330999999643,417.5327999999523,416.52609999996423,417.03289999997617,414.6926999999881,416.52609999996423,417.5327999999523,418.0327999999523,418.0327999999523,419.24179999995226,921,419.24179999995226,4,419.24199999999996,1,21,51,15,1,0.8,0.7,Time
,,820531,001,男,20,2025-06-04_17h46.37.523,Serial_Dependence_U,2023.2.3,Win32,142.85714285714286,,,,,,419.24209999996424,266,1,419.24229999995237,266,,,,422.8175,423.3172999999523,422.3105999999642,422.8175,420.24829999995234,422.3105999999642,423.31739999997615,423.8172999999523,423.8172999999523,425.2062999999523,1064,425.2062999999523,4,425.2065,1,22,52,11,1,1,0.3,Time
,,820531,001,男,20,2025-06-04_17h46.37.523,Serial_Dependence_U,2023.2.3,Win32,142.85714285714286,,,,,,425.20669999998813,282,1,425.2067999999523,282,,,,428.5535,429.0532999999523,428.0465999999642,428.5535,426.2133999999761,428.04650000000004,429.0532999999523,429.5532999999523,429.55339999997614,431.1435999999643,1183,431.14369999998803,5,431.14369999998803,1,23,53,5,1,0.8,0.7,Time
,,820531,001,男,20,2025-06-04_17h46.37.523,Serial_Dependence_U,2023.2.3,Win32,142.85714285714286,,,,,,431.14389999997616,266,1,431.144,266,,,,434.89369999998803,435.3935,434.3866999999881,434.8935999999643,432.1506999999881,434.3866999999881,435.3935,435.89339999997617,435.8935,437.42119999998806,1273,437.42129999995234,4,437.4213999999762,1,24,54,27,1,1.2,0.7,Time
,,820531,001,男,20,2025-06-04_17h46.37.523,Serial_Dependence_U,2023.2.3,Win32,142.85714285714286,,,,,,437.42169999998805,111,1,437.4217999999523,111,,,,441.6017999999523,442.10159999996426,441.0950999999642,441.6017999999523,438.4281999999881,441.095,442.10159999996426,442.60159999996426,442.60159999996426,443.7891999999881,972,443.7892999999523,1,443.7892999999523,1,25,55,24,1,1.6,0.3,Time
,,820531,001,男,20,2025-06-04_17h46.37.523,Serial_Dependence_U,2023.2.3,Win32,142.85714285714286,,,,,,443.78959999996425,327,1,443.78959999996425,327,,,,447.53909999996426,448.039,447.03229999995233,447.53909999996426,444.79619999998806,447.03219999998805,448.039,448.53889999997614,448.539,450.1083999999762,1343,450.10850000000005,4,450.1085999999642,1,26,56,17,1,1.2,0.7,Time
,,820531,001,男,20,2025-06-04_17h46.37.523,Serial_Dependence_U,2023.2.3,Win32,142.85714285714286,,,,,,450.10879999995234,149,1,450.1088999999762,149,,,,454.289,454.7887999999523,453.7820999999642,454.28889999997614,451.11539999997615,453.78200000000004,454.7887999999523,455.2887999999523,455.28889999997614,456.61539999997615,1031,456.61539999997615,1,456.6155,1,27,57,14,1,1.6,0.3,Time
,,820531,001,男,20,2025-06-04_17h46.37.523,Serial_Dependence_U,2023.2.3,Win32,142.85714285714286,,,,,,456.6155999999643,2,1,456.6156999999881,2,,,,460.79579999995235,461.29549999999995,460.28889999997614,460.7956999999881,457.6221999999881,460.28889999997614,461.2955999999642,461.79549999999995,461.79549999999995,463.0665,1011,463.0665,1,463.0665999999642,1,28,58,4,1,1.6,0.3,Time
,,820531,001,男,20,2025-06-04_17h46.37.523,Serial_Dependence_U,2023.2.3,Win32,142.85714285714286,,,,,,463.0667999999523,161,1,463.0667999999523,161,,,,466.84429999995234,467.34400000000005,466.3372999999523,466.84419999998806,464.07349999999997,466.3371999999881,467.34400000000005,467.84400000000005,467.84400000000005,469.1217999999524,1040,469.1217999999524,2,469.12199999999996,1,29,59,2,1,1.2,0.3,Time
,,820531,001,男,20,2025-06-04_17h46.37.523,Serial_Dependence_U,2023.2.3,Win32,142.85714285714286,,,,,,469.1221999999881,154,2,520.2941999999881,154,s,51.16379999995229,,524.0777999999523,524.5786999999881,523.5677999999523,524.0777999999523,521.3010999999642,523.5676999999881,524.5786999999881,525.0787999999524,525.0787999999524,526.4745,1056,526.4745999999642,2,526.474699999988,2,0,60,12,1,1.2,0.3,Time
,,820531,001,男,20,2025-06-04_17h46.37.523,Serial_Dependence_U,2023.2.3,Win32,142.85714285714286,,,,,,526.4747999999523,254,2,526.4753999999762,254,,,,529.8593999999762,530.3562999999523,529.3558999999761,529.8592999999523,527.4842999999523,529.3557999999523,530.3562999999523,530.8562999999523,530.8562999999523,531.9535999999642,849,531.9535999999642,4,531.9536999999881,2,1,61,10,1,0.8,0.3,Time
,,820531,001,男,20,2025-06-04_17h46.37.523,Serial_Dependence_U,2023.2.3,Win32,142.85714285714286,,,,,,531.9538999999762,307,2,531.9540999999642,307,,,,536.0993999999762,536.5992999999523,535.5925999999642,536.0992999999523,532.9605,535.5925,536.5992999999523,537.0957999999523,537.0957999999523,538.7103999999762,1388,538.7103999999762,2,538.7105,2,2,62,9,1,1.6,0.7,Time
,,820531,001,男,20,2025-06-04_17h46.37.523,Serial_Dependence_U,2023.2.3,Win32,142.85714285714286,,,,,,538.710699999988,121,2,538.710699999988,121,,,,542.259,542.758699999988,541.7520999999642,542.2588999999762,539.7172999999523,541.752,542.758699999988,543.2587999999523,543.2587999999523,544.7935999999643,1356,544.7935999999643,5,544.7936999999881,2,3,63,26,1,1,0.7,Time
,,820531,001,男,20,2025-06-04_17h46.37.523,Serial_Dependence_U,2023.2.3,Win32,142.85714285714286,,,,,,544.7938999999761,291,2,544.7938999999761,291,,,,548.1407999999523,548.6405999999643,547.6338999999762,548.1406999999881,545.8005,547.6337999999523,548.6405999999643,549.1405999999643,549.1405999999643,550.3558999999761,1012,550.3558999999761,4,550.3560999999643,2,4,64,5,1,0.8,0.7,Time
,,820531,001,男,20,2025-06-04_17h46.37.523,Serial_Dependence_U,2023.2.3,Win32,142.85714285714286,,,,,,550.3561999999881,127,2,550.3561999999881,127,,,,554.5295,555.0292999999523,554.022699999988,554.5295,551.3558999999761,554.0225999999642,555.0292999999523,555.5292999999523,555.5292999999523,557.0432999999523,1312,557.0432999999523,2,557.0435,2,5,65,14,1,1.6,0.3,Time
,,820531,001,男,20,2025-06-04_17h46.37.523,Serial_Dependence_U,2023.2.3,Win32,142.85714285714286,,,,,,557.0435999999643,107,2,557.0436999999881,107,,,,561.2237999999523,561.7235999999642,560.7168999999761,561.2236999999881,558.0502999999524,560.7167999999523,561.7235999999642,562.2235999999642,562.2235999999642,563.7096999999881,1235,563.7097999999523,2,563.7097999999523,2,6,66,24,1,1.6,0.3,Time
,,820531,001,男,20,2025-06-04_17h46.37.523,Serial_Dependence_U,2023.2.3,Win32,142.85714285714286,,,,,,563.71,237,2,563.7100999999642,237,,,,567.8555,568.3553999999762,567.3487999999523,567.8555,564.7166999999881,567.3486999999881,568.3553999999762,568.8553999999762,568.8553999999762,570.3205999999642,1203,570.320699999988,2,570.3207999999523,2,7,67,19,1,1.6,0.7,Time
,,820531,001,男,20,2025-06-04_17h46.37.523,Serial_Dependence_U,2023.2.3,Win32,142.85714285714286,,,,,,570.321,272,2,570.321,272,,,,574.070699999988,574.5705,573.5637999999523,574.070699999988,571.3276999999881,573.5635999999643,574.5705,575.0705,575.0705,576.5635999999643,1249,576.5635999999643,3,576.5637999999523,2,8,68,7,1,1.2,0.7,Time
,,820531,001,男,20,2025-06-04_17h46.37.523,Serial_Dependence_U,2023.2.3,Win32,142.85714285714286,,,,,,576.564,75,2,576.564,75,,,,580.14,580.6397999999523,579.6330999999642,580.1398999999761,577.5705999999642,579.633,580.6397999999523,581.1397999999523,581.1398999999761,582.5078999999762,1084,582.5078999999762,4,582.5080999999642,2,9,69,1,1,1,0.3,Time
,,820531,001,男,20,2025-06-04_17h46.37.523,Serial_Dependence_U,2023.2.3,Win32,142.85714285714286,,,,,,582.508199999988,148,2,582.5082999999523,148,,,,586.4803999999762,586.9797999999523,585.9800999999642,586.4803999999762,583.5148999999761,585.98,586.9798999999762,587.4798999999762,587.4798999999762,588.8478999999761,1140,588.848,2,588.848,2,10,70,13,1,1.4,0.3,Time
,,820531,001,男,20,2025-06-04_17h46.37.523,Serial_Dependence_U,2023.2.3,Win32,142.85714285714286,,,,,,588.8481999999881,189,2,588.8481999999881,189,,,,592.2230999999642,592.7226999999881,591.7160999999643,592.223,589.855,591.716,592.7227999999524,593.2227999999524,593.2227999999524,594.4033999999762,930,594.4035,4,594.4035999999643,2,11,71,20,1,0.8,0.3,Time
,,820531,001,男,20,2025-06-04_17h46.37.523,Serial_Dependence_U,2023.2.3,Win32,142.85714285714286,,,,,,594.4037999999523,54,2,594.4037999999523,54,,,,598.3755999999643,598.8752999999523,597.8688999999762,598.3755999999643,595.4035,597.8687999999523,598.8753999999761,599.3752999999523,599.3753999999761,600.792199999988,1181,600.792199999988,2,600.7923999999762,2,12,72,23,1,1.4,0.3,Time
,,820531,001,男,20,2025-06-04_17h46.37.523,Serial_Dependence_U,2023.2.3,Win32,142.85714285714286,,,,,,600.7925,327,2,600.7925999999642,327,,,,604.1393999999761,604.6391999999881,603.6323999999762,604.1392999999523,601.7991999999881,603.6323999999762,604.6391999999881,605.1391999999881,605.1391999999881,606.4931999999881,1132,606.4932999999523,5,606.4933999999762,2,13,73,25,1,0.8,0.7,Time
,,820531,001,男,20,2025-06-04_17h46.37.523,Serial_Dependence_U,2023.2.3,Win32,142.85714285714286,,,,,,606.4935999999642,224,2,606.4935999999642,224,,,,610.035,610.5347999999523,609.528199999988,610.035,607.4935,609.528199999988,610.5348999999761,611.0347999999523,611.0347999999523,612.5695,1299,612.5695,4,612.5696999999881,2,14,74,6,1,1,0.7,Time
,,820531,001,男,20,2025-06-04_17h46.37.523,Serial_Dependence_U,2023.2.3,Win32,142.85714285714286,,,,,,612.5698999999762,62,2,612.5698999999762,62,,,,616.1390999999643,616.6388999999762,615.6320999999642,616.139,613.5697999999524,615.6320999999642,616.6388999999762,617.1388999999762,617.1388999999762,618.2777999999523,925,618.2777999999523,2,618.278,2,15,75,21,1,1,0.3,Time
,,820531,001,男,20,2025-06-04_17h46.37.523,Serial_Dependence_U,2023.2.3,Win32,142.85714285714286,,,,,,618.2780999999642,291,2,618.278199999988,291,,,,622.2222999999523,622.722,621.7152999999523,622.2222999999523,619.2847999999523,621.715199999988,622.722,623.222,623.222,624.9095,1472,624.9095999999643,4,624.9097999999523,2,16,76,8,1,1.4,0.7,Time
,,820531,001,男,20,2025-06-04_17h46.37.523,Serial_Dependence_U,2023.2.3,Win32,142.85714285714286,,,,,,624.91,282,2,624.91,282,,,,628.6873999999762,629.187199999988,628.1805,628.6872999999523,625.9165999999642,628.1805,629.187199999988,629.6870999999643,629.6870999999643,630.9302999999524,984,630.9303999999762,2,630.9305999999642,2,17,77,2,1,1.2,0.3,Time
,,820531,001,男,20,2025-06-04_17h46.37.523,Serial_Dependence_U,2023.2.3,Win32,142.85714285714286,,,,,,630.9306999999881,86,2,630.9307999999523,86,,,,634.5066999999881,635.0065999999642,633.999699999988,634.5066999999881,631.9372999999523,633.999699999988,635.0065999999642,635.5065,635.5065,636.7703999999761,1040,636.7703999999761,3,636.7705999999642,2,18,78,11,1,1,0.3,Time
,,820531,001,男,20,2025-06-04_17h46.37.523,Serial_Dependence_U,2023.2.3,Win32,142.85714285714286,,,,,,636.7707999999524,264,2,636.7708999999761,264,,,,640.7113999999762,641.2107999999523,640.2037999999524,640.7112999999523,637.7705,640.2036999999881,641.2107999999523,641.7103999999762,641.7103999999762,643.4745999999642,1514,643.474699999988,4,643.4748999999762,2,19,79,28,1,1.4,0.7,Time
,,820531,001,男,20,2025-06-04_17h46.37.523,Serial_Dependence_U,2023.2.3,Win32,142.85714285714286,,,,,,643.475,302,2,643.4750999999642,302,,,,646.8187999999523,647.3185,646.3178999999761,646.8187999999523,644.4785999999642,646.3177999999523,647.3185,647.8185999999642,647.8185999999642,649.6065,1443,649.6065,5,649.6065999999643,2,20,80,15,1,0.8,0.7,Time
,,820531,001,男,20,2025-06-04_17h46.37.523,Serial_Dependence_U,2023.2.3,Win32,142.85714285714286,,,,,,649.6067999999523,141,2,649.6067999999523,141,,,,653.749199999988,654.249,653.2433999999762,653.7490999999642,650.6103999999762,653.2433999999762,654.249,654.749,654.749,656.7105,1734,656.7105999999642,4,656.7105999999642,2,21,81,29,1,1.6,0.7,Time
,,820531,001,男,20,2025-06-04_17h46.37.523,Serial_Dependence_U,2023.2.3,Win32,142.85714285714286,,,,,,656.7107999999523,336,2,656.7107999999523,336,,,,660.4572999999523,660.9571999999881,659.9537999999524,660.4572999999523,657.7142999999523,659.9537999999524,660.9571999999881,661.4571999999881,661.4571999999881,662.8765999999642,1212,662.8765999999642,3,662.8766999999881,2,22,82,27,1,1.2,0.7,Time
,,820531,001,男,20,2025-06-04_17h46.37.523,Serial_Dependence_U,2023.2.3,Win32,142.85714285714286,,,,,,662.8767999999524,131,2,662.8767999999524,131,,,,666.6446999999881,667.1445,666.1405999999643,666.6445999999643,663.8738999999762,666.1403999999761,667.1445,667.6445,667.6445,668.9182999999523,1066,668.9182999999523,2,668.9183999999761,2,23,83,22,1,1.2,0.3,Time
,,820531,001,男,20,2025-06-04_17h46.37.523,Serial_Dependence_U,2023.2.3,Win32,142.85714285714286,,,,,,668.9185999999643,326,2,668.9186999999881,326,,,,672.8945,673.3942999999523,672.3907999999523,672.8945,669.9223999999762,672.3906999999881,673.3942999999523,673.8943999999761,673.8943999999761,675.3735,1257,675.3735999999642,2,675.373699999988,2,24,84,3,1,1.4,0.3,Time
,,820531,001,男,20,2025-06-04_17h46.37.523,Serial_Dependence_U,2023.2.3,Win32,142.85714285714286,,,,,,675.3738999999762,326,2,675.3738999999762,326,,,,678.922199999988,679.4218999999762,678.4151999999881,678.922199999988,676.3823999999762,678.4150999999642,679.4218999999762,679.9218999999762,679.9218999999762,681.5015999999642,1385,681.5015999999642,5,681.5016999999881,2,25,85,16,1,1,0.7,Time
,,820531,001,男,20,2025-06-04_17h46.37.523,Serial_Dependence_U,2023.2.3,Win32,142.85714285714286,,,,,,681.5018999999761,180,2,681.5018999999761,180,,,,685.4428999999761,685.9425999999643,684.9385,685.4428999999761,682.5053999999761,684.9385,685.9425999999643,686.4425999999643,686.4425999999643,687.9875999999642,1354,687.9875999999642,3,687.9876999999881,2,26,86,18,1,1.4,0.7,Time
,,820531,001,男,20,2025-06-04_17h46.37.523,Serial_Dependence_U,2023.2.3,Win32,142.85714285714286,,,,,,687.9878999999762,236,2,687.9878999999762,236,,,,692.158,692.6577999999523,691.6537999999523,692.1578999999762,688.9930999999642,691.6536999999881,692.6577999999523,693.157699999988,693.157699999988,694.5427999999523,1139,694.5428999999762,2,694.5428999999762,2,27,87,4,1,1.6,0.3,Time
,,820531,001,男,20,2025-06-04_17h46.37.523,Serial_Dependence_U,2023.2.3,Win32,142.85714285714286,,,,,,694.5430999999643,320,2,694.5431999999881,320,,,,698.2827999999523,698.7825999999642,697.7787999999523,698.282699999988,695.546699999988,697.7787999999523,698.7825999999642,699.2825999999642,699.2825999999642,701.0497999999524,1533,701.0497999999524,4,701.0497999999524,2,28,88,17,1,1.2,0.7,Time
,,820531,001,男,20,2025-06-04_17h46.37.523,Serial_Dependence_U,2023.2.3,Win32,142.85714285714286,,,,,,701.0498999999761,248,2,701.05,248,,,,704.4215,704.9213999999762,703.9145999999643,704.4215,702.0483999999761,703.9145,704.9213999999762,705.4213999999762,705.4213999999762,706.609,965,706.609,4,706.6090999999642,2,29,89,0,1,0.8,0.3,Time
,,820531,001,男,20,2025-06-04_17h46.37.523,Serial_Dependence_U,2023.2.3,Win32,142.85714285714286,,,,,,706.6092999999523,308,3,748.1591999999881,308,s,41.53810000002386,0.0003000000118618118,751.927199999988,752.427,751.4202999999524,751.927199999988,749.1593999999761,751.4202999999524,752.427,752.9270999999642,752.9270999999642,754.3437999999524,1140,754.3437999999524,2,754.3438999999762,3,0,90,2,1,1.2,0.3,Time
,,820531,001,男,20,2025-06-04_17h46.37.523,Serial_Dependence_U,2023.2.3,Win32,142.85714285714286,,,,,,754.3440999999642,17,3,754.344699999988,17,,,,758.1162999999523,758.6145,757.6145999999642,758.1162999999523,755.3507999999523,757.6145,758.6145999999642,759.1143999999762,759.1143999999762,760.302,951,760.302,2,760.302199999988,3,1,91,12,1,1.2,0.3,Time
,,820531,001,男,20,2025-06-04_17h46.37.523,Serial_Dependence_U,2023.2.3,Win32,142.85714285714286,,,,,,760.3022999999523,318,3,760.3023999999762,318,,,,764.4717999999523,764.9683999999762,763.9711999999881,764.4716999999881,761.309,763.9711999999881,764.9685,765.4683999999762,765.4683999999762,766.7947999999523,1080,766.7948999999761,1,766.7950999999642,3,2,92,4,1,1.6,0.3,Time
,,820531,001,男,20,2025-06-04_17h46.37.523,Serial_Dependence_U,2023.2.3,Win32,142.85714285714286,,,,,,766.7951999999881,208,3,766.7952999999524,208,,,,770.767,771.2668999999762,770.263,770.767,767.8011999999881,770.2628999999762,771.2668999999762,771.7668999999762,771.7668999999762,773.2598999999761,1273,773.26,2,773.2600999999643,3,3,93,13,1,1.4,0.3,Time
,,820531,001,男,20,2025-06-04_17h46.37.523,Serial_Dependence_U,2023.2.3,Win32,142.85714285714286,,,,,,773.2602999999523,199,3,773.2602999999523,199,,,,777.4403999999762,777.9401999999881,776.9380999999643,777.4403999999762,774.2668999999762,776.9380999999643,777.9402999999523,778.4402999999523,778.4403999999762,780.086199999988,1431,780.0862999999523,2,780.0863999999762,3,4,94,24,1,1.6,0.3,Time
,,820531,001,男,20,2025-06-04_17h46.37.523,Serial_Dependence_U,2023.2.3,Win32,142.85714285714286,,,,,,780.0865999999643,167,3,780.0865999999643,167,,,,783.8292999999524,784.3290999999642,783.325,783.8290999999642,781.0930999999642,783.3248999999762,784.3290999999642,784.829,784.829,786.5950999999642,1567,786.5950999999642,5,786.595199999988,3,5,95,7,1,1.2,0.7,Time
,,820531,001,男,20,2025-06-04_17h46.37.523,Serial_Dependence_U,2023.2.3,Win32,142.85714285714286,,,,,,786.5953999999762,285,3,786.5955,285,,,,790.3375999999643,790.8357999999523,789.834,790.3375,787.593,789.8338999999762,790.8357999999523,791.3357999999523,791.3358999999762,793.1332999999523,1597,793.1333999999762,5,793.1333999999762,3,6,96,27,1,1.2,0.7,Time
,,820531,001,男,20,2025-06-04_17h46.37.523,Serial_Dependence_U,2023.2.3,Win32,142.85714285714286,,,,,,793.1335999999642,327,3,793.133699999988,327,,,,797.2741999999881,797.7730999999642,796.7716999999881,797.2741999999881,794.1371999999881,796.7716999999881,797.7730999999642,798.2730999999642,798.2730999999642,800.071699999988,1616,800.071699999988,3,800.0718999999762,3,7,97,9,1,1.6,0.7,Time
,,820531,001,男,20,2025-06-04_17h46.37.523,Serial_Dependence_U,2023.2.3,Win32,142.85714285714286,,,,,,800.0720999999643,274,3,800.0721999999881,274,,,,803.6480999999642,804.148,803.1445,803.6480999999642,801.0788999999762,803.1445,804.148,804.648,804.648,806.0993999999762,1256,806.0993999999762,4,806.0995999999642,3,8,98,21,1,1,0.3,Time
,,820531,001,男,20,2025-06-04_17h46.37.523,Serial_Dependence_U,2023.2.3,Win32,142.85714285714286,,,,,,806.0997999999523,117,3,806.0998999999762,117,,,,810.2798999999761,810.7797999999523,809.7730999999642,810.2797999999523,807.1063999999761,809.7730999999642,810.7797999999523,811.2796999999881,811.2797999999523,813.0853999999762,1421,813.0853999999762,2,813.0855999999642,3,9,99,14,1,1.6,0.3,Time
,,820531,001,男,20,2025-06-04_17h46.37.523,Serial_Dependence_U,2023.2.3,Win32,142.85714285714286,,,,,,813.085699999988,228,3,813.0857999999523,228,,,,816.8630999999642,817.3628999999762,816.3562999999523,816.8630999999642,814.0922999999523,816.3561999999881,817.363,817.8628999999762,817.8628999999762,819.6198999999762,1448,819.6198999999762,4,819.6200999999643,3,10,100,22,1,1.2,0.3,Time
,,820531,001,男,20,2025-06-04_17h46.37.523,Serial_Dependence_U,2023.2.3,Win32,142.85714285714286,,,,,,819.6201999999881,94,3,819.6202999999523,94,,,,823.1893999999761,823.6891999999881,822.6825,823.1892999999524,820.6200999999643,822.6823999999762,823.6892999999524,824.1890999999642,824.1890999999642,825.4737999999523,1070,825.4738999999762,4,825.474,3,11,101,1,1,1,0.3,Time
,,820531,001,男,20,2025-06-04_17h46.37.523,Serial_Dependence_U,2023.2.3,Win32,142.85714285714286,,,,,,825.4742999999523,23,3,825.4742999999523,23,,,,829.453,829.9528999999761,828.946199999988,829.453,826.4808999999761,828.946,829.9528999999761,830.4528999999761,830.4528999999761,831.9876999999881,1323,831.9876999999881,2,831.9877999999524,3,12,102,23,1,1.4,0.3,Time
,,820531,001,男,20,2025-06-04_17h46.37.523,Serial_Dependence_U,2023.2.3,Win32,142.85714285714286,,,,,,831.988,342,3,831.9880999999642,342,,,,835.5293999999761,836.0290999999643,835.0223999999762,835.5292999999523,832.9877999999524,835.0222999999523,836.0290999999643,836.5290999999643,836.5290999999643,837.9490999999642,1185,837.9490999999642,4,837.9492999999524,3,13,103,6,1,1,0.7,Time
,,820531,001,男,20,2025-06-04_17h46.37.523,Serial_Dependence_U,2023.2.3,Win32,142.85714285714286,,,,,,837.9495000000001,266,3,837.9495000000001,266,,,,841.6888999999761,842.1885999999643,841.1847999999524,841.6887999999523,838.9487999999524,841.1847999999524,842.1885999999643,842.6886999999881,842.6886999999881,844.3830999999642,1495,844.3830999999642,4,844.383199999988,3,14,104,17,1,1.2,0.7,Time
,,820531,001,男,20,2025-06-04_17h46.37.523,Serial_Dependence_U,2023.2.3,Win32,142.85714285714286,,,,,,844.3832999999523,56,3,844.3833999999762,56,,,,848.3553999999762,848.855199999988,847.8483999999762,848.3553999999762,845.3830999999642,847.8483999999762,848.855199999988,849.3550999999642,849.355199999988,851.258,1465,851.258,3,851.258199999988,3,15,105,3,1,1.4,0.3,Time
,,820531,001,男,20,2025-06-04_17h46.37.523,Serial_Dependence_U,2023.2.3,Win32,142.85714285714286,,,,,,851.2583999999762,254,3,851.2583999999762,254,,,,854.6261999999881,855.1258999999761,854.1190999999642,854.6261999999881,852.2580999999642,854.1190999999642,855.1258999999761,855.6257999999523,855.6257999999523,856.8162999999523,957,856.8162999999523,4,856.8163999999762,3,16,106,10,1,0.8,0.3,Time
,,820531,001,男,20,2025-06-04_17h46.37.523,Serial_Dependence_U,2023.2.3,Win32,142.85714285714286,,,,,,856.8165,333,3,856.8165,333,,,,860.3578999999762,860.8570999999642,859.8521999999881,860.3577999999524,857.816199999988,859.8521999999881,860.8570999999642,861.3571999999881,861.3571999999881,862.6881999999881,1122,862.6882999999523,4,862.6883999999761,3,17,107,16,1,1,0.7,Time
,,820531,001,男,20,2025-06-04_17h46.37.523,Serial_Dependence_U,2023.2.3,Win32,142.85714285714286,,,,,,862.6885999999643,253,3,862.6885999999643,253,,,,866.0301999999881,866.5282999999523,865.5285,866.0301999999881,863.6978999999761,865.5285,866.5282999999523,867.0283999999762,867.0285,868.4547999999523,1222,868.4548999999762,5,868.455,3,18,108,15,1,0.8,0.7,Time
,,820531,001,男,20,2025-06-04_17h46.37.523,Serial_Dependence_U,2023.2.3,Win32,142.85714285714286,,,,,,868.455199999988,232,3,868.455199999988,232,,,,871.827,872.3267999999523,871.323,871.8267999999523,869.4588999999762,871.323,872.3267999999523,872.8267999999523,872.8267999999523,873.9072999999523,791,873.9073999999762,3,873.9073999999762,3,19,109,0,1,0.8,0.3,Time
,,820531,001,男,20,2025-06-04_17h46.37.523,Serial_Dependence_U,2023.2.3,Win32,142.85714285714286,,,,,,873.9075999999642,3,3,873.907699999988,3,,,,878.0490999999643,878.5487999999523,877.5458999999762,878.0490999999643,874.9115999999642,877.5458999999762,878.5487999999523,879.0487999999523,879.0487999999523,881.0726999999881,1820,881.0726999999881,4,881.0728999999761,3,20,110,29,1,1.6,0.7,Time
,,820531,001,男,20,2025-06-04_17h46.37.523,Serial_Dependence_U,2023.2.3,Win32,142.85714285714286,,,,,,881.0730999999643,170,3,881.0731999999881,170,,,,884.6183999999762,885.1181999999881,884.114199999988,884.6183999999762,882.0766999999881,884.1140999999642,885.1181999999881,885.6181999999881,885.6181999999881,887.4167999999523,1477,887.4168999999762,5,887.417,3,21,111,26,1,1,0.7,Time
,,820531,001,男,20,2025-06-04_17h46.37.523,Serial_Dependence_U,2023.2.3,Win32,142.85714285714286,,,,,,887.417199999988,219,3,887.417199999988,219,,,,890.7640999999643,891.263699999988,890.2612999999524,890.7640999999643,888.4238999999761,890.2612999999524,891.2637999999523,891.763699999988,891.763699999988,893.3916999999881,1350,893.3916999999881,5,893.3917999999524,3,22,112,25,1,0.8,0.7,Time
,,820531,001,男,20,2025-06-04_17h46.37.523,Serial_Dependence_U,2023.2.3,Win32,142.85714285714286,,,,,,893.392,221,3,893.3920999999642,221,,,,896.7360999999643,897.2358999999761,896.232,896.736,894.3958999999761,896.2318999999761,897.2358999999761,897.7358999999761,897.7358999999761,899.2637999999523,1286,899.2637999999523,5,899.264,3,23,113,5,1,0.8,0.7,Time
,,820531,001,男,20,2025-06-04_17h46.37.523,Serial_Dependence_U,2023.2.3,Win32,142.85714285714286,,,,,,899.2640999999643,205,3,899.2640999999643,205,,,,903.2037999999524,903.7008999999761,902.7013999999762,903.2036999999881,900.2706999999881,902.7013999999762,903.7009999999999,904.2009999999999,904.2009999999999,906.0620999999643,1633,906.0620999999643,4,906.0621999999881,3,24,114,18,1,1.4,0.7,Time
,,820531,001,男,20,2025-06-04_17h46.37.523,Serial_Dependence_U,2023.2.3,Win32,142.85714285714286,,,,,,906.0625000000001,331,3,906.0625999999642,331,,,,910.0065999999644,910.5063999999762,909.4996999999881,910.0065999999644,907.069199999988,909.4996999999881,910.5065000000001,911.0062999999524,911.0062999999524,912.503,1283,912.503,2,912.5030999999643,3,25,115,8,1,1.4,0.7,Time
,,820531,001,男,20,2025-06-04_17h46.37.523,Serial_Dependence_U,2023.2.3,Win32,142.85714285714286,,,,,,912.5031999999882,203,3,912.5031999999882,203,,,,916.0775999999643,916.5755999999643,915.571699999988,916.0775999999643,913.5065000000001,915.5715999999642,916.5756999999882,917.0756999999882,917.0756999999882,918.812,1140,918.812,4,918.8121999999881,3,26,116,11,1,1,0.3,Time
,,820531,001,男,20,2025-06-04_17h46.37.523,Serial_Dependence_U,2023.2.3,Win32,142.85714285714286,,,,,,918.8122999999524,59,3,918.8123999999763,59,,,,922.187,922.6865999999642,921.6798999999761,922.1868999999762,919.8187999999524,921.6798999999761,922.686699999988,923.1865999999642,923.1865999999642,924.3323999999762,876,924.3323999999762,4,924.3325000000001,3,27,117,20,1,0.8,0.3,Time
,,820531,001,男,20,2025-06-04_17h46.37.523,Serial_Dependence_U,2023.2.3,Win32,142.85714285714286,,,,,,924.332699999988,60,3,924.332699999988,60,,,,928.2700000000001,928.7697999999524,927.7669999999999,928.2700000000001,925.3304999999999,927.7668999999761,928.7697999999524,929.2697999999524,929.2697999999524,930.9499999999999,1434,930.9499999999999,3,930.9500999999642,3,28,118,28,1,1.4,0.7,Time
,,820531,001,男,20,2025-06-04_17h46.37.523,Serial_Dependence_U,2023.2.3,Win32,142.85714285714286,,,,,,930.9501999999881,254,3,930.9502999999523,254,,,,935.0891999999882,935.5890999999643,934.5883999999761,935.0891999999882,931.9573999999762,934.5882999999523,935.5890999999643,936.089,936.089,937.9395000000001,1575,937.9395999999643,3,937.9396999999882,3,29,119,19,1,1.6,0.7,Time
,,820531,001,男,20,2025-06-04_17h46.37.523,Serial_Dependence_U,2023.2.3,Win32,142.85714285714286,,,,,,937.9398999999761,279,4,989.2198999999761,279,s,51.268300000012005,,992.5946999999882,993.0945999999643,992.0910999999643,992.5946999999882,990.226699999988,992.0910999999643,993.0945999999643,993.5945999999643,993.5945999999643,994.7820999999643,930,994.7820999999643,4,994.7821999999882,4,0,120,20,1,0.8,0.3,Time
,,820531,001,男,20,2025-06-04_17h46.37.523,Serial_Dependence_U,2023.2.3,Win32,142.85714285714286,,,,,,994.7823999999761,12,4,994.7828999999762,12,,,,998.726699999988,999.2265000000001,998.2195999999643,998.7265999999642,995.7890000000001,998.2195999999643,999.2265000000001,999.7263999999763,999.7263999999763,1001.3542999999523,1374,1001.3542999999523,3,1001.3543999999762,4,1,121,18,1,1.4,0.7,Time
,,820531,001,男,20,2025-06-04_17h46.37.523,Serial_Dependence_U,2023.2.3,Win32,142.85714285714286,,,,,,1001.3546999999882,103,4,1001.3546999999882,103,,,,1005.3247999999522,1005.8280999999641,1004.823,1005.3246999999882,1002.354199999988,1004.823,1005.8280999999641,1006.3233999999762,1006.3233999999762,1007.6637999999524,1070,1007.6638999999763,2,1007.6638999999763,4,2,122,13,1,1.4,0.3,Time
,,820531,001,男,20,2025-06-04_17h46.37.523,Serial_Dependence_U,2023.2.3,Win32,142.85714285714286,,,,,,1007.6640999999642,230,4,1007.664199999988,230,,,,1011.4283999999763,1011.9274999999999,1010.927699999988,1011.4282999999524,1008.6665999999642,1010.9275999999642,1011.9274999999999,1012.427399999976,1012.4274999999999,1013.6635999999643,979,1013.6635999999643,2,1013.6637999999524,4,3,123,2,1,1.2,0.3,Time
,,820531,001,男,20,2025-06-04_17h46.37.523,Serial_Dependence_U,2023.2.3,Win32,142.85714285714286,,,,,,1013.6640000000001,220,4,1013.6640000000001,220,,,,1017.6080000000001,1018.1078999999762,1017.1010999999643,1017.6080000000001,1014.6705999999643,1017.101,1018.1078999999762,1018.6078999999762,1018.6078999999762,1020.3577999999524,1514,1020.3577999999524,4,1020.3580000000001,4,4,124,8,1,1.4,0.7,Time
,,820531,001,男,20,2025-06-04_17h46.37.523,Serial_Dependence_U,2023.2.3,Win32,142.85714285714286,,,,,,1020.3581999999882,343,4,1020.3582999999522,343,,,,1023.7050999999643,1024.2047999999522,1023.1981999999881,1023.705,1021.364899999976,1023.1980999999643,1024.2047999999522,1024.704899999976,1024.704899999976,1026.045199999988,1125,1026.045199999988,5,1026.0455,4,5,125,5,1,0.8,0.7,Time
,,820531,001,男,20,2025-06-04_17h46.37.523,Serial_Dependence_U,2023.2.3,Win32,142.85714285714286,,,,,,1026.045699999988,265,4,1026.0457999999521,265,,,,1030.225899999976,1030.7207999999523,1029.718899999976,1030.225899999976,1027.052199999988,1029.7187999999521,1030.7207999999523,1031.220699999988,1031.220699999988,1032.6174999999998,1139,1032.6174999999998,2,1032.617599999964,4,6,126,24,1,1.6,0.3,Time
,,820531,001,男,20,2025-06-04_17h46.37.523,Serial_Dependence_U,2023.2.3,Win32,142.85714285714286,,,,,,1032.6177999999522,279,4,1032.6177999999522,279,,,,1036.760399999976,1037.260099999964,1036.253299999952,1036.7602999999522,1033.6215,1036.253299999952,1037.260099999964,1037.760099999964,1037.760099999964,1039.579599999964,1579,1039.579599999964,3,1039.579699999988,4,7,127,29,1,1.6,0.7,Time
,,820531,001,男,20,2025-06-04_17h46.37.523,Serial_Dependence_U,2023.2.3,Win32,142.85714285714286,,,,,,1039.579899999976,15,4,1039.579899999976,15,,,,1043.5532999999523,1044.051599999964,1043.049,1043.5532999999523,1040.5865999999642,1043.0488999999761,1044.051599999964,1044.5514999999998,1044.5514999999998,1046.5845,1195,1046.5845999999642,2,1046.584699999988,4,8,128,23,1,1.4,0.3,Time
,,820531,001,男,20,2025-06-04_17h46.37.523,Serial_Dependence_U,2023.2.3,Win32,142.85714285714286,,,,,,1046.584899999976,276,4,1046.5849999999998,276,,,,1050.725199999988,1051.225,1050.222,1050.725199999988,1047.5855999999642,1050.222,1051.225,1051.7209999999998,1051.721099999964,1053.523699999988,1559,1053.523699999988,3,1053.5237999999522,4,9,129,9,1,1.6,0.7,Time
,,820531,001,男,20,2025-06-04_17h46.37.523,Serial_Dependence_U,2023.2.3,Win32,142.85714285714286,,,,,,1053.524,152,4,1053.5240999999642,152,,,,1056.8932999999522,1057.3915999999642,1056.3848999999761,1056.8932999999522,1054.523699999988,1056.3847999999523,1057.3915999999642,1057.8915999999642,1057.8915999999642,1059.1695,1017,1059.1695,4,1059.169599999964,4,10,130,0,1,0.8,0.3,Time
,,820531,001,男,20,2025-06-04_17h46.37.523,Serial_Dependence_U,2023.2.3,Win32,142.85714285714286,,,,,,1059.1697999999521,102,4,1059.1697999999521,102,,,,1062.940199999988,1063.4399999999998,1062.4377999999522,1062.940099999964,1060.1719999999998,1062.437699999988,1063.4399999999998,1063.9399999999998,1063.9399999999998,1065.3567999999523,1213,1065.3567999999523,3,1065.357,4,11,131,12,1,1.2,0.3,Time
,,820531,001,男,20,2025-06-04_17h46.37.523,Serial_Dependence_U,2023.2.3,Win32,142.85714285714286,,,,,,1065.357099999964,258,4,1065.3571999999879,258,,,,1068.704,1069.203699999988,1068.197,1068.703899999976,1066.363699999988,1068.197,1069.203699999988,1069.7060999999642,1069.7060999999642,1071.0350999999641,1180,1071.035199999988,5,1071.0352999999523,4,12,132,25,1,0.8,0.7,Time
,,820531,001,男,20,2025-06-04_17h46.37.523,Serial_Dependence_U,2023.2.3,Win32,142.85714285714286,,,,,,1071.0355,67,4,1071.0355999999642,67,,,,1074.609599999964,1075.1062999999522,1074.099699999988,1074.6094999999998,1072.037199999988,1074.099699999988,1075.1062999999522,1075.606399999976,1075.606399999976,1077.127199999988,833,1077.127199999988,2,1077.127399999976,4,13,133,21,1,1,0.3,Time
,,820531,001,男,20,2025-06-04_17h46.37.523,Serial_Dependence_U,2023.2.3,Win32,142.85714285714286,,,,,,1077.127599999964,215,4,1077.127699999988,215,,,,1081.071599999964,1081.571599999964,1080.5675999999642,1081.071599999964,1078.134199999988,1080.5674999999999,1081.571599999964,1082.071399999976,1082.0714999999998,1083.613099999964,1348,1083.613099999964,3,1083.613199999988,4,14,134,28,1,1.4,0.7,Time
,,820531,001,男,20,2025-06-04_17h46.37.523,Serial_Dependence_U,2023.2.3,Win32,142.85714285714286,,,,,,1083.613399999976,104,4,1083.6135,104,,,,1086.988199999988,1087.4879999999998,1086.481199999988,1086.988099999964,1084.620199999988,1086.481199999988,1087.488099999964,1087.9879999999998,1087.9879999999998,1089.1615999999642,902,1089.1615999999642,4,1089.161899999976,4,15,135,10,1,0.8,0.3,Time
,,820531,001,男,20,2025-06-04_17h46.37.523,Serial_Dependence_U,2023.2.3,Win32,142.85714285714286,,,,,,1089.1619999999998,221,4,1089.1619999999998,221,,,,1092.508899999976,1093.0087999999523,1092.0065999999642,1092.508899999976,1090.168699999988,1092.0065,1093.0087999999523,1093.508699999988,1093.508699999988,1094.6615999999642,915,1094.6615999999642,4,1094.661699999988,4,16,136,15,1,0.8,0.7,Time
,,820531,001,男,20,2025-06-04_17h46.37.523,Serial_Dependence_U,2023.2.3,Win32,142.85714285714286,,,,,,1094.6619999999998,145,4,1094.6619999999998,145,,,,1098.198899999976,1098.698199999988,1097.692199999988,1098.198899999976,1095.661699999988,1097.6919999999998,1098.698199999988,1099.1982999999523,1099.1982999999523,1100.868199999988,1329,1100.8682999999521,5,1100.868399999976,4,17,137,16,1,1,0.7,Time
,,820531,001,男,20,2025-06-04_17h46.37.523,Serial_Dependence_U,2023.2.3,Win32,142.85714285714286,,,,,,1100.868599999964,305,4,1100.868599999964,305,,,,1105.0510999999642,1105.55,1104.545899999976,1105.051,1101.8767999999523,1104.5457999999521,1105.55,1106.05,1106.05,1107.411199999988,1156,1107.4112999999522,2,1107.411399999976,4,18,138,4,1,1.6,0.3,Time
,,820531,001,男,20,2025-06-04_17h46.37.523,Serial_Dependence_U,2023.2.3,Win32,142.85714285714286,,,,,,1107.4115999999642,294,4,1107.411699999988,294,,,,1111.5569999999998,1112.056799999952,1111.052899999976,1111.556899999976,1108.418199999988,1111.052899999976,1112.056799999952,1112.556799999952,1112.556799999952,1114.412699999988,1671,1114.412699999988,3,1114.412899999976,4,19,139,19,1,1.6,0.7,Time
,,820531,001,男,20,2025-06-04_17h46.37.523,Serial_Dependence_U,2023.2.3,Win32,142.85714285714286,,,,,,1114.4129999999998,282,4,1114.413099999964,282,,,,1117.952699999988,1118.452399999976,1117.4483999999761,1117.952699999988,1115.411099999964,1117.4482999999523,1118.452399999976,1118.9524999999999,1118.9524999999999,1120.6329999999998,1464,1120.633099999964,5,1120.6332999999522,4,20,140,26,1,1,0.7,Time
,,820531,001,男,20,2025-06-04_17h46.37.523,Serial_Dependence_U,2023.2.3,Win32,142.85714285714286,,,,,,1120.633399999976,195,4,1120.6335,195,,,,1124.376099999964,1124.876,1123.8722999999522,1124.376099999964,1121.6399999999999,1123.8720999999641,1124.876,1125.3765999999641,1125.3765999999641,1127.2263999999761,1568,1127.2263999999761,5,1127.2265,4,21,141,17,1,1.2,0.7,Time
,,820531,001,男,20,2025-06-04_17h46.37.523,Serial_Dependence_U,2023.2.3,Win32,142.85714285714286,,,,,,1127.2266999999879,261,4,1127.2267999999522,261,,,,1131.202399999976,1131.702099999964,1130.6954999999998,1131.202399999976,1128.230199999988,1130.695399999976,1131.702099999964,1132.202199999988,1132.2022999999522,1133.695199999988,1287,1133.695299999952,2,1133.695399999976,4,22,142,3,1,1.4,0.3,Time
,,820531,001,男,20,2025-06-04_17h46.37.523,Serial_Dependence_U,2023.2.3,Win32,142.85714285714286,,,,,,1133.695599999964,178,4,1133.695699999988,178,,,,1137.445299999952,1137.945,1136.9382999999523,1137.445299999952,1134.702199999988,1136.9382999999523,1137.945,1138.445,1138.4450999999642,1140.2366999999879,1602,1140.2366999999879,5,1140.236899999976,4,23,143,27,1,1.2,0.7,Time
,,820531,001,男,20,2025-06-04_17h46.37.523,Serial_Dependence_U,2023.2.3,Win32,142.85714285714286,,,,,,1140.2370999999641,233,4,1140.2370999999641,233,,,,1144.412199999988,1144.9100999999641,1143.910399999976,1144.412099999964,1141.2437999999522,1143.9102999999523,1144.910199999988,1145.4100999999641,1145.4100999999641,1146.9708999999762,1339,1146.9708999999762,2,1146.9709999999998,4,24,144,14,1,1.6,0.3,Time
,,820531,001,男,20,2025-06-04_17h46.37.523,Serial_Dependence_U,2023.2.3,Win32,142.85714285714286,,,,,,1146.971199999988,56,4,1146.971199999988,56,,,,1150.5142999999523,1151.0140999999642,1150.007399999976,1150.514199999988,1147.9754999999998,1150.0072999999522,1151.0140999999642,1151.5140999999642,1151.5140999999642,1153.042,1287,1153.042,4,1153.042199999988,4,25,145,6,1,1,0.7,Time
,,820531,001,男,20,2025-06-04_17h46.37.523,Serial_Dependence_U,2023.2.3,Win32,142.85714285714286,,,,,,1153.042399999976,94,4,1153.0424999999998,94,,,,1156.792,1157.291699999988,1156.2850999999641,1156.792,1154.049,1156.2849999999999,1157.2917999999522,1157.7917999999522,1157.7917999999522,1159.3542999999522,1333,1159.354399999976,4,1159.3545,4,26,146,7,1,1.2,0.7,Time
,,820531,001,男,20,2025-06-04_17h46.37.523,Serial_Dependence_U,2023.2.3,Win32,142.85714285714286,,,,,,1159.354699999988,46,4,1159.354799999952,46,,,,1162.9237999999523,1163.4235999999642,1162.416899999976,1162.923699999988,1160.354399999976,1162.416899999976,1163.4235999999642,1163.9235999999642,1163.9235999999642,1165.4515,1051,1165.4515,4,1165.4515999999642,4,27,147,11,1,1,0.3,Time
,,820531,001,男,20,2025-06-04_17h46.37.523,Serial_Dependence_U,2023.2.3,Win32,142.85714285714286,,,,,,1165.4517999999523,91,4,1165.4518999999761,91,,,,1169.229199999988,1169.728899999976,1168.7221999999879,1169.229099999964,1166.4582999999523,1168.722099999964,1169.7289999999998,1170.228899999976,1170.228899999976,1171.6119999999999,1132,1171.6120999999641,2,1171.612199999988,4,28,148,22,1,1.2,0.3,Time
,,820531,001,男,20,2025-06-04_17h46.37.523,Serial_Dependence_U,2023.2.3,Win32,142.85714285714286,,,,,,1171.612399999976,38,4,1171.6125,38,,,,1175.1873999999762,1175.6870999999642,1174.680399999976,1175.1872999999523,1172.618,1174.680399999976,1175.6870999999642,1176.1870999999642,1176.1870999999642,1177.312199999988,850,1177.312199999988,2,1177.3122999999523,4,29,149,1,1,1,0.3,Time
,,820531,001,男,20,2025-06-04_17h46.37.523,Serial_Dependence_U,2023.2.3,Win32,142.85714285714286,,,,,,1177.3125,277,5,1243.1437999999523,277,s,65.82530000001202,,1247.1229999999998,1247.6227999999521,1246.6161999999879,1247.1229999999998,1244.150899999976,1246.616099999964,1247.6227999999521,1248.1227999999521,1248.1227999999521,1249.5533999999761,1172,1249.5533999999761,2,1249.553599999964,5,0,150,23,1,1.4,0.3,Time
,,820531,001,男,20,2025-06-04_17h46.37.523,Serial_Dependence_U,2023.2.3,Win32,142.85714285714286,,,,,,1249.5537999999522,15,5,1249.554399999976,15,,,,1253.327,1253.826099999964,1252.8242999999522,1253.327,1250.560399999976,1252.8242999999522,1253.826099999964,1254.326399999976,1254.326399999976,1255.625699999988,1069,1255.6257999999523,2,1255.6258999999761,5,1,151,12,1,1.2,0.3,Time
,,820531,001,男,20,2025-06-04_17h46.37.523,Serial_Dependence_U,2023.2.3,Win32,142.85714285714286,,,,,,1255.626,187,5,1255.626,187,,,,1259.567099999964,1260.0669999999998,1259.0629999999999,1259.5669999999998,1256.6254999999999,1259.0629999999999,1260.0669999999998,1260.5668999999762,1260.5669999999998,1262.334099999964,1506,1262.334199999988,4,1262.3342999999522,5,2,152,8,1,1.4,0.7,Time
,,820531,001,男,20,2025-06-04_17h46.37.523,Serial_Dependence_U,2023.2.3,Win32,142.85714285714286,,,,,,1262.334399999976,179,5,1262.3345,179,,,,1266.31,1266.8097999999522,1265.8057999999521,1266.31,1263.3394999999998,1265.805699999988,1266.8097999999522,1267.3097999999522,1267.3097999999522,1268.715899999976,1220,1268.715899999976,2,1268.716,5,3,153,13,1,1.4,0.3,Time
,,820531,001,男,20,2025-06-04_17h46.37.523,Serial_Dependence_U,2023.2.3,Win32,142.85714285714286,,,,,,1268.716199999988,61,5,1268.716199999988,61,,,,1272.462699999988,1272.962399999976,1271.955699999988,1272.4625999999641,1269.7212999999522,1271.955599999964,1272.962399999976,1273.462399999976,1273.462399999976,1275.210899999976,1471,1275.210899999976,4,1275.2109999999998,5,4,154,7,1,1.2,0.7,Time
,,820531,001,男,20,2025-06-04_17h46.37.523,Serial_Dependence_U,2023.2.3,Win32,142.85714285714286,,,,,,1275.211199999988,100,5,1275.211199999988,100,,,,1278.990199999988,1279.4899999999998,1278.4832999999521,1278.990199999988,1276.221199999988,1278.483199999988,1279.4899999999998,1279.990099999964,1279.990099999964,1281.3997999999522,1162,1281.399899999976,3,1281.3999999999999,5,5,155,22,1,1.2,0.3,Time
,,820531,001,男,20,2025-06-04_17h46.37.523,Serial_Dependence_U,2023.2.3,Win32,142.85714285714286,,,,,,1281.4000999999641,46,5,1281.4000999999641,46,,,,1284.969399999976,1285.4689999999998,1284.462399999976,1284.969399999976,1282.3999999999999,1284.4622999999522,1285.469099999964,1285.969099999964,1285.969099999964,1287.0455999999642,829,1287.0455999999642,2,1287.045699999988,5,6,156,21,1,1,0.3,Time
,,820531,001,男,20,2025-06-04_17h46.37.523,Serial_Dependence_U,2023.2.3,Win32,142.85714285714286,,,,,,1287.045899999976,221,5,1287.0459999999998,221,,,,1291.024599999964,1291.5245,1290.517899999976,1291.024599999964,1288.052599999964,1290.517799999952,1291.5245,1292.0243999999761,1292.0243999999761,1293.5245,1294,1293.5245,2,1293.524699999988,5,7,157,3,1,1.4,0.3,Time
,,820531,001,男,20,2025-06-04_17h46.37.523,Serial_Dependence_U,2023.2.3,Win32,142.85714285714286,,,,,,1293.524899999976,245,5,1293.524899999976,245,,,,1297.6660999999642,1298.165399999976,1297.161799999952,1297.6660999999642,1294.524599999964,1297.161799999952,1298.165399999976,1298.6605999999642,1298.6605999999642,1300.434099999964,1459,1300.434099999964,2,1300.4341999999879,5,8,158,29,1,1.6,0.7,Time
,,820531,001,男,20,2025-06-04_17h46.37.523,Serial_Dependence_U,2023.2.3,Win32,142.85714285714286,,,,,,1300.434399999976,139,5,1300.434399999976,139,,,,1303.9859999999999,1304.4824999999998,1303.475699999988,1303.9859999999999,1301.441099999964,1303.475699999988,1304.4824999999998,1304.9824999999998,1304.9824999999998,1306.7185999999642,1516,1306.7185999999642,5,1306.7185999999642,5,9,159,6,1,1,0.7,Time
,,820531,001,男,20,2025-06-04_17h46.37.523,Serial_Dependence_U,2023.2.3,Win32,142.85714285714286,,,,,,1306.718899999976,46,5,1306.7189999999998,46,,,,1310.8990999999642,1311.398899999976,1310.395099999964,1310.8990999999642,1307.725599999964,1310.395,1311.398899999976,1311.899,1311.899,1313.433699999988,1327,1313.4337999999523,2,1313.4338999999761,5,10,160,14,1,1.6,0.3,Time
,,820531,001,男,20,2025-06-04_17h46.37.523,Serial_Dependence_U,2023.2.3,Win32,142.85714285714286,,,,,,1313.434099999964,94,5,1313.434099999964,94,,,,1317.572699999988,1318.0723999999761,1317.0684999999999,1317.572599999964,1314.4364999999998,1317.0684999999999,1318.0723999999761,1318.567699999988,1318.567699999988,1320.6280999999642,1847,1320.6280999999642,4,1320.628199999988,5,11,161,9,1,1.6,0.7,Time
,,820531,001,男,20,2025-06-04_17h46.37.523,Serial_Dependence_U,2023.2.3,Win32,142.85714285714286,,,,,,1320.628299999952,47,5,1320.628399999976,47,,,,1323.975199999988,1324.475,1323.4682999999523,1323.975199999988,1321.635,1323.468199999988,1324.475,1324.975,1324.975,1326.398699999988,1216,1326.398699999988,5,1326.398899999976,5,12,162,25,1,0.8,0.7,Time
,,820531,001,男,20,2025-06-04_17h46.37.523,Serial_Dependence_U,2023.2.3,Win32,142.85714285714286,,,,,,1326.3990999999642,188,5,1326.3990999999642,188,,,,1329.745899999976,1330.245699999988,1329.2389999999998,1329.7457999999522,1327.4057999999523,1329.2389999999998,1330.245699999988,1330.7457999999522,1330.745899999976,1332.0582999999522,1124,1332.058399999976,5,1332.058399999976,5,13,163,15,1,0.8,0.7,Time
,,820531,001,男,20,2025-06-04_17h46.37.523,Serial_Dependence_U,2023.2.3,Win32,142.85714285714286,,,,,,1332.058699999988,192,5,1332.058699999988,192,,,,1335.4054999999998,1335.9052999999521,1334.898699999988,1335.4054999999998,1333.0652999999522,1334.898599999964,1335.9052999999521,1336.4052999999521,1336.4052999999521,1337.655399999976,1041,1337.655399999976,5,1337.6555999999641,5,14,164,5,1,0.8,0.7,Time
,,820531,001,男,20,2025-06-04_17h46.37.523,Serial_Dependence_U,2023.2.3,Win32,142.85714285714286,,,,,,1337.655699999988,313,5,1337.6557999999523,313,,,,1341.4052999999521,1341.9051999999879,1340.898399999976,1341.4052999999521,1338.6625,1340.8982999999523,1341.9051999999879,1342.4051999999879,1342.4051999999879,1343.8703999999761,1303,1343.8703999999761,4,1343.870599999964,5,15,165,27,1,1.2,0.7,Time
,,820531,001,男,20,2025-06-04_17h46.37.523,Serial_Dependence_U,2023.2.3,Win32,142.85714285714286,,,,,,1343.8707999999522,81,5,1343.8707999999522,81,,,,1347.419199999988,1347.9187999999522,1346.912199999988,1347.4190999999641,1344.8774999999998,1346.912099999964,1347.9187999999522,1348.418899999976,1348.418899999976,1350.1757999999522,1467,1350.1757999999522,5,1350.176,5,16,166,26,1,1,0.7,Time
,,820531,001,男,20,2025-06-04_17h46.37.523,Serial_Dependence_U,2023.2.3,Win32,142.85714285714286,,,,,,1350.176199999988,239,5,1350.176199999988,239,,,,1353.7522999999521,1354.2520999999642,1353.2453999999761,1353.752199999988,1351.1828999999761,1353.2453999999761,1354.2520999999642,1354.752,1354.752,1355.995199999988,1010,1355.995199999988,3,1355.9952999999523,5,17,167,1,1,1,0.3,Time
,,820531,001,男,20,2025-06-04_17h46.37.523,Serial_Dependence_U,2023.2.3,Win32,142.85714285714286,,,,,,1355.9955,226,5,1355.995599999964,226,,,,1359.7414999999999,1360.2402999999522,1359.2382999999522,1359.741399999976,1357.0020999999642,1359.2382999999522,1360.2402999999522,1360.740199999988,1360.740199999988,1362.3893999999761,1349,1362.3893999999761,4,1362.3895,5,18,168,17,1,1.2,0.7,Time
,,820531,001,男,20,2025-06-04_17h46.37.523,Serial_Dependence_U,2023.2.3,Win32,142.85714285714286,,,,,,1362.389699999988,217,5,1362.3897999999522,217,,,,1365.7587999999523,1366.2587999999523,1365.254599999964,1365.7587999999523,1363.3905,1365.254599999964,1366.2587999999523,1366.7585999999642,1366.7585999999642,1367.935399999976,938,1367.9354999999998,4,1367.935599999964,5,19,169,0,1,0.8,0.3,Time
,,820531,001,男,20,2025-06-04_17h46.37.523,Serial_Dependence_U,2023.2.3,Win32,142.85714285714286,,,,,,1367.935699999988,204,5,1367.935699999988,204,,,,1372.0781999999879,1372.5778999999761,1371.5710999999642,1372.0781999999879,1368.9392999999523,1371.5710999999642,1372.5778999999761,1373.078,1373.078,1374.7862999999522,1509,1374.7862999999522,2,1374.786399999976,5,20,170,19,1,1.6,0.7,Time
,,820531,001,男,20,2025-06-04_17h46.37.523,Serial_Dependence_U,2023.2.3,Win32,142.85714285714286,,,,,,1374.7865999999642,112,5,1374.7865999999642,112,,,,1378.7307999999523,1379.2305999999642,1378.227599999964,1378.730699999988,1375.7879999999998,1378.2275,1379.2305999999642,1379.7305999999642,1379.7305999999642,1381.529199999988,1550,1381.5292999999522,4,1381.529399999976,5,21,171,28,1,1.4,0.7,Time
,,820531,001,男,20,2025-06-04_17h46.37.523,Serial_Dependence_U,2023.2.3,Win32,142.85714285714286,,,,,,1381.5295999999641,102,5,1381.529699999988,102,,,,1385.3,1385.7997999999523,1384.7930999999642,1385.299899999976,1382.529399999976,1384.7930999999642,1385.799899999976,1386.2997999999523,1386.2997999999523,1387.522199999988,1033,1387.522199999988,2,1387.522299999952,5,22,172,2,1,1.2,0.3,Time
,,820531,001,男,20,2025-06-04_17h46.37.523,Serial_Dependence_U,2023.2.3,Win32,142.85714285714286,,,,,,1387.5224999999998,318,5,1387.522599999964,318,,,,1390.890199999988,1391.389899999976,1390.383199999988,1390.8900999999641,1388.522199999988,1390.383199999988,1391.389899999976,1391.889899999976,1391.8899999999999,1392.9802999999522,847,1392.9802999999522,4,1392.9805,5,23,173,10,1,0.8,0.3,Time
,,820531,001,男,20,2025-06-04_17h46.37.523,Serial_Dependence_U,2023.2.3,Win32,142.85714285714286,,,,,,1392.9805999999642,32,5,1392.980699999988,32,,,,1396.5497999999523,1397.0495999999641,1396.042899999976,1396.5497999999523,1393.9805999999642,1396.042899999976,1397.0495999999641,1397.5494999999999,1397.5494999999999,1398.8758999999761,1086,1398.8758999999761,4,1398.8761999999879,5,24,174,11,1,1,0.3,Time
,,820531,001,男,20,2025-06-04_17h46.37.523,Serial_Dependence_U,2023.2.3,Win32,142.85714285714286,,,,,,1398.876399999976,263,5,1398.876399999976,263,,,,1402.424699999988,1402.924399999976,1401.917699999988,1402.4245999999641,1399.8829999999998,1401.917699999988,1402.9244999999999,1403.424399999976,1403.424399999976,1405.0494999999999,1326,1405.0494999999999,5,1405.049699999988,5,25,175,16,1,1,0.7,Time
,,820531,001,男,20,2025-06-04_17h46.37.523,Serial_Dependence_U,2023.2.3,Win32,142.85714285714286,,,,,,1405.049899999976,304,5,1405.049899999976,304,,,,1408.994,1409.493699999988,1408.4869999999999,1408.993899999976,1406.0565,1408.4869999999999,1409.493699999988,1409.993599999964,1409.993599999964,1411.952099999964,1744,1411.952099999964,4,1411.952199999988,5,26,176,18,1,1.4,0.7,Time
,,820531,001,男,20,2025-06-04_17h46.37.523,Serial_Dependence_U,2023.2.3,Win32,142.85714285714286,,,,,,1411.9524999999999,233,5,1411.9525999999641,233,,,,1416.1325999999642,1416.632399999976,1415.625699999988,1416.1325,1412.959199999988,1415.625699999988,1416.632399999976,1417.1322999999522,1417.1322999999522,1418.5282999999522,1223,1418.528399999976,2,1418.528399999976,5,27,177,4,1,1.6,0.3,Time
,,820531,001,男,20,2025-06-04_17h46.37.523,Serial_Dependence_U,2023.2.3,Win32,142.85714285714286,,,,,,1418.5285999999642,100,5,1418.528699999988,100,,,,1421.9032999999522,1422.403099999964,1421.3964999999998,1421.903199999988,1419.535399999976,1421.396399999976,1422.403099999964,1422.903099999964,1422.903099999964,1423.972899999976,763,1423.972899999976,3,1423.973,5,28,178,20,1,0.8,0.3,Time
,,820531,001,男,20,2025-06-04_17h46.37.523,Serial_Dependence_U,2023.2.3,Win32,142.85714285714286,,,,,,1423.9731999999879,221,5,1423.9732999999521,221,,,,1428.153099999964,1428.652899999976,1427.6460999999642,1428.153099999964,1424.9795999999642,1427.6460999999642,1428.6529999999998,1429.152899999976,1429.152899999976,1430.687699999988,1327,1430.687699999988,2,1430.687899999976,5,29,179,24,1,1.6,0.3,Time
,,820531,001,男,20,2025-06-04_17h46.37.523,Serial_Dependence_U,2023.2.3,Win32,142.85714285714286,,,,,,1430.687899999976,108,6,1433.9959999999999,108,s,3.302400000035732,,1437.5694999999998,1438.069399999976,1437.065399999976,1437.5694999999998,1435.000199999988,1437.065399999976,1438.069399999976,1438.5692999999521,1438.5692999999521,1439.8282999999522,955,1439.8282999999522,3,1439.828399999976,6,0,180,1,1,1,0.3,Time
,,820531,001,男,20,2025-06-04_17h46.37.523,Serial_Dependence_U,2023.2.3,Win32,142.85714285714286,,,,,,1439.8285999999641,225,6,1439.829199999988,225,,,,1443.773699999988,1444.2705999999641,1443.2669999999998,1443.773599999964,1440.8325,1443.2669999999998,1444.2705999999641,1444.7705999999641,1444.7705999999641,1446.451099999964,1425,1446.451199999988,3,1446.4512999999522,6,1,181,8,1,1.4,0.7,Time
,,820531,001,男,20,2025-06-04_17h46.37.523,Serial_Dependence_U,2023.2.3,Win32,142.85714285714286,,,,,,1446.4515,273,6,1446.4515999999642,273,,,,1450.201099999964,1450.7009999999998,1449.696899999976,1450.201099999964,1447.4580999999641,1449.696899999976,1450.7009999999998,1451.200899999976,1451.2009999999998,1453.1,1713,1453.1000999999642,5,1453.100199999988,6,2,182,27,1,1.2,0.7,Time
,,820531,001,男,20,2025-06-04_17h46.37.523,Serial_Dependence_U,2023.2.3,Win32,142.85714285714286,,,,,,1453.100399999976,284,6,1453.1004999999998,284,,,,1456.839899999976,1457.339599999964,1456.335699999988,1456.839899999976,1454.1037999999521,1456.335699999988,1457.339699999988,1457.839699999988,1457.839699999988,1459.568899999976,1468,1459.569,4,1459.5690999999642,6,3,183,17,1,1.2,0.7,Time
,,820531,001,男,20,2025-06-04_17h46.37.523,Serial_Dependence_U,2023.2.3,Win32,142.85714285714286,,,,,,1459.5692999999521,92,6,1459.5692999999521,92,,,,1463.7457999999522,1464.2422999999521,1463.238399999976,1463.7457999999522,1460.575899999976,1463.2382999999522,1464.242399999976,1464.742399999976,1464.742399999976,1466.1242999999522,1138,1466.1242999999522,2,1466.124399999976,6,4,184,14,1,1.6,0.3,Time
,,820531,001,男,20,2025-06-04_17h46.37.523,Serial_Dependence_U,2023.2.3,Win32,142.85714285714286,,,,,,1466.1245999999642,131,6,1466.124699999988,131,,,,1470.068699999988,1470.5684999999999,1469.5642999999523,1470.0685999999641,1467.1312999999523,1469.564199999988,1470.5685999999641,1471.0684999999999,1471.0685999999641,1472.6125,1297,1472.6125,2,1472.6125999999642,6,5,185,28,1,1.4,0.7,Time
,,820531,001,男,20,2025-06-04_17h46.37.523,Serial_Dependence_U,2023.2.3,Win32,142.85714285714286,,,,,,1472.6126999999879,132,6,1472.6127999999521,132,,,,1476.3880999999642,1476.8877999999522,1475.883399999976,1476.388,1473.6171999999879,1475.883399999976,1476.8877999999522,1477.387899999976,1477.387899999976,1478.668899999976,1053,1478.668899999976,2,1478.6690999999641,6,6,186,22,1,1.2,0.3,Time
,,820531,001,男,20,2025-06-04_17h46.37.523,Serial_Dependence_U,2023.2.3,Win32,142.85714285714286,,,,,,1478.669199999988,34,6,1478.6693999999761,34,,,,1482.6447999999523,1483.1445999999642,1482.137899999976,1482.6447999999523,1479.6725999999642,1482.1377999999522,1483.1445999999642,1483.6445999999642,1483.6445999999642,1485.2904999999998,1382,1485.2904999999998,3,1485.2905999999641,6,7,187,13,1,1.4,0.3,Time
,,820531,001,男,20,2025-06-04_17h46.37.523,Serial_Dependence_U,2023.2.3,Win32,142.85714285714286,,,,,,1485.2907999999522,209,6,1485.2907999999522,209,,,,1489.4709999999998,1489.970699999988,1488.9640999999642,1489.4708999999762,1486.2975,1488.9640999999642,1489.9707999999523,1490.4707999999523,1490.4707999999523,1492.498799999952,1494,1492.498799999952,2,1492.498899999976,6,8,188,24,1,1.6,0.3,Time
,,820531,001,男,20,2025-06-04_17h46.37.523,Serial_Dependence_U,2023.2.3,Win32,142.85714285714286,,,,,,1492.4989999999998,357,6,1492.4989999999998,357,,,,1495.873699999988,1496.373399999976,1495.3667999999523,1495.8735999999642,1493.505599999964,1495.366699999988,1496.373399999976,1496.873399999976,1496.873399999976,1498.0817999999522,938,1498.081899999976,4,1498.0819999999999,6,9,189,10,1,0.8,0.3,Time
,,820531,001,男,20,2025-06-04_17h46.37.523,Serial_Dependence_U,2023.2.3,Win32,142.85714285714286,,,,,,1498.0820999999642,6,6,1498.082199999988,6,,,,1501.6582999999523,1502.158,1501.1512999999522,1501.6582999999523,1499.0887999999522,1501.1512999999522,1502.158,1502.658,1502.658,1504.3735,1398,1504.3735,5,1504.3735999999642,6,10,190,11,1,1,0.3,Time
,,820531,001,男,20,2025-06-04_17h46.37.523,Serial_Dependence_U,2023.2.3,Win32,142.85714285714286,,,,,,1504.373799999952,296,6,1504.373799999952,296,,,,1508.519099999964,1509.0189999999998,1508.0122999999521,1508.5189999999998,1505.3803999999761,1508.0122999999521,1509.0189999999998,1509.5189999999998,1509.5189999999998,1511.595399999976,1840,1511.595399999976,4,1511.5955999999642,6,11,191,29,1,1.6,0.7,Time
,,820531,001,男,20,2025-06-04_17h46.37.523,Serial_Dependence_U,2023.2.3,Win32,142.85714285714286,,,,,,1511.595699999988,139,6,1511.595699999988,139,,,,1515.7411999999879,1516.241,1515.234299999952,1515.7411999999879,1512.6023999999761,1515.234199999988,1516.241,1516.741,1516.741,1518.741,1769,1518.741,4,1518.7411999999879,6,12,192,19,1,1.6,0.7,Time
,,820531,001,男,20,2025-06-04_17h46.37.523,Serial_Dependence_U,2023.2.3,Win32,142.85714285714286,,,,,,1518.741399999976,192,6,1518.741399999976,192,,,,1522.886899999976,1523.3865999999641,1522.3800999999642,1522.886899999976,1519.748199999988,1522.3799999999999,1523.3865999999641,1523.8865999999641,1523.8865999999641,1525.5533999999761,1390,1525.5533999999761,2,1525.5535,6,13,193,9,1,1.6,0.7,Time
,,820531,001,男,20,2025-06-04_17h46.37.523,Serial_Dependence_U,2023.2.3,Win32,142.85714285714286,,,,,,1525.5536999999879,163,6,1525.5537999999522,163,,,,1529.299099999964,1529.798399999976,1528.792199999988,1529.299,1526.560399999976,1528.7920999999642,1529.7984999999999,1530.2985999999642,1530.2985999999642,1531.9280999999642,1405,1531.928199999988,4,1531.9282999999523,6,14,194,7,1,1.2,0.7,Time
,,820531,001,男,20,2025-06-04_17h46.37.523,Serial_Dependence_U,2023.2.3,Win32,142.85714285714286,,,,,,1531.9285,88,6,1531.928599999964,88,,,,1535.4767999999522,1535.976599999964,1534.972699999988,1535.4767999999522,1532.936899999976,1534.9725999999641,1535.976599999964,1536.4765,1536.4765,1538.046099999964,1303,1538.046099999964,5,1538.0462999999522,6,15,195,26,1,1,0.7,Time
,,820531,001,男,20,2025-06-04_17h46.37.523,Serial_Dependence_U,2023.2.3,Win32,142.85714285714286,,,,,,1538.0465,15,6,1538.0465999999642,15,,,,1541.9904999999999,1542.4902999999522,1541.4834999999998,1541.990399999976,1539.0530999999642,1541.483399999976,1542.4902999999522,1542.9902999999522,1542.990399999976,1544.8893999999761,1661,1544.8895,4,1544.8895,6,16,196,18,1,1.4,0.7,Time
,,820531,001,男,20,2025-06-04_17h46.37.523,Serial_Dependence_U,2023.2.3,Win32,142.85714285714286,,,,,,1544.889699999988,25,6,1544.8897999999522,25,,,,1548.861199999988,1549.357099999964,1548.354799999952,1548.8610999999642,1545.893199999988,1548.354699999988,1549.357099999964,1549.8568999999761,1549.8568999999761,1551.167,1021,1551.1670999999642,2,1551.167199999988,6,17,197,23,1,1.4,0.3,Time
,,820531,001,男,20,2025-06-04_17h46.37.523,Serial_Dependence_U,2023.2.3,Win32,142.85714285714286,,,,,,1551.167399999976,338,6,1551.167399999976,338,,,,1554.9305999999642,1555.4297999999521,1554.430399999976,1554.9305999999642,1552.1667999999522,1554.4302999999522,1555.4297999999521,1555.9299999999998,1555.9299999999998,1557.3135,1118,1557.313599999964,2,1557.313599999964,6,18,198,2,1,1.2,0.3,Time
,,820531,001,男,20,2025-06-04_17h46.37.523,Serial_Dependence_U,2023.2.3,Win32,142.85714285714286,,,,,,1557.3137999999522,87,6,1557.313899999976,87,,,,1560.8607999999522,1561.360199999988,1560.355199999988,1560.860699999988,1558.3191999999879,1560.355199999988,1561.360199999988,1561.86,1561.86,1563.416699999988,1271,1563.416699999988,4,1563.4167999999522,6,19,199,6,1,1,0.7,Time
,,820531,001,男,20,2025-06-04_17h46.37.523,Serial_Dependence_U,2023.2.3,Win32,142.85714285714286,,,,,,1563.416899999976,44,6,1563.417,44,,,,1566.753699999988,1567.253599999964,1566.2467999999521,1566.753699999988,1564.4162999999521,1566.2467999999521,1567.253599999964,1567.7534999999998,1567.7534999999998,1569.2357999999522,1160,1569.235899999976,5,1569.2359999999999,6,20,200,15,1,0.8,0.7,Time
,,820531,001,男,20,2025-06-04_17h46.37.523,Serial_Dependence_U,2023.2.3,Win32,142.85714285714286,,,,,,1569.2360999999642,266,6,1569.236199999988,266,,,,1573.204899999976,1573.704699999988,1572.700799999952,1573.2047999999522,1570.235599999964,1572.7005999999642,1573.704699999988,1574.204699999988,1574.204699999988,1575.791199999988,1305,1575.791199999988,2,1575.791399999976,6,21,201,3,1,1.4,0.3,Time
,,820531,001,男,20,2025-06-04_17h46.37.523,Serial_Dependence_U,2023.2.3,Win32,142.85714285714286,,,,,,1575.791599999964,250,6,1575.791699999988,250,,,,1579.135399999976,1579.635199999988,1578.6284999999998,1579.135399999976,1576.796899999976,1578.6284999999998,1579.635199999988,1580.135199999988,1580.1352999999522,1581.9338999999761,1410,1581.9338999999761,5,1581.934,6,22,202,25,1,0.8,0.7,Time
,,820531,001,男,20,2025-06-04_17h46.37.523,Serial_Dependence_U,2023.2.3,Win32,142.85714285714286,,,,,,1581.9341999999879,150,6,1581.9341999999879,150,,,,1585.3088999999761,1585.808699999988,1584.8020999999642,1585.3088999999761,1582.940899999976,1584.801899999976,1585.808699999988,1586.3087999999523,1586.3087999999523,1587.2044999999998,670,1587.204599999964,2,1587.204699999988,6,23,203,0,1,0.8,0.3,Time
,,820531,001,男,20,2025-06-04_17h46.37.523,Serial_Dependence_U,2023.2.3,Win32,142.85714285714286,,,,,,1587.205,0,6,1587.2050999999642,0,,,,1590.544899999976,1591.044599999964,1590.037899999976,1590.5447999999521,1588.206599999964,1590.0377999999523,1591.044599999964,1591.544599999964,1591.544599999964,1593.051699999988,1292,1593.051699999988,5,1593.0517999999522,6,24,204,5,1,0.8,0.7,Time
,,820531,001,男,20,2025-06-04_17h46.37.523,Serial_Dependence_U,2023.2.3,Win32,142.85714285714286,,,,,,1593.051899999976,14,6,1593.0520999999642,14,,,,1596.6002999999523,1597.1,1596.0932999999523,1596.600199999988,1594.058699999988,1596.093199999988,1597.1,1597.6000999999642,1597.600199999988,1599.1210999999641,1312,1599.1210999999641,5,1599.121199999988,6,25,205,16,1,1,0.7,Time
,,820531,001,男,20,2025-06-04_17h46.37.523,Serial_Dependence_U,2023.2.3,Win32,142.85714285714286,,,,,,1599.1215,114,6,1599.121599999964,114,,,,1602.4960999999641,1602.995699999988,1601.989099999964,1602.4959999999999,1600.128,1601.9889999999998,1602.995699999988,1603.4957999999522,1603.4957999999522,1604.9959999999999,1252,1604.9959999999999,5,1604.9960999999641,6,26,206,20,1,0.8,0.3,Time
,,820531,001,男,20,2025-06-04_17h46.37.523,Serial_Dependence_U,2023.2.3,Win32,142.85714285714286,,,,,,1604.9962999999523,260,6,1604.9963999999761,260,,,,1609.176299999952,1609.6760999999642,1608.6695,1609.176299999952,1606.0027999999522,1608.6693999999761,1609.6760999999642,1610.1760999999642,1610.1760999999642,1611.808199999988,1425,1611.808199999988,2,1611.808399999976,6,27,207,4,1,1.6,0.3,Time
,,820531,001,男,20,2025-06-04_17h46.37.523,Serial_Dependence_U,2023.2.3,Win32,142.85714285714286,,,,,,1611.8084999999999,141,6,1611.808699999988,141,,,,1615.3802999999523,1615.8797999999522,1614.8765999999641,1615.3802999999523,1612.815199999988,1614.8764999999999,1615.8797999999522,1616.379599999964,1616.379699999988,1617.7354999999998,1042,1617.7354999999998,3,1617.735599999964,6,28,208,21,1,1,0.3,Time
,,820531,001,男,20,2025-06-04_17h46.37.523,Serial_Dependence_U,2023.2.3,Win32,142.85714285714286,,,,,,1617.7357999999522,290,6,1617.735899999976,290,,,,1621.4995,1621.995199999988,1620.9885999999642,1621.499399999976,1618.728199999988,1620.9885,1621.995199999988,1622.4952999999523,1622.4952999999523,1623.988399999976,1150,1623.988399999976,3,1623.9885,6,29,209,12,1,1.2,0.3,Time
,,820531,001,男,20,2025-06-04_17h46.37.523,Serial_Dependence_U,2023.2.3,Win32,142.85714285714286,,,,,,1623.988699999988,176,7,1696.924,176,s,72.92919999998821,,1701.062899999976,1701.562699999988,1700.561899999976,1701.0627999999522,1697.931199999988,1700.5617999999522,1701.562699999988,1702.062599999964,1702.062599999964,1703.7917999999522,1529,1703.7917999999522,3,1703.792,7,0,210,9,1,1.6,0.7,Time
,,820531,001,男,20,2025-06-04_17h46.37.523,Serial_Dependence_U,2023.2.3,Win32,142.85714285714286,,,,,,1703.792199999988,96,7,1703.7927999999522,96,,,,1707.534899999976,1708.0346999999879,1707.030699999988,1707.5347999999522,1704.7988999999761,1707.0305999999641,1708.0346999999879,1708.5347999999522,1708.5347999999522,1710.2462999999523,1458,1710.2463999999761,4,1710.2463999999761,7,1,211,27,1,1.2,0.7,Time
,,820531,001,男,20,2025-06-04_17h46.37.523,Serial_Dependence_U,2023.2.3,Win32,142.85714285714286,,,,,,1710.246599999964,63,7,1710.2466999999879,63,,,,1713.8194999999998,1714.3191999999879,1713.3125,1713.819399999976,1711.250099999964,1713.3125,1714.3191999999879,1714.8192999999521,1714.8192999999521,1716.360899999976,1248,1716.360899999976,4,1716.3610999999642,7,2,212,11,1,1,0.3,Time
,,820531,001,男,20,2025-06-04_17h46.37.523,Serial_Dependence_U,2023.2.3,Win32,142.85714285714286,,,,,,1716.361199999988,305,7,1716.3613999999761,305,,,,1720.1317999999521,1720.6315,1719.6248999999762,1720.1317999999521,1717.3609999999999,1719.6247999999523,1720.6315,1721.1315,1721.1315999999642,1722.5968999999761,1244,1722.5968999999761,3,1722.597099999964,7,3,213,2,1,1.2,0.3,Time
,,820531,001,男,20,2025-06-04_17h46.37.523,Serial_Dependence_U,2023.2.3,Win32,142.85714285714286,,,,,,1722.5972999999522,69,7,1722.5972999999522,69,,,,1725.965,1726.4647999999522,1725.458199999988,1725.965,1723.597,1725.4580999999641,1726.4647999999522,1726.964699999988,1726.9647999999522,1728.1315,912,1728.1315,4,1728.1316999999879,7,4,214,20,1,0.8,0.3,Time
,,820531,001,男,20,2025-06-04_17h46.37.523,Serial_Dependence_U,2023.2.3,Win32,142.85714285714286,,,,,,1728.1317999999521,142,7,1728.131899999976,142,,,,1731.680099999964,1732.179899999976,1731.173199999988,1731.680099999964,1729.138599999964,1731.173099999964,1732.1799999999998,1732.679899999976,1732.679899999976,1734.179899999976,1272,1734.179899999976,4,1734.180099999964,7,5,215,6,1,1,0.7,Time
,,820531,001,男,20,2025-06-04_17h46.37.523,Serial_Dependence_U,2023.2.3,Win32,142.85714285714286,,,,,,1734.180199999988,313,7,1734.180399999976,313,,,,1738.159199999988,1738.6590999999642,1737.652199999988,1738.1590999999642,1735.187,1737.652099999964,1738.6590999999642,1739.1589999999999,1739.1589999999999,1740.9853999999762,1131,1740.9853999999762,2,1740.985599999964,7,6,216,3,1,1.4,0.3,Time
,,820531,001,男,20,2025-06-04_17h46.37.523,Serial_Dependence_U,2023.2.3,Win32,142.85714285714286,,,,,,1740.985699999988,6,7,1740.985899999976,6,,,,1744.9297999999521,1745.429599999964,1744.4227999999523,1744.9297999999521,1741.9922999999521,1744.422699999988,1745.4296999999879,1745.929599999964,1745.929599999964,1747.6517999999521,1513,1747.6517999999521,4,1747.6519999999998,7,7,217,28,1,1.4,0.7,Time
,,820531,001,男,20,2025-06-04_17h46.37.523,Serial_Dependence_U,2023.2.3,Win32,142.85714285714286,,,,,,1747.652099999964,257,7,1747.6522999999522,257,,,,1751.8325,1752.3320999999642,1751.3255,1751.8323999999761,1748.658899999976,1751.3255,1752.3320999999642,1752.832199999988,1752.832199999988,1754.7140999999642,1104,1754.714199999988,1,1754.7142999999521,7,8,218,4,1,1.6,0.3,Time
,,820531,001,男,20,2025-06-04_17h46.37.523,Serial_Dependence_U,2023.2.3,Win32,142.85714285714286,,,,,,1754.7144999999998,275,7,1754.714599999964,275,,,,1758.492,1758.991699999988,1757.985,1758.491899999976,1755.721099999964,1757.985,1758.991699999988,1759.491699999988,1759.4917999999523,1761.154699999988,1465,1761.154699999988,4,1761.1548999999761,7,9,219,22,1,1.2,0.3,Time
,,820531,001,男,20,2025-06-04_17h46.37.523,Serial_Dependence_U,2023.2.3,Win32,142.85714285714286,,,,,,1761.155,142,7,1761.155099999964,142,,,,1764.723699999988,1765.222899999976,1764.2170999999641,1764.723699999988,1762.1542999999522,1764.2169999999999,1765.222899999976,1765.723,1765.723,1766.7727999999522,712,1766.772899999976,2,1766.773,7,10,220,1,1,1,0.3,Time
,,820531,001,男,20,2025-06-04_17h46.37.523,Serial_Dependence_U,2023.2.3,Win32,142.85714285714286,,,,,,1766.773199999988,305,7,1766.773199999988,305,,,,1770.904199999988,1771.4010999999641,1770.404,1770.904199999988,1767.772199999988,1770.4038999999761,1771.4010999999641,1771.9010999999641,1771.9010999999641,1773.7730999999642,1646,1773.773199999988,3,1773.7732999999523,7,11,221,19,1,1.6,0.7,Time
,,820531,001,男,20,2025-06-04_17h46.37.523,Serial_Dependence_U,2023.2.3,Win32,142.85714285714286,,,,,,1773.7734999999998,229,7,1773.773599999964,229,,,,1777.7092999999522,1778.206599999964,1777.206899999976,1777.7092999999522,1774.7762999999522,1777.2067999999522,1778.206599999964,1778.7064999999998,1778.706599999964,1780.2305,1278,1780.2305,2,1780.2305999999642,7,12,222,8,1,1.4,0.7,Time
,,820531,001,男,20,2025-06-04_17h46.37.523,Serial_Dependence_U,2023.2.3,Win32,142.85714285714286,,,,,,1780.2307999999523,8,7,1780.2308999999761,8,,,,1784.171899999976,1784.6715999999642,1783.6648999999761,1784.171799999952,1781.234399999976,1783.6647999999523,1784.6715999999642,1785.1715999999642,1785.171699999988,1786.921699999988,1532,1786.921699999988,4,1786.921799999952,7,13,223,18,1,1.4,0.7,Time
,,820531,001,男,20,2025-06-04_17h46.37.523,Serial_Dependence_U,2023.2.3,Win32,142.85714285714286,,,,,,1786.9219999999998,49,7,1786.922099999964,49,,,,1790.296699999988,1790.7965,1789.7947999999521,1790.2965999999642,1787.928599999964,1789.7946999999879,1790.7965,1791.2965,1791.2965,1792.7324999999998,1176,1792.7325999999641,5,1792.7325999999641,7,14,224,0,1,0.8,0.3,Time
,,820531,001,男,20,2025-06-04_17h46.37.523,Serial_Dependence_U,2023.2.3,Win32,142.85714285714286,,,,,,1792.732899999976,346,7,1792.733,346,,,,1796.7131999999879,1797.213,1796.206199999988,1796.7131999999879,1793.741099999964,1796.206199999988,1797.213,1797.7128999999761,1797.7128999999761,1799.2060999999642,1260,1799.2060999999642,2,1799.2062999999523,7,15,225,23,1,1.4,0.3,Time
,,820531,001,男,20,2025-06-04_17h46.37.523,Serial_Dependence_U,2023.2.3,Win32,142.85714285714286,,,,,,1799.2064999999998,16,7,1799.206599999964,16,,,,1802.7824999999998,1803.282299999952,1802.275599999964,1802.7824999999998,1800.213099999964,1802.2755,1803.282299999952,1803.782299999952,1803.782299999952,1805.3517999999522,1327,1805.3517999999522,5,1805.351899999976,7,16,226,21,1,1,0.3,Time
,,820531,001,男,20,2025-06-04_17h46.37.523,Serial_Dependence_U,2023.2.3,Win32,142.85714285714286,,,,,,1805.3520999999641,348,7,1805.3520999999641,348,,,,1809.321599999964,1809.821,1808.812899999976,1809.3214999999998,1806.351899999976,1808.8127999999522,1809.821,1810.320699999988,1810.3207999999522,1811.8549999999998,1271,1811.855099999964,2,1811.855199999988,7,17,227,13,1,1.4,0.3,Time
,,820531,001,男,20,2025-06-04_17h46.37.523,Serial_Dependence_U,2023.2.3,Win32,142.85714285714286,,,,,,1811.8552999999522,133,7,1811.8555,133,,,,1815.1987999999521,1815.698599999964,1814.694699999988,1815.1986999999879,1812.8584999999998,1814.694699999988,1815.698599999964,1816.198599999964,1816.198599999964,1817.456199999988,1050,1817.456199999988,5,1817.4562999999523,7,18,228,25,1,0.8,0.7,Time
,,820531,001,男,20,2025-06-04_17h46.37.523,Serial_Dependence_U,2023.2.3,Win32,142.85714285714286,,,,,,1817.4563999999762,219,7,1817.4564999999998,219,,,,1820.8027999999522,1821.302599999964,1820.2959999999998,1820.8027999999522,1818.4625999999641,1820.295899999976,1821.302599999964,1821.802599999964,1821.802699999988,1823.240199999988,1215,1823.2402999999522,5,1823.240399999976,7,19,229,5,1,0.8,0.7,Time
,,820531,001,男,20,2025-06-04_17h46.37.523,Serial_Dependence_U,2023.2.3,Win32,142.85714285714286,,,,,,1823.2405999999642,179,7,1823.2405999999642,179,,,,1826.5874999999999,1827.087199999988,1826.0830999999641,1826.587399999976,1824.248799999952,1826.0830999999641,1827.0872999999522,1827.587199999988,1827.5872999999522,1829.069599999964,1271,1829.069599999964,5,1829.069699999988,7,20,230,15,1,0.8,0.7,Time
,,820531,001,男,20,2025-06-04_17h46.37.523,Serial_Dependence_U,2023.2.3,Win32,142.85714285714286,,,,,,1829.069899999976,15,7,1829.0700999999642,15,,,,1833.2469999999998,1833.7466999999879,1832.7399999999998,1833.2469999999998,1830.0735,1832.739899999976,1833.7466999999879,1834.2467999999521,1834.2467999999521,1835.989899999976,1499,1835.989899999976,2,1835.9899999999998,7,21,231,14,1,1.6,0.3,Time
,,820531,001,男,20,2025-06-04_17h46.37.523,Serial_Dependence_U,2023.2.3,Win32,142.85714285714286,,,,,,1835.990199999988,182,7,1835.9902999999522,182,,,,1839.739899999976,1840.239699999988,1839.233,1839.7397999999523,1836.9969999999998,1839.233,1840.239699999988,1840.7395999999642,1840.7395999999642,1842.489699999988,1484,1842.489699999988,4,1842.489899999976,7,22,232,7,1,1.2,0.7,Time
,,820531,001,男,20,2025-06-04_17h46.37.523,Serial_Dependence_U,2023.2.3,Win32,142.85714285714286,,,,,,1842.490099999964,147,7,1842.490099999964,147,,,,1846.038399999976,1846.538099999964,1845.531399999976,1846.0382999999522,1843.4967999999521,1845.531399999976,1846.538199999988,1847.038199999988,1847.038199999988,1848.579899999976,1329,1848.579899999976,5,1848.58,7,23,233,16,1,1,0.7,Time
,,820531,001,男,20,2025-06-04_17h46.37.523,Serial_Dependence_U,2023.2.3,Win32,142.85714285714286,,,,,,1848.580299999952,218,7,1848.580399999976,218,,,,1852.7604999999999,1853.260199999988,1852.253399999976,1852.760399999976,1849.587,1852.253299999952,1853.260199999988,1853.760199999988,1853.760199999988,1855.454699999988,1532,1855.454699999988,3,1855.454899999976,7,24,234,24,1,1.6,0.3,Time
,,820531,001,男,20,2025-06-04_17h46.37.523,Serial_Dependence_U,2023.2.3,Win32,142.85714285714286,,,,,,1855.455,88,7,1855.4550999999642,88,,,,1859.2005,1859.699699999988,1858.6977999999522,1859.2005,1856.4617999999523,1858.697699999988,1859.699699999988,1860.1999999999998,1860.1999999999998,1861.8677999999522,1410,1861.8677999999522,4,1861.867899999976,7,25,235,17,1,1.2,0.7,Time
,,820531,001,男,20,2025-06-04_17h46.37.523,Serial_Dependence_U,2023.2.3,Win32,142.85714285714286,,,,,,1861.8680999999642,195,7,1861.8684999999998,195,,,,1865.4057999999523,1865.905699999988,1864.9038999999761,1865.405699999988,1862.8671999999879,1864.9037999999523,1865.905699999988,1866.405699999988,1866.405699999988,1868.4335999999641,1358,1868.4335999999641,5,1868.4337999999523,7,26,236,26,1,1,0.7,Time
,,820531,001,男,20,2025-06-04_17h46.37.523,Serial_Dependence_U,2023.2.3,Win32,142.85714285714286,,,,,,1868.434,329,7,1868.434099999964,329,,,,1871.8084999999999,1872.3082999999522,1871.301699999988,1871.8084999999999,1869.4405,1871.301599999964,1872.3082999999522,1872.8082999999522,1872.8082999999522,1873.961099999964,868,1873.961199999988,4,1873.961399999976,7,27,237,10,1,0.8,0.3,Time
,,820531,001,男,20,2025-06-04_17h46.37.523,Serial_Dependence_U,2023.2.3,Win32,142.85714285714286,,,,,,1873.9615999999642,213,7,1873.9615999999642,213,,,,1877.7389999999998,1878.238699999988,1877.232,1877.738899999976,1874.9680999999641,1877.232,1878.238699999988,1878.738699999988,1878.738699999988,1880.287399999976,1340,1880.287399999976,4,1880.2875999999642,7,28,238,12,1,1.2,0.3,Time
,,820531,001,男,20,2025-06-04_17h46.37.523,Serial_Dependence_U,2023.2.3,Win32,142.85714285714286,,,,,,1880.2877999999523,80,7,1880.287899999976,80,,,,1884.4290999999641,1884.9282999999523,1883.9219999999998,1884.4289999999999,1881.290399999976,1883.9219999999998,1884.9282999999523,1885.428199999988,1885.4282999999523,1887.200199999988,1521,1887.2002999999522,3,1887.2002999999522,7,29,239,29,1,1.6,0.7,Time
,,820531,001,男,20,2025-06-04_17h46.37.523,Serial_Dependence_U,2023.2.3,Win32,142.85714285714286,,,,,,1887.200399999976,350,8,1942.702399999976,350,s,55.492499999999836,,1946.0496999999878,1946.5493999999762,1945.5426999999881,1946.049599999964,1943.709399999976,1945.5425999999643,1946.5493999999762,1947.0495,1947.0495,1948.320299999952,1056,1948.320399999976,5,1948.3204999999998,8,0,240,25,1,0.8,0.7,Time
,,820531,001,男,20,2025-06-04_17h46.37.523,Serial_Dependence_U,2023.2.3,Win32,142.85714285714286,,,,,,1948.320699999988,346,8,1948.3213999999762,346,,,,1952.2926999999881,1952.7923999999762,1951.785699999988,1952.2925999999643,1949.322899999976,1951.7855999999642,1952.7923999999762,1953.2922999999523,1953.2922999999523,1954.7160999999642,1213,1954.7160999999642,2,1954.7162999999523,8,1,241,3,1,1.4,0.3,Time
,,820531,001,男,20,2025-06-04_17h46.37.523,Serial_Dependence_U,2023.2.3,Win32,142.85714285714286,,,,,,1954.7163999999761,333,8,1954.7165,333,,,,1958.889599999964,1959.389399999976,1958.382799999952,1958.889599999964,1955.7160999999642,1958.3826999999878,1959.389399999976,1959.889399999976,1959.889399999976,1961.4242999999524,1140,1961.4242999999524,2,1961.4245,8,2,242,24,1,1.6,0.3,Time
,,820531,001,男,20,2025-06-04_17h46.37.523,Serial_Dependence_U,2023.2.3,Win32,142.85714285714286,,,,,,1961.424599999964,62,8,1961.4246999999878,62,,,,1965.000599999964,1965.5003999999763,1964.4935999999643,1965.0005,1962.4311999999882,1964.4935999999643,1965.5003999999763,1966.0003999999763,1966.0005,1967.4867999999524,1223,1967.4867999999524,4,1967.4868999999762,8,3,243,21,1,1,0.3,Time
,,820531,001,男,20,2025-06-04_17h46.37.523,Serial_Dependence_U,2023.2.3,Win32,142.85714285714286,,,,,,1967.487099999964,229,8,1967.4871999999878,229,,,,1971.6253999999763,1972.1252999999524,1971.121299999952,1971.6252999999524,1968.4865999999643,1971.1211999999878,1972.1252999999524,1972.6251999999881,1972.6251999999881,1974.4446999999882,1594,1974.4446999999882,3,1974.444799999952,8,4,244,19,1,1.6,0.7,Time
,,820531,001,男,20,2025-06-04_17h46.37.523,Serial_Dependence_U,2023.2.3,Win32,142.85714285714286,,,,,,1974.4449999999997,359,8,1974.445099999964,359,,,,1977.7844999999998,1978.2847999999522,1977.283199999988,1977.784399999976,1975.4516999999878,1977.2830999999642,1978.2847999999522,1978.7846999999879,1978.7846999999879,1980.4792999999522,1272,1980.4792999999522,5,1980.479399999976,8,5,245,15,1,0.8,0.7,Time
,,820531,001,男,20,2025-06-04_17h46.37.523,Serial_Dependence_U,2023.2.3,Win32,142.85714285714286,,,,,,1980.4795999999642,297,8,1980.479699999988,297,,,,1984.6250999999643,1985.1248999999762,1984.1180999999642,1984.625,1981.486199999988,1984.118,1985.1248999999762,1985.6248999999762,1985.6248999999762,1987.465299999952,1575,1987.465299999952,3,1987.4654999999998,8,6,246,29,1,1.6,0.7,Time
,,820531,001,男,20,2025-06-04_17h46.37.523,Serial_Dependence_U,2023.2.3,Win32,142.85714285714286,,,,,,1987.465599999964,318,8,1987.465699999988,318,,,,1991.215099999964,1991.7149999999997,1990.7081999999878,1991.215099999964,1988.4721999999879,1990.708099999964,1991.7149999999997,1992.2149999999997,1992.2149999999997,1993.7635999999643,1324,1993.7636999999881,4,1993.7637999999524,8,7,247,7,1,1.2,0.7,Time
,,820531,001,男,20,2025-06-04_17h46.37.523,Serial_Dependence_U,2023.2.3,Win32,142.85714285714286,,,,,,1993.7639999999997,0,8,1993.764099999964,0,,,,1997.110899999976,1997.610699999988,1996.6039999999998,1997.1107999999522,1994.770599999964,1996.603899999976,1997.610699999988,1998.110599999964,1998.110699999988,1999.3536999999878,1012,1999.3536999999878,4,1999.353899999976,8,8,248,5,1,0.8,0.7,Time
,,820531,001,男,20,2025-06-04_17h46.37.523,Serial_Dependence_U,2023.2.3,Win32,142.85714285714286,,,,,,1999.354099999964,25,8,1999.354199999988,25,,,,2003.2982999999522,2003.798099999964,2002.7912999999521,2003.298199999988,2000.3607999999522,2002.7912999999521,2003.798099999964,2004.293299999952,2004.293299999952,2006.176199999988,1451,2006.176199999988,3,2006.1762999999523,8,9,249,28,1,1.4,0.7,Time
,,820531,001,男,20,2025-06-04_17h46.37.523,Serial_Dependence_U,2023.2.3,Win32,142.85714285714286,,,,,,2006.1765,264,8,2006.1765999999643,264,,,,2009.9465999999643,2010.446,2009.439699999988,2009.9465,2007.175899999976,2009.439699999988,2010.446,2010.949599999964,2010.949599999964,2012.4260999999642,1174,2012.426199999988,3,2012.4262999999523,8,10,250,22,1,1.2,0.3,Time
,,820531,001,男,20,2025-06-04_17h46.37.523,Serial_Dependence_U,2023.2.3,Win32,142.85714285714286,,,,,,2012.4263999999762,158,8,2012.4265,158,,,,2015.800699999988,2016.2998999999759,2015.293899999976,2015.800699999988,2013.432699999988,2015.293899999976,2016.2998999999759,2016.7999999999997,2016.7999999999997,2017.9085999999643,837,2017.9085999999643,3,2017.9085999999643,8,11,251,0,1,0.8,0.3,Time
,,820531,001,男,20,2025-06-04_17h46.37.523,Serial_Dependence_U,2023.2.3,Win32,142.85714285714286,,,,,,2017.9087999999524,308,8,2017.9088999999763,308,,,,2021.849099999964,2022.3460999999643,2021.3463999999763,2021.849099999964,2018.910699999988,2021.3462999999524,2022.3461999999881,2022.8460999999643,2022.8460999999643,2024.981099999964,1754,2024.981199999988,4,2024.9812999999522,8,12,252,8,1,1.4,0.7,Time
,,820531,001,男,20,2025-06-04_17h46.37.523,Serial_Dependence_U,2023.2.3,Win32,142.85714285714286,,,,,,2024.9814999999999,352,8,2024.9814999999999,352,,,,2028.526699999988,2029.0265,2028.0248999999762,2028.526699999988,2025.985099999964,2028.0248999999762,2029.0265,2029.526699999988,2029.526699999988,2030.8282999999524,1080,2030.8282999999524,4,2030.8283999999762,8,13,253,6,1,1,0.7,Time
