Scale_setup.started,Scale_setup.stopped,participant,session,sex,age,date,expName,psychopyVersion,OS,frameRate,Intro.started,Intro.stopped,key_resp_2.keys,key_resp_2.rt,key_resp_2.duration,block.started,direction,Block_id,block.stopped,trial_direction,Block_resp_2.keys,Block_resp_2.rt,Block_resp_2.duration,ITI.started,ITI.stopped,Mask_2.started,Mask_2.stopped,encoding.started,encoding.stopped,Cue.started,Cue.stopped,Response.started,Response.stopped,keyDuration,Feedback_Time.started,FeedbackID_T,Feedback_Time.stopped,trials.thisRepN,trials.thisTrialN,trials.thisN,trials.thisIndex,trials.ran,TimeDur,Coherence1,TrialType
0.0001999999880792913,0.0001999999880792913,828098,001,m,20,2025-06-02_16h16.14.015,Serial_Dependence_U,2023.2.3,Win32,243.9024390243686,,,,,,,,,,,,,,,,,,,,,,,,,,,,,,,,,,,
,,828098,001,m,20,2025-06-02_16h16.14.015,Serial_Dependence_U,2023.2.3,Win32,243.9024390243686,22.160400000005957,95.48859999999404,space,73.30770000001787,,,,,,,,,,,,,,,,,,,,,,,,,,,,,,,
,,828098,001,m,20,2025-06-02_16h16.14.015,Serial_Dependence_U,2023.2.3,Win32,243.9024390243686,,,,,,95.491,304,0,97.03279999998212,304,s,1.5326999999880826,,100.99969999998808,101.50029999998212,100.49740000000597,100.99959999999405,98.03440000000596,100.49729999998212,101.50029999998212,101.99940000000596,101.99940000000596,103.86219999998808,1393,103.86219999998808,3,104.862,0,0,0,23,1,1.4,0.3,Time
,,828098,001,m,20,2025-06-02_16h16.14.015,Serial_Dependence_U,2023.2.3,Win32,243.9024390243686,,,,,,104.86219999998808,171,0,104.86269999998808,171,,,,108.59959999999404,109.09929999998212,108.09719999998808,108.59940000000596,105.86640000000597,108.09709999999404,109.09929999998212,109.59669999998808,109.59669999998808,111.45969999998808,1575,111.45979999998212,5,112.45759999999404,0,1,1,27,1,1.2,0.7,Time
,,828098,001,m,20,2025-06-02_16h16.14.015,Serial_Dependence_U,2023.2.3,Win32,243.9024390243686,,,,,,112.45779999998211,196,0,112.45779999998211,196,,,,116.19740000000596,116.695,115.69590000000596,116.19719999998807,113.46379999998211,115.69579999998211,116.695,117.19509999999404,117.19509999999404,118.76759999999403,1121,118.76759999999403,2,119.76579999998212,0,2,2,17,1,1.2,0.7,Time
,,828098,001,m,20,2025-06-02_16h16.14.015,Serial_Dependence_U,2023.2.3,Win32,243.9024390243686,,,,,,119.766,105,0,119.766,105,,,,123.30869999998808,123.80640000000597,122.80419999998807,123.30850000000001,120.76690000000596,122.804,123.80640000000597,124.30729999998212,124.30740000000597,125.88229999998211,1085,125.88229999998211,4,126.88240000000596,0,3,3,26,1,1,0.7,Time
,,828098,001,m,20,2025-06-02_16h16.14.015,Serial_Dependence_U,2023.2.3,Win32,243.9024390243686,,,,,,126.8825,70,0,126.88259999999403,70,,,,130.651,131.14869999998808,130.14690000000596,130.65079999998213,127.88440000000597,130.1467999999821,131.14879999998212,131.64879999998212,131.64879999998212,133.055,992,133.055,2,134.05290000000596,0,4,4,12,1,1.2,0.3,Time
,,828098,001,m,20,2025-06-02_16h16.14.015,Serial_Dependence_U,2023.2.3,Win32,243.9024390243686,,,,,,134.053,139,0,134.05309999999403,139,,,,137.9955,138.49559999999403,137.49259999999404,137.9952999999821,135.05709999999405,137.49240000000597,138.49559999999403,138.9945,138.9945,140.696,1349,140.696,3,141.6941999999881,0,5,5,28,1,1.4,0.7,Time
,,828098,001,m,20,2025-06-02_16h16.14.015,Serial_Dependence_U,2023.2.3,Win32,243.9024390243686,,,,,,141.6945,328,0,141.69459999999404,328,,,,145.26290000000597,145.76090000000596,144.75909999999405,145.26259999999405,142.6965,144.75879999998213,145.76090000000596,146.261,146.26109999999403,147.91509999999403,1185,147.9151999999881,4,148.915,0,6,6,11,1,1,0.3,Time
,,828098,001,m,20,2025-06-02_16h16.14.015,Serial_Dependence_U,2023.2.3,Win32,243.9024390243686,,,,,,148.9151999999881,331,0,148.9151999999881,331,,,,152.2481999999881,152.74840000000597,151.74429999998213,152.24809999999405,149.913,151.74419999998807,152.74840000000597,153.24829999998212,153.24829999998212,154.91069999998808,1412,154.91069999998808,5,155.9105,0,7,7,5,1,0.8,0.7,Time
,,828098,001,m,20,2025-06-02_16h16.14.015,Serial_Dependence_U,2023.2.3,Win32,243.9024390243686,,,,,,155.91069999998808,97,0,155.91079999998212,97,,,,159.88279999998213,160.38129999998213,159.37740000000596,159.88259999999403,156.91469999998807,159.3772999999821,160.38129999998213,160.88119999998807,160.88119999998807,162.86269999998808,1658,162.86269999998808,4,163.86029999998212,0,8,8,13,1,1.4,0.3,Time
,,828098,001,m,20,2025-06-02_16h16.14.015,Serial_Dependence_U,2023.2.3,Win32,243.9024390243686,,,,,,163.8605,59,0,163.8605,59,,,,167.80440000000596,168.30329999998213,167.30079999998213,167.80419999998807,164.86629999998212,167.30069999998807,168.30340000000595,168.80369999998808,168.80369999998808,171.00819999998808,1838,171.0082999999821,5,172.00609999999403,0,9,9,8,1,1.4,0.7,Time
,,828098,001,m,20,2025-06-02_16h16.14.015,Serial_Dependence_U,2023.2.3,Win32,243.9024390243686,,,,,,172.00619999998807,38,0,172.00629999998213,38,,,,175.57040000000595,176.06819999998808,175.06869999998807,175.57029999998213,173.00819999998808,175.0685,176.06819999998808,176.56990000000596,176.56990000000596,177.77009999999404,904,177.77019999998808,2,178.7682999999821,0,10,10,1,1,1,0.3,Time
,,828098,001,m,20,2025-06-02_16h16.14.015,Serial_Dependence_U,2023.2.3,Win32,243.9024390243686,,,,,,178.7685,198,0,178.76859999999405,198,,,,182.106,182.60569999998808,181.60159999999405,182.1057999999821,179.76859999999405,181.6015,182.60569999998808,183.10559999999404,183.10569999998808,184.78579999998212,1237,184.78579999998212,5,185.78469999998808,0,11,11,15,1,0.8,0.7,Time
,,828098,001,m,20,2025-06-02_16h16.14.015,Serial_Dependence_U,2023.2.3,Win32,243.9024390243686,,,,,,185.7847999999821,57,0,185.785,57,,,,189.92219999998807,190.42219999998807,189.41990000000595,189.922,186.78919999998809,189.41979999998213,190.42219999998807,190.92219999998807,190.92219999998807,192.66569999998808,1387,192.6657999999821,2,193.66379999998213,0,12,12,9,1,1.6,0.7,Time
,,828098,001,m,20,2025-06-02_16h16.14.015,Serial_Dependence_U,2023.2.3,Win32,243.9024390243686,,,,,,193.66390000000595,306,0,193.664,306,,,,197.03369999998807,197.53159999999403,196.53240000000596,197.03369999998807,194.66929999998212,196.53229999998211,197.53159999999403,198.03179999998213,198.03179999998213,199.38659999999405,971,199.38659999999405,4,200.3845,0,13,13,0,1,0.8,0.3,Time
,,828098,001,m,20,2025-06-02_16h16.14.015,Serial_Dependence_U,2023.2.3,Win32,243.9024390243686,,,,,,200.38459999999404,61,0,200.38469999998807,61,,,,203.91979999998213,204.419,203.41790000000597,203.91969999998807,201.3865,203.41779999998212,204.419,204.9172999999821,204.9172999999821,206.97369999998807,1475,206.97369999998807,5,207.9716999999881,0,14,14,16,1,1,0.7,Time
,,828098,001,m,20,2025-06-02_16h16.14.015,Serial_Dependence_U,2023.2.3,Win32,243.9024390243686,,,,,,207.97190000000597,166,0,207.97190000000597,166,,,,211.34040000000596,211.838,210.83619999998808,211.34019999998807,208.97359999999404,210.83609999999405,211.838,212.33540000000596,212.33540000000596,213.7276999999881,858,213.7276999999881,4,214.72569999998808,0,15,15,20,1,0.8,0.3,Time
,,828098,001,m,20,2025-06-02_16h16.14.015,Serial_Dependence_U,2023.2.3,Win32,243.9024390243686,,,,,,214.72579999998212,13,0,214.72590000000596,13,,,,218.89819999998807,219.39609999999405,218.39440000000596,218.898,215.72990000000596,218.39419999998807,219.39609999999405,219.89629999998212,219.89629999998212,221.40259999999404,1116,221.40259999999404,1,222.40240000000597,0,16,16,4,1,1.6,0.3,Time
,,828098,001,m,20,2025-06-02_16h16.14.015,Serial_Dependence_U,2023.2.3,Win32,243.9024390243686,,,,,,222.40259999999404,62,0,222.40269999998807,62,,,,226.56929999998212,227.06759999999403,226.06740000000596,226.5691999999881,223.4062999999821,226.06719999998808,227.06759999999403,227.56459999999404,227.56459999999404,228.99369999998808,1091,228.99379999998212,1,229.99190000000596,0,17,17,24,1,1.6,0.3,Time
,,828098,001,m,20,2025-06-02_16h16.14.015,Serial_Dependence_U,2023.2.3,Win32,243.9024390243686,,,,,,229.992,187,0,229.99209999999405,187,,,,233.33569999998807,233.835,232.8311999999881,233.3355,230.99929999998213,232.83109999999405,233.835,234.3317999999821,234.33190000000596,235.93329999998213,1202,235.93340000000597,5,236.93109999999405,0,18,18,25,1,0.8,0.7,Time
,,828098,001,m,20,2025-06-02_16h16.14.015,Serial_Dependence_U,2023.2.3,Win32,243.9024390243686,,,,,,236.93129999998212,217,0,236.93140000000597,217,,,,240.47079999998212,240.9722999999821,239.96840000000597,240.47059999999405,237.93540000000596,239.96829999998212,240.9722999999821,241.47059999999405,241.47059999999405,243.35409999999405,1455,243.35409999999405,5,244.35159999999405,0,19,19,6,1,1,0.7,Time
,,828098,001,m,20,2025-06-02_16h16.14.015,Serial_Dependence_U,2023.2.3,Win32,243.9024390243686,,,,,,244.35179999998212,153,0,244.35179999998212,153,,,,248.5227999999821,249.02040000000596,248.01879999998212,248.52240000000597,245.35629999998213,248.0186999999881,249.02040000000596,249.52029999998211,249.52029999998211,251.29959999999406,1368,251.29969999998806,2,252.2995999999941,0,20,20,14,1,1.6,0.3,Time
,,828098,001,m,20,2025-06-02_16h16.14.015,Serial_Dependence_U,2023.2.3,Win32,243.9024390243686,,,,,,252.29979999998216,357,0,252.29979999998216,357,,,,255.66619999998812,256.16329999998214,255.16390000000598,255.66609999999406,253.30129999998212,255.16379999998213,256.16329999998214,256.66350000000006,256.66350000000006,257.688900000006,650,257.688900000006,2,258.68850000000003,0,21,21,10,1,0.8,0.3,Time
,,828098,001,m,20,2025-06-02_16h16.14.015,Serial_Dependence_U,2023.2.3,Win32,243.9024390243686,,,,,,258.6886999999881,113,0,258.6886999999881,113,,,,262.6260999999941,263.1241999999881,262.1220999999941,262.62600000000003,259.6890999999941,262.122,263.1241999999881,263.6215,263.6215,265.1991999999881,1251,265.1991999999881,2,266.19929999998214,0,22,22,18,1,1.4,0.7,Time
,,828098,001,m,20,2025-06-02_16h16.14.015,Serial_Dependence_U,2023.2.3,Win32,243.9024390243686,,,,,,266.1995,286,0,266.19959999999406,286,,,,269.9407999999822,270.44059999999405,269.4366999999881,269.9406999999881,267.2035,269.436400000006,270.4406999999881,270.94050000000004,270.94050000000004,272.58659999999406,963,272.58659999999406,2,273.586400000006,0,23,23,7,1,1.2,0.7,Time
,,828098,001,m,20,2025-06-02_16h16.14.015,Serial_Dependence_U,2023.2.3,Win32,243.9024390243686,,,,,,273.5865,192,0,273.58659999999406,192,,,,277.353,277.852900000006,276.8525999999941,277.353,274.5866999999881,276.8525,277.852900000006,278.353,278.353,279.77700000000004,1072,279.77700000000004,2,280.778,0,24,24,22,1,1.2,0.3,Time
,,828098,001,m,20,2025-06-02_16h16.14.015,Serial_Dependence_U,2023.2.3,Win32,243.9024390243686,,,,,,280.7780999999941,245,0,280.7781999999881,245,,,,284.9131999999881,285.4111999999881,284.408900000006,284.9130999999941,281.775900000006,284.40879999998214,285.4111999999881,285.91109999999406,285.91109999999406,287.6141999999881,1316,287.6141999999881,2,288.61519999998814,0,25,25,19,1,1.6,0.7,Time
,,828098,001,m,20,2025-06-02_16h16.14.015,Serial_Dependence_U,2023.2.3,Win32,243.9024390243686,,,,,,288.615400000006,24,0,288.61550000000005,24,,,,292.586,293.086,292.08209999999406,292.585900000006,289.619400000006,292.081900000006,293.086,293.5856999999881,293.5856999999881,295.316900000006,1408,295.316900000006,3,296.31500000000005,0,26,26,3,1,1.4,0.3,Time
,,828098,001,m,20,2025-06-02_16h16.14.015,Serial_Dependence_U,2023.2.3,Win32,243.9024390243686,,,,,,296.3151999999881,183,0,296.3151999999881,183,,,,300.45229999998213,300.954,299.9502999999821,300.4521999999881,297.317,299.95009999999405,300.954,301.45229999998213,301.45229999998213,303.35,1380,303.35,2,304.34879999998213,0,27,27,29,1,1.6,0.7,Time
,,828098,001,m,20,2025-06-02_16h16.14.015,Serial_Dependence_U,2023.2.3,Win32,243.9024390243686,,,,,,304.34909999999405,235,0,304.34909999999405,235,,,,307.91650000000004,308.4161999999881,307.4126999999881,307.916400000006,305.3485,307.4125999999941,308.4161999999881,308.91329999998214,308.91329999998214,310.1876999999881,909,310.1876999999881,2,311.1871999999881,0,28,28,21,1,1,0.3,Time
,,828098,001,m,20,2025-06-02_16h16.14.015,Serial_Dependence_U,2023.2.3,Win32,243.9024390243686,,,,,,311.18729999998214,16,0,311.187400000006,16,,,,314.953900000006,315.45179999998214,314.45000000000005,314.95379999998215,312.18729999998214,314.449900000006,315.45179999998214,315.94500000000005,315.94509999999406,317.3915,1080,317.3915,2,318.3890999999941,0,29,29,2,1,1.2,0.3,Time
,,828098,001,m,20,2025-06-02_16h16.14.015,Serial_Dependence_U,2023.2.3,Win32,243.9024390243686,,,,,,318.38929999998214,217,1,323.8600999999941,217,s,5.462900000005959,,327.2320999999941,327.73079999998214,326.72859999999406,327.23190000000596,324.86640000000597,326.72859999999406,327.73079999998214,328.2326999999881,328.2326999999881,329.2056999999881,626,329.2056999999881,2,329.20579999998216,1,0,30,20,1,0.8,0.3,Time
,,828098,001,m,20,2025-06-02_16h16.14.015,Serial_Dependence_U,2023.2.3,Win32,243.9024390243686,,,,,,329.206,109,1,329.2065,109,,,,333.369900000006,333.86800000000005,332.8681999999881,333.3695999999941,330.20759999999404,332.86800000000005,333.86800000000005,334.3681999999881,334.3681999999881,335.65959999999404,496,335.65959999999404,1,335.6596999999881,1,1,31,14,1,1.6,0.3,Time
,,828098,001,m,20,2025-06-02_16h16.14.015,Serial_Dependence_U,2023.2.3,Win32,243.9024390243686,,,,,,335.65979999998217,311,1,335.66,311,,,,339.42650000000003,339.9262999999821,338.92429999998217,339.4262999999821,336.66190000000597,338.9241999999881,339.9262999999821,340.427400000006,340.427400000006,341.82219999998813,963,341.82229999998214,2,341.82229999998214,1,2,32,12,1,1.2,0.3,Time
,,828098,001,m,20,2025-06-02_16h16.14.015,Serial_Dependence_U,2023.2.3,Win32,243.9024390243686,,,,,,341.82250000000005,30,1,341.82250000000005,30,,,,345.3886999999881,345.8886999999881,344.886400000006,345.3885,342.8231999999881,344.8860999999941,345.88879999998215,346.39040000000597,346.39040000000597,347.7677999999822,1010,347.7677999999822,3,347.76790000000597,1,3,33,1,1,1,0.3,Time
,,828098,001,m,20,2025-06-02_16h16.14.015,Serial_Dependence_U,2023.2.3,Win32,243.9024390243686,,,,,,347.7680999999941,2,1,347.7681999999881,2,,,,351.7345999999941,352.2341999999881,351.23229999998216,351.73440000000596,348.771900000006,351.2321999999881,352.2341999999881,352.7270999999941,352.7271999999881,354.386400000006,1188,354.386400000006,2,354.3865999999941,1,4,34,13,1,1.4,0.3,Time
,,828098,001,m,20,2025-06-02_16h16.14.015,Serial_Dependence_U,2023.2.3,Win32,243.9024390243686,,,,,,354.3866999999881,210,1,354.3866999999881,210,,,,358.52169999998813,359.021400000006,358.01759999999405,358.52159999999407,355.38550000000004,358.017400000006,359.021400000006,359.52159999999407,359.52159999999407,361.1547999999822,1284,361.1547999999822,2,361.15490000000597,1,5,35,29,1,1.6,0.7,Time
,,828098,001,m,20,2025-06-02_16h16.14.015,Serial_Dependence_U,2023.2.3,Win32,243.9024390243686,,,,,,361.15500000000003,174,1,361.1550999999941,174,,,,364.49279999998214,364.99229999998215,363.9881999999881,364.4925,362.1550999999941,363.98809999999406,364.99229999998215,365.49229999998215,365.49229999998215,366.550400000006,763,366.550400000006,3,366.55059999999406,1,6,36,5,1,0.8,0.7,Time
,,828098,001,m,20,2025-06-02_16h16.14.015,Serial_Dependence_U,2023.2.3,Win32,243.9024390243686,,,,,,366.5506999999881,88,1,366.55079999998213,88,,,,370.1171999999881,370.6171999999881,369.61329999998213,370.1170999999941,367.5525,369.61309999999406,370.6171999999881,371.1170999999941,371.1170999999941,372.57950000000005,1036,372.57950000000005,3,372.5796999999881,1,7,37,21,1,1,0.3,Time
,,828098,001,m,20,2025-06-02_16h16.14.015,Serial_Dependence_U,2023.2.3,Win32,243.9024390243686,,,,,,372.57979999998213,53,1,372.579900000006,53,,,,375.946400000006,376.446,375.44209999999407,375.9461999999881,373.58159999999407,375.442,376.446,376.94350000000003,376.94350000000003,377.97729999998216,721,377.97729999998216,2,377.977400000006,1,8,38,0,1,0.8,0.3,Time
,,828098,001,m,20,2025-06-02_16h16.14.015,Serial_Dependence_U,2023.2.3,Win32,243.9024390243686,,,,,,377.9776999999881,217,1,377.9776999999881,217,,,,381.5462999999821,382.045900000006,381.04200000000003,381.54609999999406,378.97940000000597,381.04190000000597,382.045900000006,382.54569999998813,382.54569999998813,384.8645,883,384.8645,2,384.8645999999941,1,9,39,11,1,1,0.3,Time
,,828098,001,m,20,2025-06-02_16h16.14.015,Serial_Dependence_U,2023.2.3,Win32,243.9024390243686,,,,,,384.8646999999881,224,1,384.86479999998215,224,,,,388.1977999999821,388.69559999999404,387.69579999998217,388.1976999999881,385.86479999998215,387.6956999999881,388.69559999999404,389.1956999999881,389.1956999999881,391.162400000006,1130,391.162400000006,5,391.1625,1,10,40,15,1,0.8,0.7,Time
,,828098,001,m,20,2025-06-02_16h16.14.015,Serial_Dependence_U,2023.2.3,Win32,243.9024390243686,,,,,,391.1625999999941,351,1,391.16279999998216,351,,,,394.501400000006,394.9996999999881,393.996900000006,394.5010999999941,392.1645999999941,393.9966999999881,394.9996999999881,395.4996999999881,395.4996999999881,396.8351999999881,937,396.8351999999881,4,396.83529999998217,1,11,41,25,1,0.8,0.7,Time
,,828098,001,m,20,2025-06-02_16h16.14.015,Serial_Dependence_U,2023.2.3,Win32,243.9024390243686,,,,,,396.83540000000596,45,1,396.8355999999941,45,,,,400.57479999998213,401.07459999999406,400.0706999999881,400.57459999999406,397.83750000000003,400.07059999999404,401.0746999999881,401.57459999999406,401.57459999999406,403.9390999999941,1255,403.9390999999941,3,403.93929999998215,1,12,42,17,1,1.2,0.7,Time
,,828098,001,m,20,2025-06-02_16h16.14.015,Serial_Dependence_U,2023.2.3,Win32,243.9024390243686,,,,,,403.93929999998215,241,1,403.9395,241,,,,408.1076999999881,408.6091999999881,407.60569999998813,408.1075999999941,404.9432999999822,407.60559999999407,408.6091999999881,409.1075999999941,409.1075999999941,411.66729999998216,1420,411.66729999998216,2,411.667400000006,1,13,43,4,1,1.6,0.3,Time
,,828098,001,m,20,2025-06-02_16h16.14.015,Serial_Dependence_U,2023.2.3,Win32,243.9024390243686,,,,,,411.6675,45,1,411.6675999999941,45,,,,415.4051999999881,415.90459999999405,414.90400000000005,415.40500000000003,412.66629999998213,414.903900000006,415.90459999999405,416.4050999999941,416.4050999999941,418.24229999998215,1316,418.24229999998215,4,418.242400000006,1,14,44,27,1,1.2,0.7,Time
,,828098,001,m,20,2025-06-02_16h16.14.015,Serial_Dependence_U,2023.2.3,Win32,243.9024390243686,,,,,,418.2425,227,1,418.24259999999407,227,,,,422.004900000006,422.50309999999405,421.50250000000005,422.00469999998813,419.24079999998213,421.50229999998214,422.5031999999881,423.00300000000004,423.00309999999405,424.021,719,424.0210999999941,1,424.0211999999881,1,15,45,22,1,1.2,0.3,Time
,,828098,001,m,20,2025-06-02_16h16.14.015,Serial_Dependence_U,2023.2.3,Win32,243.9024390243686,,,,,,424.02129999998215,347,1,424.021400000006,347,,,,427.5571999999881,428.0571999999881,427.0562999999822,427.557,425.02200000000005,427.05609999999405,428.0571999999881,428.5571999999881,428.5571999999881,430.53209999999405,892,430.53209999999405,2,430.5321999999881,1,16,46,26,1,1,0.7,Time
,,828098,001,m,20,2025-06-02_16h16.14.015,Serial_Dependence_U,2023.2.3,Win32,243.9024390243686,,,,,,430.5322999999822,150,1,430.53240000000596,150,,,,434.46959999999405,434.971,433.9672999999822,434.469400000006,431.53359999999407,433.96709999999405,434.97109999999407,435.4692999999821,435.4692999999821,437.3985,1508,437.3985,4,437.3985999999941,1,17,47,18,1,1.4,0.7,Time
,,828098,001,m,20,2025-06-02_16h16.14.015,Serial_Dependence_U,2023.2.3,Win32,243.9024390243686,,,,,,437.3986999999881,142,1,437.39879999998215,142,,,,441.53450000000004,442.0330999999941,441.0335,441.534400000006,438.402900000006,441.03329999998215,442.0330999999941,442.53159999999406,442.5316999999881,444.0702999999821,1311,444.0702999999821,2,444.070400000006,1,18,48,9,1,1.6,0.7,Time
,,828098,001,m,20,2025-06-02_16h16.14.015,Serial_Dependence_U,2023.2.3,Win32,243.9024390243686,,,,,,444.07050000000004,58,1,444.07059999999404,58,,,,448.01090000000596,448.51079999998217,447.5066999999881,448.01079999998217,445.07559999999404,447.5065999999941,448.51079999998217,449.01059999999404,449.0106999999881,450.764900000006,1214,450.76500000000004,2,450.76500000000004,1,19,49,8,1,1.4,0.7,Time
,,828098,001,m,20,2025-06-02_16h16.14.015,Serial_Dependence_U,2023.2.3,Win32,243.9024390243686,,,,,,450.76509999999405,254,1,450.7651999999881,254,,,,454.9316999999881,455.4315999999941,454.4275,454.9315999999941,451.7660999999941,454.427400000006,455.4316999999881,455.9315,455.9315999999941,458.312400000006,1666,458.312400000006,3,458.31250000000006,1,20,50,24,1,1.6,0.3,Time
,,828098,001,m,20,2025-06-02_16h16.14.015,Serial_Dependence_U,2023.2.3,Win32,243.9024390243686,,,,,,458.31250000000006,1,1,458.31259999999406,1,,,,462.249900000006,462.7496999999881,461.7465999999941,462.2496999999881,459.31259999999406,461.7465,462.7496999999881,463.249400000006,463.2495,465.57909999999407,1754,465.57919999998813,4,465.57919999998813,1,21,51,28,1,1.4,0.7,Time
,,828098,001,m,20,2025-06-02_16h16.14.015,Serial_Dependence_U,2023.2.3,Win32,243.9024390243686,,,,,,465.57929999998214,258,1,465.579400000006,258,,,,469.5437999999821,470.040900000006,469.0395999999941,469.5436999999881,466.579,469.03940000000597,470.040900000006,470.5392999999821,470.5392999999821,472.599900000006,1296,472.599900000006,2,472.6,1,22,52,3,1,1.4,0.3,Time
,,828098,001,m,20,2025-06-02_16h16.14.015,Serial_Dependence_U,2023.2.3,Win32,243.9024390243686,,,,,,472.6000999999941,288,1,472.60029999998216,288,,,,475.971400000006,476.4697999999822,475.46629999998214,475.97119999998813,473.6036999999881,475.46609999999407,476.4697999999822,476.97,476.97,478.48079999998214,917,478.48079999998214,4,478.48079999998214,1,23,53,10,1,0.8,0.3,Time
,,828098,001,m,20,2025-06-02_16h16.14.015,Serial_Dependence_U,2023.2.3,Win32,243.9024390243686,,,,,,478.480900000006,25,1,478.48109999999406,25,,,,482.0197999999821,482.5181999999881,481.5161999999881,482.0196999999881,479.482900000006,481.516,482.5181999999881,483.017400000006,483.017400000006,484.991900000006,1134,484.991900000006,4,484.992,1,24,54,6,1,1,0.7,Time
,,828098,001,m,20,2025-06-02_16h16.14.015,Serial_Dependence_U,2023.2.3,Win32,243.9024390243686,,,,,,484.9920999999941,175,1,484.99229999998215,175,,,,489.13259999999406,489.630400000006,488.6265,489.13250000000005,485.9946999999881,488.626400000006,489.630400000006,490.130400000006,490.130400000006,492.4956999999881,1715,492.4957999999821,4,492.495900000006,1,25,55,19,1,1.6,0.7,Time
,,828098,001,m,20,2025-06-02_16h16.14.015,Serial_Dependence_U,2023.2.3,Win32,243.9024390243686,,,,,,492.49600000000004,63,1,492.4961999999881,63,,,,496.23890000000597,496.73859999999405,495.7346999999881,496.2386999999881,493.5010999999941,495.7345,496.73859999999405,497.238400000006,497.238400000006,499.8861999999881,1856,499.8861999999881,5,499.88629999998216,1,26,56,7,1,1.2,0.7,Time
,,828098,001,m,20,2025-06-02_16h16.14.015,Serial_Dependence_U,2023.2.3,Win32,243.9024390243686,,,,,,499.886400000006,249,1,499.8865999999941,249,,,,503.855400000006,504.35479999998216,503.35279999998215,503.85529999998215,500.89050000000003,503.3526999999881,504.35479999998216,504.8550999999941,504.8550999999941,505.76540000000597,567,505.76550000000003,1,505.76550000000003,1,27,57,23,1,1.4,0.3,Time
,,828098,001,m,20,2025-06-02_16h16.14.015,Serial_Dependence_U,2023.2.3,Win32,243.9024390243686,,,,,,505.7655999999941,245,1,505.7656999999881,245,,,,509.531599999994,510.0299000000059,509.028,509.53149999999994,506.7650999999941,509.0277999999821,510.0299000000059,510.531400000006,510.531400000006,512.523599999994,1496,512.523599999994,4,512.523699999988,1,28,58,2,1,1.2,0.3,Time
,,828098,001,m,20,2025-06-02_16h16.14.015,Serial_Dependence_U,2023.2.3,Win32,243.9024390243686,,,,,,512.5239000000059,212,1,512.524,212,,,,516.071400000006,516.569599999994,515.5609999999999,516.071099999994,513.527599999994,515.560900000006,516.569599999994,517.068799999982,517.0689000000059,518.931900000006,1558,518.931900000006,5,518.932,1,29,59,16,1,1,0.7,Time
,,828098,001,m,20,2025-06-02_16h16.14.015,Serial_Dependence_U,2023.2.3,Win32,243.9024390243686,,,,,,518.932199999988,161,2,531.806099999994,161,s,12.868900000005965,,535.7727999999821,536.270599999994,535.268599999994,535.7727999999821,532.8075,535.2685,536.270599999994,536.770599999994,536.770599999994,538.5541999999881,1484,538.5541999999881,4,538.5541999999881,2,0,60,3,1,1.4,0.3,Time
,,828098,001,m,20,2025-06-02_16h16.14.015,Serial_Dependence_U,2023.2.3,Win32,243.9024390243686,,,,,,538.5544000000059,247,2,538.5549000000059,247,,,,542.691699999988,543.1915,542.1875999999941,542.691599999994,539.554299999982,542.1875,543.1915,543.6915,543.6915,545.8747999999821,1379,545.8749000000059,2,545.8749000000059,2,1,61,29,1,1.6,0.7,Time
,,828098,001,m,20,2025-06-02_16h16.14.015,Serial_Dependence_U,2023.2.3,Win32,243.9024390243686,,,,,,545.8750999999941,34,2,545.8750999999941,34,,,,549.2434999999999,549.741099999994,548.7412999999821,549.243400000006,546.878900000006,548.741199999988,549.741099999994,550.2429999999999,550.2429999999999,551.2537999999821,589,551.253900000006,2,551.253900000006,2,2,62,20,1,0.8,0.3,Time
,,828098,001,m,20,2025-06-02_16h16.14.015,Serial_Dependence_U,2023.2.3,Win32,243.9024390243686,,,,,,551.254,267,2,551.254099999994,267,,,,554.8245,555.322,554.322199999988,554.8244000000059,552.2597999999821,554.3220999999941,555.322,555.8217999999821,555.8217999999821,557.1514000000059,976,557.1514000000059,3,557.151599999994,2,3,63,11,1,1,0.3,Time
,,828098,001,m,20,2025-06-02_16h16.14.015,Serial_Dependence_U,2023.2.3,Win32,243.9024390243686,,,,,,557.1516999999881,210,2,557.1517999999821,210,,,,560.9204000000059,561.42,560.418099999994,560.920299999982,558.1556999999881,560.417900000006,561.42,561.917699999988,561.917699999988,563.4035,1025,563.4035,2,563.403599999994,2,4,64,22,1,1.2,0.3,Time
,,828098,001,m,20,2025-06-02_16h16.14.015,Serial_Dependence_U,2023.2.3,Win32,243.9024390243686,,,,,,563.403699999988,2,2,563.4037999999821,2,,,,567.5699999999999,568.0696999999881,567.068,567.569900000006,564.4035,567.0679000000059,568.0696999999881,568.570099999994,568.570099999994,570.778,1678,570.778,3,570.778099999994,2,5,65,24,1,1.6,0.3,Time
,,828098,001,m,20,2025-06-02_16h16.14.015,Serial_Dependence_U,2023.2.3,Win32,243.9024390243686,,,,,,570.778199999988,292,2,570.778400000006,292,,,,574.748900000006,575.248699999988,574.2449000000059,574.748900000006,571.7804000000059,574.2447999999821,575.2487999999821,575.749099999994,575.749199999988,577.684099999994,1462,577.684099999994,3,577.6841999999881,2,6,66,13,1,1.4,0.3,Time
,,828098,001,m,20,2025-06-02_16h16.14.015,Serial_Dependence_U,2023.2.3,Win32,243.9024390243686,,,,,,577.684299999982,204,2,577.6844000000059,204,,,,581.8196999999881,582.3194000000059,581.315400000006,581.8196999999881,578.6844000000059,581.3152999999821,582.3194000000059,582.819599999994,582.819599999994,584.990199999988,1695,584.990199999988,4,584.9902999999821,2,7,67,19,1,1.6,0.7,Time
,,828098,001,m,20,2025-06-02_16h16.14.015,Serial_Dependence_U,2023.2.3,Win32,243.9024390243686,,,,,,584.9904000000059,259,2,584.9905,259,,,,588.7276999999881,589.2232999999821,588.223599999994,588.7275,585.9905999999941,588.2235,589.2232999999821,589.721,589.721,591.3485,1350,591.3485,4,591.3486999999881,2,8,68,27,1,1.2,0.7,Time
,,828098,001,m,20,2025-06-02_16h16.14.015,Serial_Dependence_U,2023.2.3,Win32,243.9024390243686,,,,,,591.3486999999881,216,2,591.3487999999821,216,,,,594.915099999994,595.415099999994,594.411099999994,594.915,592.346699999988,594.411,595.415099999994,595.914799999982,595.914799999982,597.1482999999821,869,597.1482999999821,2,597.148400000006,2,9,69,21,1,1,0.3,Time
,,828098,001,m,20,2025-06-02_16h16.14.015,Serial_Dependence_U,2023.2.3,Win32,243.9024390243686,,,,,,597.148599999994,233,2,597.148599999994,233,,,,601.3149999999999,601.8147999999821,600.810900000006,601.3149000000059,598.148699999988,600.810900000006,601.8147999999821,602.3145,602.314599999994,603.8731999999881,1413,603.8731999999881,2,603.873400000006,2,10,70,14,1,1.6,0.3,Time
,,828098,001,m,20,2025-06-02_16h16.14.015,Serial_Dependence_U,2023.2.3,Win32,243.9024390243686,,,,,,603.8734999999999,292,2,603.873599999994,292,,,,607.2064000000059,607.7064000000059,606.704099999994,607.2062999999821,604.873400000006,606.7039000000059,607.7064000000059,608.2064000000059,608.2064000000059,609.279199999988,665,609.279199999988,2,609.2792999999821,2,11,71,5,1,0.8,0.7,Time
,,828098,001,m,20,2025-06-02_16h16.14.015,Serial_Dependence_U,2023.2.3,Win32,243.9024390243686,,,,,,609.2794000000059,179,2,609.2795,179,,,,612.8162999999821,613.3159999999999,612.3122999999821,612.816199999988,610.2814999999999,612.312099999994,613.3159999999999,613.815900000006,613.815900000006,615.265799999982,1316,615.2659000000059,5,615.266,2,12,72,6,1,1,0.7,Time
,,828098,001,m,20,2025-06-02_16h16.14.015,Serial_Dependence_U,2023.2.3,Win32,243.9024390243686,,,,,,615.266,176,2,615.266099999994,176,,,,619.032900000006,619.532599999994,618.5289000000059,619.0327999999821,616.266299999982,618.528699999988,619.532599999994,620.0306999999881,620.0306999999881,621.312099999994,990,621.312099999994,2,621.312099999994,2,13,73,2,1,1.2,0.3,Time
,,828098,001,m,20,2025-06-02_16h16.14.015,Serial_Dependence_U,2023.2.3,Win32,243.9024390243686,,,,,,621.3122999999821,67,2,621.3124000000059,67,,,,624.6757999999821,625.174099999994,624.174599999994,624.6756999999881,622.311900000006,624.1744000000059,625.174099999994,625.672400000006,625.672400000006,627.058199999988,1141,627.058199999988,5,627.058199999988,2,14,74,10,1,0.8,0.3,Time
,,828098,001,m,20,2025-06-02_16h16.14.015,Serial_Dependence_U,2023.2.3,Win32,243.9024390243686,,,,,,627.0584000000059,324,2,627.0585,324,,,,631.2255,631.726199999988,630.720199999988,631.225400000006,628.057699999988,630.720099999994,631.7262999999821,632.226599999994,632.226599999994,633.8887999999821,1423,633.888900000006,2,633.889099999994,2,15,75,4,1,1.6,0.3,Time
,,828098,001,m,20,2025-06-02_16h16.14.015,Serial_Dependence_U,2023.2.3,Win32,243.9024390243686,,,,,,633.889199999988,273,2,633.8892999999821,273,,,,637.2324000000059,637.730599999994,636.7286999999881,637.232299999982,634.895099999994,636.728599999994,637.730599999994,638.230400000006,638.230400000006,639.961699999988,1400,639.961699999988,5,639.961699999988,2,16,76,15,1,0.8,0.7,Time
,,828098,001,m,20,2025-06-02_16h16.14.015,Serial_Dependence_U,2023.2.3,Win32,243.9024390243686,,,,,,639.9617999999821,245,2,639.9619000000059,245,,,,643.3269000000059,643.8270999999941,642.824599999994,643.3267999999821,640.9615,642.8245,643.8270999999941,644.3265,644.3265,645.9469000000059,1321,645.9469000000059,5,645.947,2,17,77,0,1,0.8,0.3,Time
,,828098,001,m,20,2025-06-02_16h16.14.015,Serial_Dependence_U,2023.2.3,Win32,243.9024390243686,,,,,,645.9470999999941,224,2,645.9472999999821,224,,,,649.920900000006,650.4217999999821,649.4159000000059,649.9206999999881,646.951099999994,649.4156999999881,650.4217999999821,650.921599999994,650.921599999994,652.9465,1813,652.9465,4,652.946599999994,2,18,78,23,1,1.4,0.3,Time
,,828098,001,m,20,2025-06-02_16h16.14.015,Serial_Dependence_U,2023.2.3,Win32,243.9024390243686,,,,,,652.946699999988,36,2,652.9467999999821,36,,,,656.481699999988,656.981199999988,655.9776999999881,656.481599999994,653.946699999988,655.977599999994,656.981199999988,657.4814000000059,657.4814000000059,659.3529000000059,1662,659.3529000000059,5,659.353,2,19,79,26,1,1,0.7,Time
,,828098,001,m,20,2025-06-02_16h16.14.015,Serial_Dependence_U,2023.2.3,Win32,243.9024390243686,,,,,,659.353099999994,314,2,659.3531999999881,314,,,,662.9164999999999,663.4187999999821,662.4151999999881,662.916400000006,660.3537999999821,662.415099999994,663.4187999999821,663.9172999999821,663.9172999999821,665.627099999994,1461,665.627099999994,5,665.6271999999881,2,20,80,1,1,1,0.3,Time
,,828098,001,m,20,2025-06-02_16h16.14.015,Serial_Dependence_U,2023.2.3,Win32,243.9024390243686,,,,,,665.6274000000059,315,2,665.6274999999999,315,,,,669.5644000000059,670.0627999999821,669.061900000006,669.564299999982,666.6274999999999,669.061699999988,670.0627999999821,670.560099999994,670.560099999994,672.632900000006,1767,672.6329999999999,4,672.6329999999999,2,21,81,8,1,1.4,0.7,Time
,,828098,001,m,20,2025-06-02_16h16.14.015,Serial_Dependence_U,2023.2.3,Win32,243.9024390243686,,,,,,672.633199999988,193,2,672.6332999999821,193,,,,676.5724000000059,677.070900000006,676.069,676.5722999999821,673.6377999999821,676.0689000000059,677.070900000006,677.571400000006,677.571400000006,679.5974000000059,1760,679.5975,4,679.597599999994,2,22,82,28,1,1.4,0.7,Time
,,828098,001,m,20,2025-06-02_16h16.14.015,Serial_Dependence_U,2023.2.3,Win32,243.9024390243686,,,,,,679.5976999999881,339,2,679.597799999982,339,,,,683.334900000006,683.833299999982,682.829599999994,683.334599999994,680.597599999994,682.8294000000059,683.833299999982,684.3334000000059,684.3334000000059,686.3999000000059,1537,686.3999000000059,4,686.4,2,23,83,7,1,1.2,0.7,Time
,,828098,001,m,20,2025-06-02_16h16.14.015,Serial_Dependence_U,2023.2.3,Win32,243.9024390243686,,,,,,686.4,134,2,686.400099999994,134,,,,689.937699999988,690.437199999988,689.4352999999821,689.9375,687.404199999988,689.4351999999881,690.437199999988,690.9372999999821,690.9374000000059,692.9639000000059,1691,692.9639000000059,5,692.9639000000059,2,24,84,16,1,1,0.7,Time
,,828098,001,m,20,2025-06-02_16h16.14.015,Serial_Dependence_U,2023.2.3,Win32,243.9024390243686,,,,,,692.964099999994,82,2,692.9641999999881,82,,,,696.6954999999999,697.1951999999881,696.193199999988,696.695400000006,693.962599999994,696.193199999988,697.1951999999881,697.6970999999941,697.6970999999941,699.6472999999821,1566,699.6472999999821,5,699.647400000006,2,25,85,17,1,1.2,0.7,Time
,,828098,001,m,20,2025-06-02_16h16.14.015,Serial_Dependence_U,2023.2.3,Win32,243.9024390243686,,,,,,699.6474999999999,173,2,699.647599999994,173,,,,703.4185,703.917900000006,702.914199999988,703.4184000000059,700.651599999994,702.914,703.917900000006,704.4159999999999,704.416099999994,706.2474000000059,1438,706.2474000000059,4,706.2474000000059,2,26,86,12,1,1.2,0.3,Time
,,828098,001,m,20,2025-06-02_16h16.14.015,Serial_Dependence_U,2023.2.3,Win32,243.9024390243686,,,,,,706.247599999994,347,2,706.247599999994,347,,,,709.5765,710.0741999999881,709.0762999999821,709.576400000006,707.245599999994,709.076099999994,710.0741999999881,710.571699999988,710.571699999988,712.0595,1098,712.059599999994,5,712.0596999999881,2,27,87,25,1,0.8,0.7,Time
,,828098,001,m,20,2025-06-02_16h16.14.015,Serial_Dependence_U,2023.2.3,Win32,243.9024390243686,,,,,,712.0597999999821,240,2,712.0599000000059,240,,,,716.193099999994,716.6922999999821,715.690900000006,716.1929000000059,713.0577999999821,715.6907999999821,716.6922999999821,717.1924000000059,717.1924000000059,718.879,1398,718.879,2,718.879199999988,2,28,88,9,1,1.6,0.7,Time
,,828098,001,m,20,2025-06-02_16h16.14.015,Serial_Dependence_U,2023.2.3,Win32,243.9024390243686,,,,,,718.8792999999821,139,2,718.8792999999821,139,,,,722.8175,723.3167999999821,722.3135,722.8172999999821,719.8799000000059,722.3132999999821,723.316900000006,723.8151999999881,723.8151999999881,725.526,1387,725.526,3,725.526099999994,2,29,89,18,1,1.4,0.7,Time
,,828098,001,m,20,2025-06-02_16h16.14.015,Serial_Dependence_U,2023.2.3,Win32,243.9024390243686,,,,,,725.5261999999881,32,3,841.166699999988,32,s,115.63429999998209,,844.937199999988,845.434599999994,844.433199999988,844.937099999994,842.172699999988,844.433099999994,845.434599999994,845.932699999988,845.9327999999821,847.3224000000059,1089,847.3225,2,847.3225,3,0,90,2,1,1.2,0.3,Time
,,828098,001,m,20,2025-06-02_16h16.14.015,Serial_Dependence_U,2023.2.3,Win32,243.9024390243686,,,,,,847.322599999994,110,3,847.3234000000059,110,,,,851.458099999994,851.957699999988,850.953799999982,851.458,848.320900000006,850.9536999999881,851.957699999988,852.458,852.458,854.255699999988,1450,854.255699999988,2,854.2557999999821,3,1,91,29,1,1.6,0.7,Time
,,828098,001,m,20,2025-06-02_16h16.14.015,Serial_Dependence_U,2023.2.3,Win32,243.9024390243686,,,,,,854.2559000000059,267,3,854.256,267,,,,857.818,858.3159999999999,857.316199999988,857.8179000000059,855.255699999988,857.316099999994,858.3159999999999,858.815900000006,858.815900000006,860.3051999999881,1079,860.3051999999881,4,860.3052999999821,3,2,92,11,1,1,0.3,Time
,,828098,001,m,20,2025-06-02_16h16.14.015,Serial_Dependence_U,2023.2.3,Win32,243.9024390243686,,,,,,860.305400000006,292,3,860.3054999999999,292,,,,863.840900000006,864.3407999999821,863.3365999999941,863.8407999999821,861.305099999994,863.3365,864.3407999999821,864.840699999988,864.8407999999821,866.7742999999821,1563,866.7744000000059,5,866.7745,3,3,93,6,1,1,0.7,Time
,,828098,001,m,20,2025-06-02_16h16.14.015,Serial_Dependence_U,2023.2.3,Win32,243.9024390243686,,,,,,866.774599999994,150,3,866.774699999988,150,,,,870.513199999988,871.0114000000059,870.0097999999821,870.513199999988,867.776,870.009699999988,871.0114000000059,871.5115,871.5115,873.3467999999821,1318,873.3467999999821,4,873.3467999999821,3,4,94,17,1,1.2,0.7,Time
,,828098,001,m,20,2025-06-02_16h16.14.015,Serial_Dependence_U,2023.2.3,Win32,243.9024390243686,,,,,,873.347,160,3,873.347099999994,160,,,,877.0799999999999,877.5797999999821,876.578299999982,877.0797999999821,874.3467999999821,876.5781999999881,877.5797999999821,878.0797999999821,878.079900000006,878.526,103,878.526,1,878.526099999994,3,5,95,27,1,1.2,0.7,Time
,,828098,001,m,20,2025-06-02_16h16.14.015,Serial_Dependence_U,2023.2.3,Win32,243.9024390243686,,,,,,878.5261999999881,343,3,878.5262999999821,343,,,,882.6925999999941,883.190400000006,882.1885,882.6925999999941,879.526099999994,882.1882999999821,883.190400000006,883.6877999999821,883.6877999999821,885.509,1295,885.509,2,885.509099999994,3,6,96,14,1,1.6,0.3,Time
,,828098,001,m,20,2025-06-02_16h16.14.015,Serial_Dependence_U,2023.2.3,Win32,243.9024390243686,,,,,,885.509199999988,274,3,885.509199999988,274,,,,888.873900000006,889.373400000006,888.3692999999821,888.873699999988,886.509,888.369199999988,889.3734999999999,889.875,889.875,891.240099999994,876,891.240099999994,4,891.240199999988,3,7,97,10,1,0.8,0.3,Time
,,828098,001,m,20,2025-06-02_16h16.14.015,Serial_Dependence_U,2023.2.3,Win32,243.9024390243686,,,,,,891.2404000000059,331,3,891.2405,331,,,,895.412699999988,895.9109000000059,894.9089000000059,895.4125,892.2445,894.9087999999821,895.9109000000059,896.4107999999821,896.4107999999821,898.3107999999821,1472,898.3107999999821,2,898.310900000006,3,8,98,4,1,1.6,0.3,Time
,,828098,001,m,20,2025-06-02_16h16.14.015,Serial_Dependence_U,2023.2.3,Win32,243.9024390243686,,,,,,898.311099999994,232,3,898.311099999994,232,,,,902.045900000006,902.544,901.5442999999821,902.0457999999821,899.312699999988,901.544099999994,902.544,903.042199999988,903.042199999988,904.677400000006,1293,904.677400000006,4,904.677400000006,3,9,99,7,1,1.2,0.7,Time
,,828098,001,m,20,2025-06-02_16h16.14.015,Serial_Dependence_U,2023.2.3,Win32,243.9024390243686,,,,,,904.6775,268,3,904.677599999994,268,,,,908.017699999988,908.516299999982,907.5126999999881,908.0174999999999,905.6815,907.512400000006,908.516299999982,909.016299999982,909.016299999982,910.5037999999821,1213,910.5037999999821,5,910.503900000006,3,10,100,25,1,0.8,0.7,Time
,,828098,001,m,20,2025-06-02_16h16.14.015,Serial_Dependence_U,2023.2.3,Win32,243.9024390243686,,,,,,910.504,334,3,910.504099999994,334,,,,914.069,914.568599999994,913.5665,914.0689000000059,911.503599999994,913.5665,914.568599999994,915.068599999994,915.0686999999881,916.468599999994,1180,916.468599999994,4,916.4686999999881,3,11,101,1,1,1,0.3,Time
,,828098,001,m,20,2025-06-02_16h16.14.015,Serial_Dependence_U,2023.2.3,Win32,243.9024390243686,,,,,,916.4687999999821,212,3,916.4689999999999,212,,,,920.4077999999821,920.907599999994,919.9061999999881,920.407699999988,917.473,919.9061999999881,920.907599999994,921.4072999999821,921.4072999999821,923.2822999999821,1595,923.2822999999821,4,923.2825,3,12,102,18,1,1.4,0.7,Time
,,828098,001,m,20,2025-06-02_16h16.14.015,Serial_Dependence_U,2023.2.3,Win32,243.9024390243686,,,,,,923.282599999994,76,3,923.282699999988,76,,,,926.624400000006,927.1181999999881,926.118400000006,926.6242999999821,924.287099999994,926.1181999999881,927.1182999999821,927.616199999988,927.616199999988,929.2004999999999,1210,929.2004999999999,5,929.200599999994,3,13,103,5,1,0.8,0.7,Time
,,828098,001,m,20,2025-06-02_16h16.14.015,Serial_Dependence_U,2023.2.3,Win32,243.9024390243686,,,,,,929.200699999988,226,3,929.200900000006,226,,,,933.3722999999821,933.872099999994,932.8702999999821,933.3721999999881,930.207699999988,932.870199999988,933.8721999999881,934.372099999994,934.372099999994,936.5494000000059,1831,936.5494000000059,4,936.5495,3,14,104,24,1,1.6,0.3,Time
,,828098,001,m,20,2025-06-02_16h16.14.015,Serial_Dependence_U,2023.2.3,Win32,243.9024390243686,,,,,,936.5496999999881,129,3,936.5496999999881,129,,,,940.0865,940.5846999999881,939.582699999988,940.0864000000059,937.549099999994,939.5825,940.5846999999881,941.084400000006,941.084400000006,942.9866999999881,1604,942.9866999999881,5,942.986799999982,3,15,105,26,1,1,0.7,Time
,,828098,001,m,20,2025-06-02_16h16.14.015,Serial_Dependence_U,2023.2.3,Win32,243.9024390243686,,,,,,942.9869000000059,328,3,942.987,328,,,,946.323599999994,946.8217999999821,945.820599999994,946.3235,943.986199999988,945.8204999999999,946.8217999999821,947.323099999994,947.323099999994,948.9135999999941,1292,948.9137999999821,5,948.9139000000059,3,16,106,15,1,0.8,0.7,Time
,,828098,001,m,20,2025-06-02_16h16.14.015,Serial_Dependence_U,2023.2.3,Win32,243.9024390243686,,,,,,948.914,251,3,948.914199999988,251,,,,952.684299999982,953.184299999982,952.1824000000059,952.684099999994,949.919599999994,952.182199999988,953.184299999982,953.6857999999821,953.685900000006,955.417400000006,1560,955.417400000006,5,955.4175,3,17,107,12,1,1.2,0.3,Time
,,828098,001,m,20,2025-06-02_16h16.14.015,Serial_Dependence_U,2023.2.3,Win32,243.9024390243686,,,,,,955.417599999994,74,3,955.417699999988,74,,,,959.352099999994,959.8505,958.848599999994,959.352099999994,956.415599999994,958.8485,959.8505,960.350599999994,960.350599999994,962.1527999999821,1480,962.1527999999821,4,962.152900000006,3,18,108,8,1,1.4,0.7,Time
,,828098,001,m,20,2025-06-02_16h16.14.015,Serial_Dependence_U,2023.2.3,Win32,243.9024390243686,,,,,,962.153099999994,13,3,962.153199999988,13,,,,966.2882999999821,966.788,965.784,966.288199999988,963.152699999988,965.7839000000059,966.788,967.287900000006,967.287900000006,969.246299999982,1623,969.246299999982,3,969.2464000000059,3,19,109,9,1,1.6,0.7,Time
,,828098,001,m,20,2025-06-02_16h16.14.015,Serial_Dependence_U,2023.2.3,Win32,243.9024390243686,,,,,,969.246599999994,277,3,969.246599999994,277,,,,973.213299999982,973.712799999982,972.7115,973.213,970.2481999999881,972.7114000000059,973.712799999982,974.2129000000059,974.2129000000059,976.069099999994,1575,976.069099999994,4,976.0691999999881,3,20,110,23,1,1.4,0.3,Time
,,828098,001,m,20,2025-06-02_16h16.14.015,Serial_Dependence_U,2023.2.3,Win32,243.9024390243686,,,,,,976.069299999982,89,3,976.069299999982,89,,,,980.0301999999881,980.5290999999941,979.5295,980.03,977.0682999999821,979.5294000000059,980.529199999988,981.0292999999821,981.0292999999821,982.5979000000059,1324,982.598,2,982.598,3,21,111,13,1,1.4,0.3,Time
,,828098,001,m,20,2025-06-02_16h16.14.015,Serial_Dependence_U,2023.2.3,Win32,243.9024390243686,,,,,,982.5981999999881,178,3,982.5982999999821,178,,,,986.129400000006,986.629,985.627099999994,986.129199999988,983.596199999988,985.627,986.629,987.128900000006,987.128900000006,988.870699999988,1392,988.870699999988,5,988.8709000000059,3,22,112,16,1,1,0.7,Time
,,828098,001,m,20,2025-06-02_16h16.14.015,Serial_Dependence_U,2023.2.3,Win32,243.9024390243686,,,,,,988.871,257,3,988.871099999994,257,,,,992.8362999999821,993.3331999999881,992.335099999994,992.836199999988,989.8709000000059,992.3349999999999,993.3331999999881,993.834900000006,993.834900000006,995.7307999999821,1408,995.7307999999821,3,995.7309000000059,3,23,113,3,1,1.4,0.3,Time
,,828098,001,m,20,2025-06-02_16h16.14.015,Serial_Dependence_U,2023.2.3,Win32,243.9024390243686,,,,,,995.731,190,3,995.7310999999941,190,,,,999.673599999994,1000.1732999999821,999.1684000000059,999.6734000000059,996.734900000006,999.168199999988,1000.1732999999821,1000.671900000006,1000.671900000006,1002.7806999999881,1808,1002.7806999999881,4,1002.7809000000059,3,24,114,28,1,1.4,0.7,Time
,,828098,001,m,20,2025-06-02_16h16.14.015,Serial_Dependence_U,2023.2.3,Win32,243.9024390243686,,,,,,1002.7809000000059,143,3,1002.781,143,,,,1006.347299999982,1006.850599999994,1005.8431999999881,1006.3471999999881,1003.7804000000059,1005.843099999994,1006.850599999994,1007.351699999988,1007.351699999988,1008.3804000000059,741,1008.3804000000059,2,1008.3804000000059,3,25,115,21,1,1,0.3,Time
,,828098,001,m,20,2025-06-02_16h16.14.015,Serial_Dependence_U,2023.2.3,Win32,243.9024390243686,,,,,,1008.380599999994,284,3,1008.380699999988,284,,,,1012.516,1013.016099999994,1012.0117999999821,1012.5159000000059,1009.3805,1012.0116999999881,1013.016099999994,1013.5156999999881,1013.515799999982,1015.547400000006,1746,1015.5475,4,1015.547599999994,3,26,116,19,1,1.6,0.7,Time
,,828098,001,m,20,2025-06-02_16h16.14.015,Serial_Dependence_U,2023.2.3,Win32,243.9024390243686,,,,,,1015.547599999994,160,3,1015.547699999988,160,,,,1018.911699999988,1019.4087999999821,1018.4094999999999,1018.9115999999941,1016.547400000006,1018.4092999999822,1019.4087999999821,1019.908900000006,1019.908900000006,1020.7845,554,1020.784599999994,1,1020.7846999999881,3,27,117,0,1,0.8,0.3,Time
,,828098,001,m,20,2025-06-02_16h16.14.015,Serial_Dependence_U,2023.2.3,Win32,243.9024390243686,,,,,,1020.7847999999822,210,3,1020.784900000006,210,,,,1024.5534000000061,1025.0530999999942,1024.049099999994,1024.5532999999823,1021.7866999999881,1024.049,1025.0530999999942,1025.5530999999942,1025.5530999999942,1026.893,1146,1026.893,3,1026.893099999994,3,28,118,22,1,1.2,0.3,Time
,,828098,001,m,20,2025-06-02_16h16.14.015,Serial_Dependence_U,2023.2.3,Win32,243.9024390243686,,,,,,1026.8931999999882,224,3,1026.8932999999822,224,,,,1030.2631999999883,1030.7625,1029.7592999999822,1030.2630999999942,1027.896900000006,1029.7591999999881,1030.7625,1031.2610000000002,1031.2610000000002,1032.0922999999823,511,1032.0922999999823,1,1032.0924000000061,3,29,119,20,1,0.8,0.3,Time
,,828098,001,m,20,2025-06-02_16h16.14.015,Serial_Dependence_U,2023.2.3,Win32,243.9024390243686,,,,,,1032.0925,168,4,1317.4257999999822,168,s,285.327,,1321.5617999999822,1322.0589000000061,1321.0615,1321.5616999999882,1318.4302999999823,1321.061400000006,1322.0589000000061,1322.5589000000061,1322.5589000000061,1324.686299999982,1838,1324.686299999982,4,1324.6865,4,0,120,19,1,1.6,0.7,Time
,,828098,001,m,20,2025-06-02_16h16.14.015,Serial_Dependence_U,2023.2.3,Win32,243.9024390243686,,,,,,1324.686599999994,170,4,1324.6872999999823,170,,,,1328.2255,1328.7255,1327.724199999988,1328.2255,1325.6905000000002,1327.7240000000002,1328.7255,1329.2236999999882,1329.2236999999882,1331.0170999999941,1371,1331.0171999999882,5,1331.0172999999822,4,1,121,16,1,1,0.7,Time
,,828098,001,m,20,2025-06-02_16h16.14.015,Serial_Dependence_U,2023.2.3,Win32,243.9024390243686,,,,,,1331.017400000006,208,4,1331.0175000000002,208,,,,1334.3820999999941,1334.8817999999821,1333.8780000000002,1334.382,1332.0155,1333.877900000006,1334.8817999999821,1335.381699999988,1335.381699999988,1336.323699999988,629,1336.323699999988,2,1336.3237999999822,4,2,122,20,1,0.8,0.3,Time
,,828098,001,m,20,2025-06-02_16h16.14.015,Serial_Dependence_U,2023.2.3,Win32,243.9024390243686,,,,,,1336.324,27,4,1336.3240999999941,27,,,,1339.6585,1340.158400000006,1339.156900000006,1339.658400000006,1337.3255999999942,1339.156900000006,1340.158400000006,1340.657900000006,1340.6580000000001,1342.4690999999941,1402,1342.4690999999941,5,1342.4690999999941,4,3,123,5,1,0.8,0.7,Time
,,828098,001,m,20,2025-06-02_16h16.14.015,Serial_Dependence_U,2023.2.3,Win32,243.9024390243686,,,,,,1342.4692999999822,166,4,1342.4692999999822,166,,,,1346.437900000006,1346.935599999994,1345.9335,1346.4376999999881,1343.4692999999822,1345.933400000006,1346.935599999994,1347.437400000006,1347.437400000006,1349.177299999982,1251,1349.177299999982,2,1349.177400000006,4,4,124,23,1,1.4,0.3,Time
,,828098,001,m,20,2025-06-02_16h16.14.015,Serial_Dependence_U,2023.2.3,Win32,243.9024390243686,,,,,,1349.1775,221,4,1349.177599999994,221,,,,1352.7129000000061,1353.213199999988,1352.2126999999882,1352.7127999999823,1350.1791999999882,1352.2125999999942,1353.213199999988,1353.7121999999881,1353.7121999999881,1355.5835000000002,1525,1355.5835000000002,5,1355.5835000000002,4,5,125,26,1,1,0.7,Time
,,828098,001,m,20,2025-06-02_16h16.14.015,Serial_Dependence_U,2023.2.3,Win32,243.9024390243686,,,,,,1355.583699999988,173,4,1355.5837999999821,173,,,,1358.944099999994,1359.445199999988,1358.4437999999823,1358.9440000000002,1356.581599999994,1358.4435999999941,1359.445199999988,1359.9452999999821,1359.9452999999821,1360.9331999999881,695,1360.9331999999881,2,1360.933400000006,4,6,126,0,1,0.8,0.3,Time
,,828098,001,m,20,2025-06-02_16h16.14.015,Serial_Dependence_U,2023.2.3,Win32,243.9024390243686,,,,,,1360.933400000006,62,4,1360.9335,62,,,,1365.070199999988,1365.568400000006,1364.5665999999942,1365.0700000000002,1361.9335,1364.566400000006,1365.568400000006,1366.0685,1366.0685,1367.9405999999942,1762,1367.940699999988,4,1367.940699999988,4,7,127,29,1,1.6,0.7,Time
,,828098,001,m,20,2025-06-02_16h16.14.015,Serial_Dependence_U,2023.2.3,Win32,243.9024390243686,,,,,,1367.9407999999821,233,4,1367.940900000006,233,,,,1371.511900000006,1372.010099999994,1371.008,1371.5117999999823,1368.9437999999823,1371.0077999999821,1372.010099999994,1372.5115,1372.5115,1374.183099999994,1229,1374.183099999994,4,1374.183099999994,4,8,128,11,1,1,0.3,Time
,,828098,001,m,20,2025-06-02_16h16.14.015,Serial_Dependence_U,2023.2.3,Win32,243.9024390243686,,,,,,1374.1831999999881,193,4,1374.183400000006,193,,,,1378.1536999999882,1378.6512999999823,1377.649599999994,1378.1535000000001,1375.1870999999942,1377.649599999994,1378.6512999999823,1379.153,1379.153,1380.7367999999822,1244,1380.736900000006,2,1380.736900000006,4,9,129,13,1,1.4,0.3,Time
,,828098,001,m,20,2025-06-02_16h16.14.015,Serial_Dependence_U,2023.2.3,Win32,243.9024390243686,,,,,,1380.737,169,4,1380.7371999999882,169,,,,1384.8741999999882,1385.3736999999883,1384.369900000006,1384.874,1381.736699999988,1384.369900000006,1385.3736999999883,1385.8736999999883,1385.873799999982,1388.103400000006,1778,1388.103400000006,4,1388.1035999999942,4,10,130,9,1,1.6,0.7,Time
,,828098,001,m,20,2025-06-02_16h16.14.015,Serial_Dependence_U,2023.2.3,Win32,243.9024390243686,,,,,,1388.1035999999942,46,4,1388.1037999999821,46,,,,1391.6697999999822,1392.167599999994,1391.1667999999822,1391.669699999988,1389.104099999994,1391.1666999999882,1392.167599999994,1392.6680000000001,1392.6680000000001,1393.949,936,1393.949,2,1393.9490999999941,4,11,131,1,1,1,0.3,Time
,,828098,001,m,20,2025-06-02_16h16.14.015,Serial_Dependence_U,2023.2.3,Win32,243.9024390243686,,,,,,1393.9491999999882,274,4,1393.9491999999882,274,,,,1397.716599999994,1398.2135999999941,1397.2115000000001,1397.7165,1394.9487999999822,1397.2112999999822,1398.2135999999941,1398.7106999999883,1398.7106999999883,1400.4135,1504,1400.4135,4,1400.4135999999942,4,12,132,12,1,1.2,0.3,Time
,,828098,001,m,20,2025-06-02_16h16.14.015,Serial_Dependence_U,2023.2.3,Win32,243.9024390243686,,,,,,1400.4136999999882,116,4,1400.4137999999823,116,,,,1404.3467999999823,1404.8437999999821,1403.8445000000002,1404.3466999999882,1401.4135,1403.844400000006,1404.8437999999821,1405.3422999999823,1405.3422999999823,1406.9619000000062,1307,1406.9619000000062,2,1406.962,4,13,133,18,1,1.4,0.7,Time
,,828098,001,m,20,2025-06-02_16h16.14.015,Serial_Dependence_U,2023.2.3,Win32,243.9024390243686,,,,,,1406.962099999994,305,4,1406.9621999999881,305,,,,1410.8990999999942,1411.3990000000001,1410.3965,1410.898900000006,1407.9647999999822,1410.396400000006,1411.3990000000001,1411.8977999999822,1411.897900000006,1413.935900000006,1783,1413.935900000006,4,1413.9360000000001,4,14,134,28,1,1.4,0.7,Time
,,828098,001,m,20,2025-06-02_16h16.14.015,Serial_Dependence_U,2023.2.3,Win32,243.9024390243686,,,,,,1413.9360999999942,2,4,1413.9361999999883,2,,,,1417.3066999999883,1417.804599999994,1416.802299999982,1417.3065999999942,1414.94,1416.8020999999942,1417.804599999994,1418.3045000000002,1418.3045000000002,1419.6836999999882,1183,1419.6836999999882,5,1419.6836999999882,4,15,135,10,1,0.8,0.3,Time
,,828098,001,m,20,2025-06-02_16h16.14.015,Serial_Dependence_U,2023.2.3,Win32,243.9024390243686,,,,,,1419.6837999999823,46,4,1419.6839000000061,46,,,,1423.0230000000001,1423.522599999994,1422.519400000006,1423.0230000000001,1420.6880999999942,1422.5192999999822,1423.5226999999882,1424.0236999999881,1424.0236999999881,1425.6835,1300,1425.6835999999942,5,1425.6836999999882,4,16,136,15,1,0.8,0.7,Time
,,828098,001,m,20,2025-06-02_16h16.14.015,Serial_Dependence_U,2023.2.3,Win32,243.9024390243686,,,,,,1425.6837999999823,177,4,1425.6839000000061,177,,,,1429.423,1429.9225000000001,1428.9187999999822,1429.422900000006,1426.6876999999881,1428.918599999994,1429.9225000000001,1430.4207999999821,1430.420900000006,1432.7606999999882,1958,1432.7606999999882,5,1432.7607999999823,4,17,137,27,1,1.2,0.7,Time
,,828098,001,m,20,2025-06-02_16h16.14.015,Serial_Dependence_U,2023.2.3,Win32,243.9024390243686,,,,,,1432.7609000000061,260,4,1432.7610000000002,260,,,,1436.9267999999822,1437.4249000000061,1436.422900000006,1436.9267999999822,1433.7605,1436.4226999999883,1437.4249000000061,1437.9227999999823,1437.9227999999823,1440.4540000000002,2138,1440.4540000000002,5,1440.454099999994,4,18,138,24,1,1.6,0.3,Time
,,828098,001,m,20,2025-06-02_16h16.14.015,Serial_Dependence_U,2023.2.3,Win32,243.9024390243686,,,,,,1440.454199999988,138,4,1440.4542999999821,138,,,,1443.9915999999942,1444.491400000006,1443.4891999999882,1443.9915,1441.4581999999882,1443.489099999994,1444.491400000006,1444.991400000006,1444.991400000006,1446.7664000000061,1543,1446.7664000000061,5,1446.7664000000061,4,19,139,6,1,1,0.7,Time
,,828098,001,m,20,2025-06-02_16h16.14.015,Serial_Dependence_U,2023.2.3,Win32,243.9024390243686,,,,,,1446.766599999994,63,4,1446.766699999988,63,,,,1450.330599999994,1450.8286999999882,1449.8290000000002,1450.3305,1447.766599999994,1449.8289000000061,1450.8286999999882,1451.3285999999941,1451.3285999999941,1453.0702999999821,1312,1453.0702999999821,5,1453.070400000006,4,20,140,21,1,1,0.3,Time
,,828098,001,m,20,2025-06-02_16h16.14.015,Serial_Dependence_U,2023.2.3,Win32,243.9024390243686,,,,,,1453.0705,169,4,1453.070599999994,169,,,,1456.837,1457.3369000000062,1456.332900000006,1456.8367999999823,1454.071900000006,1456.332699999988,1457.3369000000062,1457.8369000000062,1457.8369000000062,1459.9115999999942,1851,1459.9115999999942,5,1459.9117999999821,4,21,141,2,1,1.2,0.3,Time
,,828098,001,m,20,2025-06-02_16h16.14.015,Serial_Dependence_U,2023.2.3,Win32,243.9024390243686,,,,,,1459.911900000006,58,4,1459.912,58,,,,1463.8742999999822,1464.374099999994,1463.3720999999941,1463.8741999999882,1460.909699999988,1463.372,1464.374099999994,1464.8742999999822,1464.8742999999822,1466.5572999999822,1551,1466.557400000006,4,1466.5575000000001,4,22,142,3,1,1.4,0.3,Time
,,828098,001,m,20,2025-06-02_16h16.14.015,Serial_Dependence_U,2023.2.3,Win32,243.9024390243686,,,,,,1466.5575999999942,282,4,1466.5576999999882,282,,,,1470.2932999999823,1470.7905999999941,1469.7886999999882,1470.2930999999942,1467.555400000006,1469.7885999999942,1470.7905999999941,1471.2920000000001,1471.2920000000001,1473.0695999999941,1652,1473.0695999999941,5,1473.0696999999882,4,23,143,7,1,1.2,0.7,Time
,,828098,001,m,20,2025-06-02_16h16.14.015,Serial_Dependence_U,2023.2.3,Win32,243.9024390243686,,,,,,1473.0697999999823,50,4,1473.069900000006,50,,,,1477.238400000006,1477.737900000006,1476.7340000000002,1477.2381999999882,1474.072599999994,1476.7340000000002,1477.737900000006,1478.237699999988,1478.237699999988,1479.958900000006,1471,1479.958900000006,2,1479.959,4,24,144,4,1,1.6,0.3,Time
,,828098,001,m,20,2025-06-02_16h16.14.015,Serial_Dependence_U,2023.2.3,Win32,243.9024390243686,,,,,,1479.9590999999941,236,4,1479.9591999999882,236,,,,1483.8945999999942,1484.3945,1483.3904000000061,1483.8945,1480.958900000006,1483.3902999999823,1484.3945,1484.8945,1484.8945,1486.944400000006,1786,1486.944400000006,4,1486.9445999999941,4,25,145,8,1,1.4,0.7,Time
,,828098,001,m,20,2025-06-02_16h16.14.015,Serial_Dependence_U,2023.2.3,Win32,243.9024390243686,,,,,,1486.9446999999882,99,4,1486.9447999999823,99,,,,1490.6837999999823,1491.181799999982,1490.1835999999942,1490.6836999999882,1487.9505000000001,1490.1835999999942,1491.181900000006,1491.6816999999883,1491.6816999999883,1493.7171999999882,1726,1493.7171999999882,5,1493.7171999999882,4,26,146,17,1,1.2,0.7,Time
,,828098,001,m,20,2025-06-02_16h16.14.015,Serial_Dependence_U,2023.2.3,Win32,243.9024390243686,,,,,,1493.7174000000061,281,4,1493.7175,281,,,,1497.4815,1497.98,1496.9796999999883,1497.481400000006,1494.7170999999942,1496.9795999999942,1497.98,1498.479,1498.479,1500.379299999982,1529,1500.379400000006,4,1500.379400000006,4,27,147,22,1,1.2,0.3,Time
,,828098,001,m,20,2025-06-02_16h16.14.015,Serial_Dependence_U,2023.2.3,Win32,243.9024390243686,,,,,,1500.379599999994,23,4,1500.379599999994,23,,,,1503.713199999988,1504.210400000006,1503.2125,1503.713099999994,1501.3796999999881,1503.2125,1504.210400000006,1504.7105000000001,1504.7105000000001,1506.243599999994,1391,1506.243599999994,5,1506.2437999999822,4,28,148,25,1,0.8,0.7,Time
,,828098,001,m,20,2025-06-02_16h16.14.015,Serial_Dependence_U,2023.2.3,Win32,243.9024390243686,,,,,,1506.243900000006,85,4,1506.2440000000001,85,,,,1510.4121999999882,1510.912099999994,1509.910599999994,1510.412099999994,1507.2481999999882,1509.9104000000061,1510.912099999994,1511.411699999988,1511.411699999988,1512.970799999982,1317,1512.970799999982,2,1512.970799999982,4,29,149,14,1,1.6,0.3,Time
,,828098,001,m,20,2025-06-02_16h16.14.015,Serial_Dependence_U,2023.2.3,Win32,243.9024390243686,,,,,,1512.971,34,5,1522.9517999999823,34,s,9.973399999976209,,1526.287099999994,1526.786400000006,1525.783299999982,1526.2867999999821,1523.949400000006,1525.7830999999942,1526.786400000006,1527.2865999999942,1527.2865999999942,1528.9515000000001,1553,1528.9515000000001,5,1528.9515999999942,5,0,150,15,1,0.8,0.7,Time
,,828098,001,m,20,2025-06-02_16h16.14.015,Serial_Dependence_U,2023.2.3,Win32,243.9024390243686,,,,,,1528.9516999999883,189,5,1528.953099999994,189,,,,1533.1180999999942,1533.617900000006,1532.616199999988,1533.1180000000002,1529.951900000006,1532.616099999994,1533.6180000000002,1534.1180000000002,1534.1180000000002,1535.9284000000061,1633,1535.9284000000061,3,1535.9285,5,1,151,24,1,1.6,0.3,Time
,,828098,001,m,20,2025-06-02_16h16.14.015,Serial_Dependence_U,2023.2.3,Win32,243.9024390243686,,,,,,1535.928699999988,171,5,1535.9287999999822,171,,,,1539.695400000006,1540.1929000000061,1539.191099999994,1539.695199999988,1536.9284000000061,1539.190900000006,1540.1929000000061,1540.69,1540.69,1542.398900000006,1526,1542.398900000006,4,1542.3990000000001,5,2,152,2,1,1.2,0.3,Time
,,828098,001,m,20,2025-06-02_16h16.14.015,Serial_Dependence_U,2023.2.3,Win32,243.9024390243686,,,,,,1542.3991999999882,48,5,1542.3992999999823,48,,,,1545.7655,1546.263599999994,1545.2612999999822,1545.7652999999823,1543.3990999999942,1545.261199999988,1546.263599999994,1546.763400000006,1546.763400000006,1547.8302999999821,581,1547.8302999999821,2,1547.830400000006,5,3,153,0,1,0.8,0.3,Time
,,828098,001,m,20,2025-06-02_16h16.14.015,Serial_Dependence_U,2023.2.3,Win32,243.9024390243686,,,,,,1547.830599999994,68,5,1547.830599999994,68,,,,1551.8020999999942,1552.3006999999882,1551.2987999999823,1551.801900000006,1548.8331999999882,1551.2986999999882,1552.3006999999882,1552.8006999999882,1552.8006999999882,1554.5985999999941,1542,1554.5985999999941,4,1554.5987999999822,5,4,154,23,1,1.4,0.3,Time
,,828098,001,m,20,2025-06-02_16h16.14.015,Serial_Dependence_U,2023.2.3,Win32,243.9024390243686,,,,,,1554.598900000006,56,5,1554.598900000006,56,,,,1558.1632999999822,1558.6631999999881,1557.661,1558.1631999999881,1555.5985999999941,1557.661,1558.6631999999881,1559.163,1559.163,1560.3904000000061,796,1560.3904000000061,2,1560.3904000000061,5,5,155,21,1,1,0.3,Time
,,828098,001,m,20,2025-06-02_16h16.14.015,Serial_Dependence_U,2023.2.3,Win32,243.9024390243686,,,,,,1560.390599999994,42,5,1560.390699999988,42,,,,1563.929900000006,1564.4297999999822,1563.4276999999881,1563.929699999988,1561.3949000000061,1563.4276999999881,1564.4297999999822,1564.927299999982,1564.927400000006,1566.4442999999821,1263,1566.4442999999821,4,1566.444400000006,5,6,156,16,1,1,0.7,Time
,,828098,001,m,20,2025-06-02_16h16.14.015,Serial_Dependence_U,2023.2.3,Win32,243.9024390243686,,,,,,1566.4445,163,5,1566.4445999999941,163,,,,1569.810599999994,1570.310400000006,1569.3089000000061,1569.8105,1567.4465,1569.3087999999823,1570.3105,1570.8102999999821,1570.8102999999821,1571.6815999999942,525,1571.6815999999942,1,1571.6816999999883,5,7,157,20,1,0.8,0.3,Time
,,828098,001,m,20,2025-06-02_16h16.14.015,Serial_Dependence_U,2023.2.3,Win32,243.9024390243686,,,,,,1571.681799999982,9,5,1571.681900000006,9,,,,1575.643799999982,1576.1435000000001,1575.1421999999882,1575.643799999982,1572.6815000000001,1575.1420999999941,1576.1435000000001,1576.6435999999942,1576.6435999999942,1578.206299999982,1154,1578.206299999982,2,1578.206299999982,5,8,158,13,1,1.4,0.3,Time
,,828098,001,m,20,2025-06-02_16h16.14.015,Serial_Dependence_U,2023.2.3,Win32,243.9024390243686,,,,,,1578.206400000006,112,5,1578.2065,112,,,,1582.1476999999882,1582.6459000000061,1581.643900000006,1582.1476999999882,1579.2106999999883,1581.643799999982,1582.6459000000061,1583.1459000000061,1583.1459000000061,1585.197900000006,1704,1585.197900000006,4,1585.198,5,9,159,18,1,1.4,0.7,Time
,,828098,001,m,20,2025-06-02_16h16.14.015,Serial_Dependence_U,2023.2.3,Win32,243.9024390243686,,,,,,1585.1980999999942,245,5,1585.1981999999882,245,,,,1588.5375999999942,1589.0371999999882,1588.033599999994,1588.537400000006,1586.2,1588.0335,1589.0371999999882,1589.5375000000001,1589.5375000000001,1591.2122999999822,1425,1591.2122999999822,5,1591.2125,5,10,160,25,1,0.8,0.7,Time
,,828098,001,m,20,2025-06-02_16h16.14.015,Serial_Dependence_U,2023.2.3,Win32,243.9024390243686,,,,,,1591.2125999999942,300,5,1591.2125999999942,300,,,,1595.348400000006,1595.8496999999882,1594.843400000006,1595.3482999999821,1592.2125999999942,1594.8431999999882,1595.8496999999882,1596.3495,1596.3495,1598.353699999988,1719,1598.353699999988,4,1598.3537999999821,5,11,161,29,1,1.6,0.7,Time
,,828098,001,m,20,2025-06-02_16h16.14.015,Serial_Dependence_U,2023.2.3,Win32,243.9024390243686,,,,,,1598.3537999999821,296,5,1598.353900000006,296,,,,1602.0930999999941,1602.5912999999823,1601.5890999999942,1602.092900000006,1599.355099999994,1601.5890000000002,1602.5912999999823,1603.0910999999942,1603.0910999999942,1604.8785,1540,1604.8785,4,1604.8785,5,12,162,7,1,1.2,0.7,Time
,,828098,001,m,20,2025-06-02_16h16.14.015,Serial_Dependence_U,2023.2.3,Win32,243.9024390243686,,,,,,1604.878599999994,158,5,1604.8786999999882,158,,,,1608.4186999999881,1608.9175,1607.9137999999823,1608.418599999994,1605.883099999994,1607.9136999999882,1608.9175,1609.417400000006,1609.417400000006,1611.1570000000002,1502,1611.1570000000002,5,1611.157400000006,5,13,163,26,1,1,0.7,Time
,,828098,001,m,20,2025-06-02_16h16.14.015,Serial_Dependence_U,2023.2.3,Win32,243.9024390243686,,,,,,1611.1575,245,5,1611.1575,245,,,,1615.2935,1615.792900000006,1614.790900000006,1615.2932999999823,1612.158599999994,1614.7907999999823,1615.792900000006,1616.292900000006,1616.292900000006,1618.4405999999942,1777,1618.4405999999942,4,1618.440699999988,5,14,164,19,1,1.6,0.7,Time
,,828098,001,m,20,2025-06-02_16h16.14.015,Serial_Dependence_U,2023.2.3,Win32,243.9024390243686,,,,,,1618.440900000006,310,5,1618.440900000006,310,,,,1622.2061999999883,1622.704400000006,1621.7055,1622.2060999999942,1619.4422999999822,1621.705199999988,1622.704400000006,1623.203099999994,1623.203099999994,1624.9365,1582,1624.9365,5,1624.936599999994,5,15,165,22,1,1.2,0.3,Time
,,828098,001,m,20,2025-06-02_16h16.14.015,Serial_Dependence_U,2023.2.3,Win32,243.9024390243686,,,,,,1624.9366999999882,347,5,1624.9367999999822,347,,,,1628.674199999988,1629.1737999999823,1628.1737999999823,1628.674,1625.940699999988,1628.1736999999882,1629.1737999999823,1629.6735999999942,1629.6735999999942,1631.402799999982,1329,1631.402799999982,4,1631.403,5,16,166,27,1,1.2,0.7,Time
,,828098,001,m,20,2025-06-02_16h16.14.015,Serial_Dependence_U,2023.2.3,Win32,243.9024390243686,,,,,,1631.403099999994,106,5,1631.403099999994,106,,,,1634.969400000006,1635.4665,1634.4674000000061,1634.9692999999822,1632.4031999999881,1634.4671999999882,1635.466599999994,1635.9666999999881,1635.9667999999822,1637.042299999982,871,1637.042400000006,2,1637.042400000006,5,17,167,1,1,1,0.3,Time
,,828098,001,m,20,2025-06-02_16h16.14.015,Serial_Dependence_U,2023.2.3,Win32,243.9024390243686,,,,,,1637.0425,142,5,1637.042599999994,142,,,,1641.004400000006,1641.503900000006,1640.5025,1641.004299999982,1638.0402999999822,1640.5025,1641.5040000000001,1642.0041999999883,1642.0041999999883,1643.5399000000061,1370,1643.5399000000061,3,1643.540099999994,5,18,168,3,1,1.4,0.3,Time
,,828098,001,m,20,2025-06-02_16h16.14.015,Serial_Dependence_U,2023.2.3,Win32,243.9024390243686,,,,,,1643.540199999988,245,5,1643.540199999988,245,,,,1647.310900000006,1647.810599999994,1646.8066999999883,1647.3107999999822,1644.5442999999823,1646.8065999999942,1647.810599999994,1648.3105,1648.310599999994,1649.4646999999882,935,1649.4646999999882,2,1649.4647999999822,5,19,169,12,1,1.2,0.3,Time
,,828098,001,m,20,2025-06-02_16h16.14.015,Serial_Dependence_U,2023.2.3,Win32,243.9024390243686,,,,,,1649.464900000006,73,5,1649.4650000000001,73,,,,1652.829199999988,1653.3289000000061,1652.325,1652.8290000000002,1650.462400000006,1652.325,1653.3290000000002,1653.829099999994,1653.829099999994,1654.9582999999823,912,1654.9582999999823,4,1654.9585000000002,5,20,170,10,1,0.8,0.3,Time
,,828098,001,m,20,2025-06-02_16h16.14.015,Serial_Dependence_U,2023.2.3,Win32,243.9024390243686,,,,,,1654.958599999994,333,5,1654.958699999988,333,,,,1659.1247999999823,1659.6242999999822,1658.6231999999882,1659.1245999999942,1655.9626999999882,1658.623099999994,1659.6242999999822,1660.1242999999822,1660.1242999999822,1662.012599999994,1634,1662.012599999994,3,1662.0126999999882,5,21,171,4,1,1.6,0.3,Time
,,828098,001,m,20,2025-06-02_16h16.14.015,Serial_Dependence_U,2023.2.3,Win32,243.9024390243686,,,,,,1662.0127999999822,344,5,1662.012900000006,344,,,,1665.7481999999882,1666.2475999999942,1665.2437999999822,1665.748,1663.0122999999821,1665.2436999999882,1666.2475999999942,1666.7475000000002,1666.7475999999942,1669.0766999999883,1485,1669.0766999999883,4,1669.0767999999823,5,22,172,17,1,1.2,0.7,Time
,,828098,001,m,20,2025-06-02_16h16.14.015,Serial_Dependence_U,2023.2.3,Win32,243.9024390243686,,,,,,1669.076900000006,272,5,1669.077099999994,272,,,,1673.247900000006,1673.7475000000002,1672.7436999999882,1673.2477999999821,1670.081400000006,1672.743599999994,1673.7475000000002,1674.2445,1674.244599999994,1675.9457999999822,1495,1675.9457999999822,2,1675.9460000000001,5,23,173,14,1,1.6,0.3,Time
,,828098,001,m,20,2025-06-02_16h16.14.015,Serial_Dependence_U,2023.2.3,Win32,243.9024390243686,,,,,,1675.9460999999942,250,5,1675.9460999999942,250,,,,1679.2825,1679.7805999999941,1678.7785999999942,1679.282400000006,1676.9450000000002,1678.7785000000001,1679.7805999999941,1680.282400000006,1680.282400000006,1681.382699999988,938,1681.382699999988,4,1681.382699999988,5,24,174,5,1,0.8,0.7,Time
,,828098,001,m,20,2025-06-02_16h16.14.015,Serial_Dependence_U,2023.2.3,Win32,243.9024390243686,,,,,,1681.382900000006,91,5,1681.382900000006,91,,,,1685.5245,1686.0220000000002,1685.020199999988,1685.5244000000062,1682.3867999999823,1685.020099999994,1686.0220000000002,1686.5220999999942,1686.522199999988,1688.3721999999882,1769,1688.3721999999882,4,1688.3722999999823,5,25,175,9,1,1.6,0.7,Time
,,828098,001,m,20,2025-06-02_16h16.14.015,Serial_Dependence_U,2023.2.3,Win32,243.9024390243686,,,,,,1688.372400000006,149,5,1688.372400000006,149,,,,1691.940400000006,1692.4402999999822,1691.4365,1691.940400000006,1689.373400000006,1691.436400000006,1692.4402999999822,1692.9401999999882,1692.9401999999882,1694.3696999999881,1166,1694.3697999999822,4,1694.3697999999822,5,26,176,11,1,1,0.3,Time
,,828098,001,m,20,2025-06-02_16h16.14.015,Serial_Dependence_U,2023.2.3,Win32,243.9024390243686,,,,,,1694.369900000006,194,5,1694.3700000000001,194,,,,1698.3055000000002,1698.804900000006,1697.801199999988,1698.305400000006,1695.369299999982,1697.8010999999942,1698.804900000006,1699.3050999999941,1699.3050999999941,1700.9881999999882,1455,1700.9882999999822,3,1700.988400000006,5,27,177,8,1,1.4,0.7,Time
,,828098,001,m,20,2025-06-02_16h16.14.015,Serial_Dependence_U,2023.2.3,Win32,243.9024390243686,,,,,,1700.9885000000002,109,5,1700.9885000000002,109,,,,1704.927900000006,1705.4257999999822,1704.4235999999942,1704.9277999999822,1701.989900000006,1704.423400000006,1705.4257999999822,1705.927400000006,1705.927400000006,1707.5215,1366,1707.5215,3,1707.5216999999882,5,28,178,28,1,1.4,0.7,Time
,,828098,001,m,20,2025-06-02_16h16.14.015,Serial_Dependence_U,2023.2.3,Win32,243.9024390243686,,,,,,1707.5217999999822,167,5,1707.521900000006,167,,,,1711.053699999988,1711.551900000006,1710.552599999994,1711.053599999994,1708.519400000006,1710.5525,1711.551900000006,1712.0505999999941,1712.0505999999941,1713.631599999994,1346,1713.631599999994,5,1713.631699999988,5,29,179,6,1,1,0.7,Time
,,828098,001,m,20,2025-06-02_16h16.14.015,Serial_Dependence_U,2023.2.3,Win32,243.9024390243686,,,,,,1713.6317999999821,21,6,1886.2916999999882,21,s,172.65300000000002,,1890.46,1890.9595999999942,1889.9560999999942,1890.4597999999821,1887.2931999999882,1889.9560000000001,1890.9595999999942,1891.459900000006,1891.459900000006,1892.9392999999823,1204,1892.9392999999823,2,1892.9394000000061,6,0,180,24,1,1.6,0.3,Time
,,828098,001,m,20,2025-06-02_16h16.14.015,Serial_Dependence_U,2023.2.3,Win32,243.9024390243686,,,,,,1892.9395000000002,349,6,1892.9400999999941,349,,,,1896.9056999999882,1897.4036999999882,1896.4015999999942,1896.9055,1893.9394000000061,1896.4015000000002,1897.4036999999882,1897.9037999999823,1897.9037999999823,1899.4035999999942,1253,1899.4035999999942,2,1899.4036999999882,6,1,181,3,1,1.4,0.3,Time
,,828098,001,m,20,2025-06-02_16h16.14.015,Serial_Dependence_U,2023.2.3,Win32,243.9024390243686,,,,,,1899.4037999999823,305,6,1899.403900000006,305,,,,1903.341400000006,1903.8385999999941,1902.8390000000002,1903.3411999999882,1900.4080999999942,1902.8387999999823,1903.8385999999941,1904.3369000000062,1904.3369000000062,1905.8932999999822,1325,1905.8932999999822,2,1905.893400000006,6,2,182,8,1,1.4,0.7,Time
,,828098,001,m,20,2025-06-02_16h16.14.015,Serial_Dependence_U,2023.2.3,Win32,243.9024390243686,,,,,,1905.8935000000001,323,6,1905.8935999999942,323,,,,1909.2260999999942,1909.725900000006,1908.724599999994,1909.226,1906.8910999999941,1908.7245,1909.725900000006,1910.2257999999822,1910.2257999999822,1911.647199999988,1079,1911.647199999988,5,1911.647199999988,6,3,183,5,1,0.8,0.7,Time
,,828098,001,m,20,2025-06-02_16h16.14.015,Serial_Dependence_U,2023.2.3,Win32,243.9024390243686,,,,,,1911.647400000006,14,6,1911.647400000006,14,,,,1915.3870999999942,1915.8866999999882,1914.882699999988,1915.3870000000002,1912.6515999999942,1914.8825999999942,1915.8866999999882,1916.3866999999882,1916.3866999999882,1917.7615,1192,1917.7615999999941,3,1917.7615999999941,6,4,184,17,1,1.2,0.7,Time
,,828098,001,m,20,2025-06-02_16h16.14.015,Serial_Dependence_U,2023.2.3,Win32,243.9024390243686,,,,,,1917.7617999999823,236,6,1917.761900000006,236,,,,1921.329900000006,1921.8295999999941,1920.8282999999822,1921.3297999999822,1918.7657999999822,1920.828199999988,1921.8295999999941,1922.328099999994,1922.328099999994,1923.6010999999942,1125,1923.6010999999942,4,1923.6011999999882,6,5,185,11,1,1,0.3,Time
,,828098,001,m,20,2025-06-02_16h16.14.015,Serial_Dependence_U,2023.2.3,Win32,243.9024390243686,,,,,,1923.6012999999823,136,6,1923.6014000000062,136,,,,1926.9715,1927.4695000000002,1926.4675,1926.971400000006,1924.6042999999822,1926.4674000000061,1927.4695000000002,1927.969699999988,1927.969699999988,1928.865400000006,621,1928.8655,2,1928.8656999999882,6,6,186,0,1,0.8,0.3,Time
,,828098,001,m,20,2025-06-02_16h16.14.015,Serial_Dependence_U,2023.2.3,Win32,243.9024390243686,,,,,,1928.8657999999823,139,6,1928.8657999999823,139,,,,1932.802900000006,1933.3026999999881,1932.2989000000061,1932.8026999999881,1929.8655,1932.2987999999823,1933.3026999999881,1933.802900000006,1933.802900000006,1935.900599999994,1715,1935.900599999994,4,1935.900699999988,6,7,187,18,1,1.4,0.7,Time
,,828098,001,m,20,2025-06-02_16h16.14.015,Serial_Dependence_U,2023.2.3,Win32,243.9024390243686,,,,,,1935.9007999999822,335,6,1935.900900000006,335,,,,1940.0360999999941,1940.535900000006,1939.531900000006,1940.035900000006,1936.9015000000002,1939.5317999999822,1940.535900000006,1941.035900000006,1941.035900000006,1942.4327999999823,1116,1942.4329000000062,1,1942.433,6,8,188,9,1,1.6,0.7,Time
,,828098,001,m,20,2025-06-02_16h16.14.015,Serial_Dependence_U,2023.2.3,Win32,243.9024390243686,,,,,,1942.433,313,6,1942.433099999994,313,,,,1945.9692999999822,1946.4691999999882,1945.4670999999942,1945.9691999999882,1943.4360000000001,1945.467,1946.4691999999882,1946.9690999999941,1946.9691999999882,1948.2532999999821,1036,1948.2532999999821,3,1948.2535,6,9,189,6,1,1,0.7,Time
,,828098,001,m,20,2025-06-02_16h16.14.015,Serial_Dependence_U,2023.2.3,Win32,243.9024390243686,,,,,,1948.253599999994,254,6,1948.253599999994,254,,,,1951.5877999999823,1952.0880000000002,1951.083599999994,1951.5875999999942,1949.2525999999941,1951.0834000000061,1952.0880000000002,1952.587099999994,1952.587099999994,1953.621,730,1953.6210999999942,2,1953.6210999999942,6,10,190,25,1,0.8,0.7,Time
,,828098,001,m,20,2025-06-02_16h16.14.015,Serial_Dependence_U,2023.2.3,Win32,243.9024390243686,,,,,,1953.6211999999882,17,6,1953.6211999999882,17,,,,1957.3855999999942,1957.8855,1956.8814000000061,1957.3855,1954.6207999999822,1956.8812999999823,1957.8855,1958.3886999999881,1958.3886999999881,1959.4841999999883,813,1959.4841999999883,1,1959.484299999982,6,11,191,2,1,1.2,0.3,Time
,,828098,001,m,20,2025-06-02_16h16.14.015,Serial_Dependence_U,2023.2.3,Win32,243.9024390243686,,,,,,1959.484400000006,83,6,1959.4845,83,,,,1962.8561999999881,1963.3562999999822,1962.3522999999823,1962.8561999999881,1960.4881999999882,1962.3521999999882,1963.3562999999822,1963.856099999994,1963.856099999994,1965.2372999999823,833,1965.2372999999823,3,1965.2372999999823,6,12,192,20,1,0.8,0.3,Time
,,828098,001,m,20,2025-06-02_16h16.14.015,Serial_Dependence_U,2023.2.3,Win32,243.9024390243686,,,,,,1965.2375000000002,82,6,1965.237599999994,82,,,,1969.172900000006,1969.6725999999942,1968.6686999999881,1969.1727999999823,1966.2375000000002,1968.6685,1969.6725999999942,1970.1725999999942,1970.1725999999942,1972.299199999988,1498,1972.299199999988,4,1972.299199999988,6,13,193,28,1,1.4,0.7,Time
,,828098,001,m,20,2025-06-02_16h16.14.015,Serial_Dependence_U,2023.2.3,Win32,243.9024390243686,,,,,,1972.299400000006,160,6,1972.2995,160,,,,1975.865400000006,1976.3637999999821,1975.3641999999882,1975.8652999999822,1973.3030999999942,1975.364099999994,1976.3637999999821,1976.864099999994,1976.864099999994,1978.095400000006,819,1978.095400000006,2,1978.0955000000001,6,14,194,21,1,1,0.3,Time
,,828098,001,m,20,2025-06-02_16h16.14.015,Serial_Dependence_U,2023.2.3,Win32,243.9024390243686,,,,,,1978.0956999999883,253,6,1978.0956999999883,253,,,,1981.435199999988,1981.936400000006,1980.9327999999823,1981.434900000006,1979.099199999988,1980.9325999999942,1981.936400000006,1982.4346999999882,1982.4346999999882,1983.8097999999823,1084,1983.8097999999823,5,1983.8097999999823,6,15,195,15,1,0.8,0.7,Time
,,828098,001,m,20,2025-06-02_16h16.14.015,Serial_Dependence_U,2023.2.3,Win32,243.9024390243686,,,,,,1983.8100000000002,112,6,1983.8100999999942,112,,,,1987.5472999999822,1988.047,1987.045,1987.5471999999882,1984.8116999999882,1987.044900000006,1988.047,1988.546900000006,1988.546900000006,1990.063599999994,1333,1990.063599999994,4,1990.063699999988,6,16,196,7,1,1.2,0.7,Time
,,828098,001,m,20,2025-06-02_16h16.14.015,Serial_Dependence_U,2023.2.3,Win32,243.9024390243686,,,,,,1990.063699999988,126,6,1990.063900000006,126,,,,1994.196900000006,1994.6966999999881,1993.6946999999882,1994.1967999999822,1991.063900000006,1993.6945,1994.6966999999881,1995.1966999999881,1995.1966999999881,1997.040900000006,1487,1997.040900000006,2,1997.0410000000002,6,17,197,29,1,1.6,0.7,Time
,,828098,001,m,20,2025-06-02_16h16.14.015,Serial_Dependence_U,2023.2.3,Win32,243.9024390243686,,,,,,1997.0410000000002,143,6,1997.0410999999942,143,,,,2000.6110999999942,2001.109299999982,2000.107099999994,2000.611,1998.042900000006,2000.1070000000002,2001.109299999982,2001.6090999999942,2001.6090999999942,2003.4340000000002,1477,2003.4340000000002,5,2003.434099999994,6,18,198,1,1,1,0.3,Time
,,828098,001,m,20,2025-06-02_16h16.14.015,Serial_Dependence_U,2023.2.3,Win32,243.9024390243686,,,,,,2003.434199999988,245,6,2003.4342999999822,245,,,,2007.598400000006,2008.098099999994,2007.0966999999882,2007.5982999999821,2004.436299999982,2007.0965999999942,2008.098199999988,2008.596400000006,2008.596400000006,2010.4305999999942,1634,2010.4305999999942,3,2010.430699999988,6,19,199,14,1,1.6,0.3,Time
,,828098,001,m,20,2025-06-02_16h16.14.015,Serial_Dependence_U,2023.2.3,Win32,243.9024390243686,,,,,,2010.430699999988,154,6,2010.430900000006,154,,,,2014.4007999999822,2014.9004000000061,2013.899599999994,2014.400599999994,2011.4357999999822,2013.8995,2014.9004000000061,2015.4002999999823,2015.4004000000061,2017.333599999994,1668,2017.333599999994,4,2017.333699999988,6,20,200,13,1,1.4,0.3,Time
,,828098,001,m,20,2025-06-02_16h16.14.015,Serial_Dependence_U,2023.2.3,Win32,243.9024390243686,,,,,,2017.3337999999821,70,6,2017.333900000006,70,,,,2020.873099999994,2021.3725999999942,2020.369599999994,2020.873,2018.335400000006,2020.3695,2021.3725999999942,2021.8725999999942,2021.872699999988,2024.021199999988,1872,2024.0212999999821,5,2024.0212999999821,6,21,201,16,1,1,0.7,Time
,,828098,001,m,20,2025-06-02_16h16.14.015,Serial_Dependence_U,2023.2.3,Win32,243.9024390243686,,,,,,2024.021400000006,300,6,2024.0215,300,,,,2027.787799999982,2028.287799999982,2027.2835,2027.7876999999883,2025.0230999999942,2027.283400000006,2028.287799999982,2028.7875000000001,2028.7875000000001,2031.0895,1708,2031.0895,5,2031.089599999994,6,22,202,22,1,1.2,0.3,Time
,,828098,001,m,20,2025-06-02_16h16.14.015,Serial_Dependence_U,2023.2.3,Win32,243.9024390243686,,,,,,2031.0897999999822,279,6,2031.0897999999822,279,,,,2034.451900000006,2034.951400000006,2033.950099999994,2034.4517999999823,2032.0895,2033.95,2034.951400000006,2035.4515000000001,2035.4515000000001,2036.5561999999882,838,2036.5561999999882,3,2036.5562999999822,6,23,203,10,1,0.8,0.3,Time
,,828098,001,m,20,2025-06-02_16h16.14.015,Serial_Dependence_U,2023.2.3,Win32,243.9024390243686,,,,,,2036.556400000006,16,6,2036.5565000000001,16,,,,2040.6915999999942,2041.1915999999942,2040.1872999999823,2040.6915000000001,2037.556900000006,2040.1870999999942,2041.1915999999942,2041.691400000006,2041.691400000006,2043.8287999999823,1951,2043.8287999999823,4,2043.8287999999823,6,24,204,19,1,1.6,0.7,Time
,,828098,001,m,20,2025-06-02_16h16.14.015,Serial_Dependence_U,2023.2.3,Win32,243.9024390243686,,,,,,2043.8289000000061,163,6,2043.829,163,,,,2047.364099999994,2047.8620999999941,2046.86,2047.3640000000003,2044.826699999988,2046.8597999999822,2047.8620999999941,2048.362799999982,2048.362900000006,2050.199400000006,1636,2050.199400000006,5,2050.199400000006,6,25,205,26,1,1,0.7,Time
,,828098,001,m,20,2025-06-02_16h16.14.015,Serial_Dependence_U,2023.2.3,Win32,243.9024390243686,,,,,,2050.199599999994,313,6,2050.199699999988,313,,,,2053.9705,2054.47,2053.466199999988,2053.9704000000056,2051.202299999982,2053.466,2054.47,2054.970199999988,2054.970199999988,2056.9035999999937,1561,2056.9035999999937,5,2056.903699999988,6,26,206,12,1,1.2,0.3,Time
,,828098,001,m,20,2025-06-02_16h16.14.015,Serial_Dependence_U,2023.2.3,Win32,243.9024390243686,,,,,,2056.903799999982,78,6,2056.903799999982,78,,,,2060.8745,2061.374,2060.370199999988,2060.8744000000056,2057.907599999994,2060.3700999999937,2061.374099999994,2061.874099999994,2061.874099999994,2063.8385999999937,1778,2063.8385999999937,4,2063.838699999988,6,27,207,23,1,1.4,0.3,Time
,,828098,001,m,20,2025-06-02_16h16.14.015,Serial_Dependence_U,2023.2.3,Win32,243.9024390243686,,,,,,2063.838699999988,188,6,2063.8389000000057,188,,,,2068.003699999988,2068.504699999988,2067.499199999988,2068.0035,2064.8385,2067.499,2068.504699999988,2069.004900000006,2069.004900000006,2070.984199999988,1713,2070.984199999988,4,2070.9844000000057,6,28,208,4,1,1.6,0.3,Time
,,828098,001,m,20,2025-06-02_16h16.14.015,Serial_Dependence_U,2023.2.3,Win32,243.9024390243686,,,,,,2070.9845,234,6,2070.984599999994,234,,,,2074.724299999982,2075.223799999982,2074.22,2074.7239999999997,2071.989199999988,2074.219799999982,2075.223799999982,2075.7239999999997,2075.7239999999997,2077.657199999988,1721,2077.657199999988,5,2077.657299999982,6,29,209,27,1,1.2,0.7,Time
,,828098,001,m,20,2025-06-02_16h16.14.015,Serial_Dependence_U,2023.2.3,Win32,243.9024390243686,,,,,,2077.657400000006,352,7,2181.416599999994,352,s,103.75370000001794,,2184.987699999988,2185.4874999999997,2184.485299999982,2184.987599999994,2182.421099999994,2184.485099999994,2185.4874999999997,2185.987299999982,2185.987299999982,2187.458,1264,2187.458,4,2187.458099999994,7,0,210,11,1,1,0.3,Time
,,828098,001,m,20,2025-06-02_16h16.14.015,Serial_Dependence_U,2023.2.3,Win32,243.9024390243686,,,,,,2187.4581999999878,187,7,2187.459299999982,187,,,,2191.601900000006,2192.099699999988,2191.0985,2191.601699999988,2188.464299999982,2191.0984000000058,2192.0997999999818,2192.5995,2192.5995,2194.485099999994,1667,2194.485099999994,3,2194.485199999988,7,1,211,19,1,1.6,0.7,Time
,,828098,001,m,20,2025-06-02_16h16.14.015,Serial_Dependence_U,2023.2.3,Win32,243.9024390243686,,,,,,2194.485299999982,35,7,2194.485400000006,35,,,,2197.824599999994,2198.324699999988,2197.322599999994,2197.8244999999997,2195.4885,2197.3224999999998,2198.324799999982,2198.8219999999997,2198.8219999999997,2200.2809000000057,1283,2200.2809000000057,5,2200.281,7,2,212,5,1,0.8,0.7,Time
,,828098,001,m,20,2025-06-02_16h16.14.015,Serial_Dependence_U,2023.2.3,Win32,243.9024390243686,,,,,,2200.281099999994,219,7,2200.281199999988,219,,,,2204.020599999994,2204.520199999988,2203.518199999988,2204.0205,2201.285,2203.5179000000057,2204.520199999988,2205.020299999982,2205.020299999982,2206.6005,1556,2206.6005,4,2206.600599999994,7,3,213,27,1,1.2,0.7,Time
,,828098,001,m,20,2025-06-02_16h16.14.015,Serial_Dependence_U,2023.2.3,Win32,243.9024390243686,,,,,,2206.600799999982,267,7,2206.600799999982,267,,,,2210.366,2210.8659000000057,2209.8634000000056,2210.365799999982,2207.601400000006,2209.863199999988,2210.8659000000057,2211.366,2211.366,2212.4260999999938,902,2212.4260999999938,2,2212.426299999982,7,4,214,12,1,1.2,0.3,Time
,,828098,001,m,20,2025-06-02_16h16.14.015,Serial_Dependence_U,2023.2.3,Win32,243.9024390243686,,,,,,2212.426299999982,319,7,2212.4264000000057,319,,,,2216.587900000006,2217.089099999994,2216.0869000000057,2216.587799999982,2213.424199999988,2216.086799999982,2217.089099999994,2217.5865,2217.5865,2219.325299999982,1472,2219.325299999982,2,2219.325299999982,7,5,215,4,1,1.6,0.3,Time
,,828098,001,m,20,2025-06-02_16h16.14.015,Serial_Dependence_U,2023.2.3,Win32,243.9024390243686,,,,,,2219.3255,4,7,2219.3255,4,,,,2222.661400000006,2223.1614999999997,2222.1589999999997,2222.661299999982,2220.326400000006,2222.158799999982,2223.1614999999997,2223.661400000006,2223.661400000006,2224.5820999999937,892,2224.5820999999937,4,2224.582299999982,7,6,216,15,1,0.8,0.7,Time
,,828098,001,m,20,2025-06-02_16h16.14.015,Serial_Dependence_U,2023.2.3,Win32,243.9024390243686,,,,,,2224.5825,85,7,2224.582599999994,85,,,,2228.352900000006,2228.852900000006,2227.848900000006,2228.352799999982,2225.5865,2227.848799999982,2228.852900000006,2229.3505,2229.3505,2230.935299999982,1222,2230.935299999982,3,2230.9354000000058,7,7,217,22,1,1.2,0.3,Time
,,828098,001,m,20,2025-06-02_16h16.14.015,Serial_Dependence_U,2023.2.3,Win32,243.9024390243686,,,,,,2230.9354000000058,186,7,2230.9355,186,,,,2234.4755,2234.973599999994,2233.971400000006,2234.475299999982,2231.936699999988,2233.971299999982,2234.973599999994,2235.4705,2235.4705,2236.813199999988,1057,2236.813199999988,4,2236.813299999982,7,8,218,26,1,1,0.7,Time
,,828098,001,m,20,2025-06-02_16h16.14.015,Serial_Dependence_U,2023.2.3,Win32,243.9024390243686,,,,,,2236.813400000006,213,7,2236.8134999999997,213,,,,2240.775900000006,2241.273400000006,2240.273699999988,2240.775699999988,2237.813199999988,2240.2735,2241.273400000006,2241.773299999982,2241.773299999982,2243.365699999988,1231,2243.365799999982,2,2243.3659000000057,7,9,219,3,1,1.4,0.3,Time
,,828098,001,m,20,2025-06-02_16h16.14.015,Serial_Dependence_U,2023.2.3,Win32,243.9024390243686,,,,,,2243.366099999994,295,7,2243.366099999994,295,,,,2247.530400000006,2248.028799999982,2247.0296999999878,2247.530299999982,2244.365299999982,2247.0294999999996,2248.0289000000057,2248.528799999982,2248.528799999982,2250.404599999994,1475,2250.404599999994,2,2250.4046999999878,7,10,220,24,1,1.6,0.3,Time
,,828098,001,m,20,2025-06-02_16h16.14.015,Serial_Dependence_U,2023.2.3,Win32,243.9024390243686,,,,,,2250.404799999982,93,7,2250.404799999982,93,,,,2254.540299999982,2255.039400000006,2254.037699999988,2254.5399000000057,2251.4064000000058,2254.0375,2255.0395,2255.539699999988,2255.539699999988,2257.3621999999878,1486,2257.3621999999878,2,2257.362299999982,7,11,221,9,1,1.6,0.7,Time
,,828098,001,m,20,2025-06-02_16h16.14.015,Serial_Dependence_U,2023.2.3,Win32,243.9024390243686,,,,,,2257.362400000006,255,7,2257.362400000006,255,,,,2260.898099999994,2261.397699999988,2260.393900000006,2260.8979999999997,2258.3624999999997,2260.393799999982,2261.397699999988,2261.8995,2261.8995,2263.574900000006,1454,2263.574900000006,5,2263.575,7,12,222,6,1,1,0.7,Time
,,828098,001,m,20,2025-06-02_16h16.14.015,Serial_Dependence_U,2023.2.3,Win32,243.9024390243686,,,,,,2263.575099999994,338,7,2263.575199999988,338,,,,2267.5395,2268.039199999988,2267.037199999988,2267.539299999982,2264.5769999999998,2267.037199999988,2268.039199999988,2268.5395,2268.5395,2270.145599999994,1265,2270.145599999994,2,2270.1456999999878,7,13,223,23,1,1.4,0.3,Time
,,828098,001,m,20,2025-06-02_16h16.14.015,Serial_Dependence_U,2023.2.3,Win32,243.9024390243686,,,,,,2270.1456999999878,264,7,2270.145799999982,264,,,,2273.7119000000057,2274.21,2273.207900000006,2273.7119000000057,2271.1456999999878,2273.207699999988,2274.21,2274.7099000000057,2274.7099000000057,2275.7014999999997,756,2275.7014999999997,2,2275.701699999988,7,14,224,21,1,1,0.3,Time
,,828098,001,m,20,2025-06-02_16h16.14.015,Serial_Dependence_U,2023.2.3,Win32,243.9024390243686,,,,,,2275.701799999982,301,7,2275.701900000006,301,,,,2279.6746999999878,2280.173699999988,2279.1701999999877,2279.674400000006,2276.707199999988,2279.17,2280.173699999988,2280.672199999988,2280.672199999988,2282.259799999982,1310,2282.259799999982,2,2282.259900000006,7,15,225,13,1,1.4,0.3,Time
,,828098,001,m,20,2025-06-02_16h16.14.015,Serial_Dependence_U,2023.2.3,Win32,243.9024390243686,,,,,,2282.2599999999998,42,7,2282.260099999994,42,,,,2286.203299999982,2286.701199999988,2285.697299999982,2286.203199999988,2283.2639999999997,2285.697099999994,2286.701199999988,2287.201199999988,2287.201199999988,2289.0885999999937,1631,2289.0885999999937,4,2289.088699999988,7,16,226,18,1,1.4,0.7,Time
,,828098,001,m,20,2025-06-02_16h16.14.015,Serial_Dependence_U,2023.2.3,Win32,243.9024390243686,,,,,,2289.088799999982,190,7,2289.088799999982,190,,,,2292.8269999999998,2293.3259000000057,2292.323900000006,2292.826799999982,2290.0915,2292.323799999982,2293.3259000000057,2293.826099999994,2293.826099999994,2295.4134999999997,1327,2295.4134999999997,4,2295.413599999994,7,17,227,7,1,1.2,0.7,Time
,,828098,001,m,20,2025-06-02_16h16.14.015,Serial_Dependence_U,2023.2.3,Win32,243.9024390243686,,,,,,2295.413699999988,170,7,2295.413900000006,170,,,,2298.785599999994,2299.284400000006,2298.282299999982,2298.7854000000057,2296.419,2298.282199999988,2299.284400000006,2299.784099999994,2299.784099999994,2300.686299999982,642,2300.686299999982,2,2300.6865,7,18,228,10,1,0.8,0.3,Time
,,828098,001,m,20,2025-06-02_16h16.14.015,Serial_Dependence_U,2023.2.3,Win32,243.9024390243686,,,,,,2300.686599999994,141,7,2300.686699999988,141,,,,2304.2526999999877,2304.7504999999996,2303.749099999994,2304.252599999994,2301.684400000006,2303.749,2304.7504999999996,2305.250599999994,2305.250599999994,2306.406900000006,900,2306.4069999999997,2,2306.4069999999997,7,19,229,1,1,1,0.3,Time
,,828098,001,m,20,2025-06-02_16h16.14.015,Serial_Dependence_U,2023.2.3,Win32,243.9024390243686,,,,,,2306.407099999994,270,7,2306.407199999988,270,,,,2310.148299999982,2310.646299999982,2309.6445,2310.148199999988,2307.411299999982,2309.644299999982,2310.646299999982,2311.146299999982,2311.146299999982,2312.7920999999938,1379,2312.792199999988,4,2312.792199999988,7,20,230,17,1,1.2,0.7,Time
,,828098,001,m,20,2025-06-02_16h16.14.015,Serial_Dependence_U,2023.2.3,Win32,243.9024390243686,,,,,,2312.792299999982,143,7,2312.7924000000057,143,,,,2316.931400000006,2317.4294999999997,2316.4279000000056,2316.931299999982,2313.7965,2316.4279000000056,2317.4294999999997,2317.9294999999997,2317.9294999999997,2320.1295,1801,2320.1295,4,2320.129599999994,7,21,231,29,1,1.6,0.7,Time
,,828098,001,m,20,2025-06-02_16h16.14.015,Serial_Dependence_U,2023.2.3,Win32,243.9024390243686,,,,,,2320.129799999982,327,7,2320.129799999982,327,,,,2324.064799999982,2324.562599999994,2323.560900000006,2324.064599999994,2321.127299999982,2323.560799999982,2324.562599999994,2325.060099999994,2325.060199999988,2327.1980999999937,1916,2327.1980999999937,5,2327.198199999988,7,22,232,28,1,1.4,0.7,Time
,,828098,001,m,20,2025-06-02_16h16.14.015,Serial_Dependence_U,2023.2.3,Win32,243.9024390243686,,,,,,2327.198299999982,331,7,2327.1984000000057,331,,,,2331.363699999988,2331.862400000006,2330.8605,2331.363699999988,2328.198,2330.860400000006,2331.8624999999997,2332.3599999999997,2332.3599999999997,2334.677299999982,1967,2334.677299999982,4,2334.677400000006,7,23,233,14,1,1.6,0.3,Time
,,828098,001,m,20,2025-06-02_16h16.14.015,Serial_Dependence_U,2023.2.3,Win32,243.9024390243686,,,,,,2334.6775,257,7,2334.677599999994,257,,,,2338.016900000006,2338.5161999999877,2337.5144999999998,2338.016699999988,2335.6811999999877,2337.514400000006,2338.516299999982,2339.016400000006,2339.016400000006,2340.089199999988,837,2340.089199999988,3,2340.089299999982,7,24,234,25,1,0.8,0.7,Time
,,828098,001,m,20,2025-06-02_16h16.14.015,Serial_Dependence_U,2023.2.3,Win32,243.9024390243686,,,,,,2340.0895,311,7,2340.0895,311,,,,2343.4539999999997,2343.951400000006,2342.951900000006,2343.453900000006,2341.0894000000058,2342.951799999982,2343.9514999999997,2344.4494999999997,2344.4494999999997,2345.672900000006,903,2345.673,4,2345.673,7,25,235,0,1,0.8,0.3,Time
,,828098,001,m,20,2025-06-02_16h16.14.015,Serial_Dependence_U,2023.2.3,Win32,243.9024390243686,,,,,,2345.673099999994,238,7,2345.673099999994,238,,,,2349.212299999982,2349.711799999982,2348.71,2349.212199999988,2346.677699999988,2348.7099000000057,2349.711799999982,2350.212,2350.212,2352.047400000006,1550,2352.047400000006,5,2352.047599999994,7,26,236,16,1,1,0.7,Time
,,828098,001,m,20,2025-06-02_16h16.14.015,Serial_Dependence_U,2023.2.3,Win32,243.9024390243686,,,,,,2352.047699999988,227,7,2352.047699999988,227,,,,2355.813400000006,2356.313400000006,2355.310199999988,2355.813400000006,2353.047599999994,2355.31,2356.313400000006,2356.8117999999818,2356.8117999999818,2358.1045999999938,1071,2358.1045999999938,2,2358.104699999988,7,27,237,2,1,1.2,0.3,Time
,,828098,001,m,20,2025-06-02_16h16.14.015,Serial_Dependence_U,2023.2.3,Win32,243.9024390243686,,,,,,2358.104799999982,327,7,2358.104799999982,327,,,,2362.0409999999997,2362.5406999999877,2361.536900000006,2362.040900000006,2359.105699999988,2361.536799999982,2362.5406999999877,2363.040900000006,2363.040900000006,2364.935,1679,2364.935,4,2364.935099999994,7,28,238,8,1,1.4,0.7,Time
,,828098,001,m,20,2025-06-02_16h16.14.015,Serial_Dependence_U,2023.2.3,Win32,243.9024390243686,,,,,,2364.935199999988,172,7,2364.935299999982,172,,,,2368.3010999999938,2368.7989000000057,2367.7969000000057,2368.3009000000056,2365.9345,2367.7969000000057,2368.7989000000057,2369.2989000000057,2369.2989000000057,2369.996699999988,600,2369.996699999988,2,2369.996699999988,7,29,239,20,1,0.8,0.3,Time
,,828098,001,m,20,2025-06-02_16h16.14.015,Serial_Dependence_U,2023.2.3,Win32,243.9024390243686,,,,,,2369.996900000006,142,8,2582.111799999982,142,s,212.1103000000121,,2586.247299999982,2586.753199999988,2585.745,2586.2470999999937,2583.114,2585.7447999999818,2586.753199999988,2587.2535,2587.2535,2589.442699999988,2025,2589.442699999988,4,2589.442799999982,8,0,240,19,1,1.6,0.7,Time
,,828098,001,m,20,2025-06-02_16h16.14.015,Serial_Dependence_U,2023.2.3,Win32,243.9024390243686,,,,,,2589.4429999999998,276,8,2589.4435,276,,,,2593.186699999988,2593.684199999988,2592.682199999988,2593.186400000006,2590.447400000006,2592.682099999994,2593.684199999988,2594.181900000006,2594.181900000006,2595.898699999988,1707,2595.898699999988,5,2595.898799999982,8,1,241,7,1,1.2,0.7,Time
,,828098,001,m,20,2025-06-02_16h16.14.015,Serial_Dependence_U,2023.2.3,Win32,243.9024390243686,,,,,,2595.8989000000056,59,8,2595.899,59,,,,2599.239799999982,2599.740099999994,2598.7364000000057,2599.239599999994,2596.903199999988,2598.7360999999937,2599.740199999988,2600.239900000006,2600.239900000006,2601.411400000006,946,2601.411400000006,4,2601.411599999994,8,2,242,25,1,0.8,0.7,Time
,,828098,001,m,20,2025-06-02_16h16.14.015,Serial_Dependence_U,2023.2.3,Win32,243.9024390243686,,,,,,2601.411699999988,320,8,2601.411699999988,320,,,,2605.5485999999937,2606.0464000000056,2605.044699999988,2605.5485,2602.411400000006,2605.0445,2606.0464000000056,2606.546299999982,2606.546299999982,2608.3579999999997,1488,2608.3579999999997,2,2608.358199999988,8,3,243,29,1,1.6,0.7,Time
,,828098,001,m,20,2025-06-02_16h16.14.015,Serial_Dependence_U,2023.2.3,Win32,243.9024390243686,,,,,,2608.358299999982,326,8,2608.358400000006,326,,,,2612.127299999982,2612.625599999994,2611.6245999999937,2612.127299999982,2609.363199999988,2611.6245,2612.625599999994,2613.125400000006,2613.125400000006,2614.677400000006,1321,2614.6775,4,2614.677599999994,8,4,244,2,1,1.2,0.3,Time
,,828098,001,m,20,2025-06-02_16h16.14.015,Serial_Dependence_U,2023.2.3,Win32,243.9024390243686,,,,,,2614.677699999988,70,8,2614.677699999988,70,,,,2618.2159000000056,2618.710199999988,2617.710799999982,2618.2157999999818,2615.677299999982,2617.710699999988,2618.710299999982,2619.210199999988,2619.210299999982,2620.644199999988,1091,2620.644199999988,4,2620.644299999982,8,5,245,16,1,1,0.7,Time
,,828098,001,m,20,2025-06-02_16h16.14.015,Serial_Dependence_U,2023.2.3,Win32,243.9024390243686,,,,,,2620.6445,307,8,2620.6445,307,,,,2624.5815,2625.079299999982,2624.0795,2624.581400000006,2621.647599999994,2624.079299999982,2625.079400000006,2625.579400000006,2625.579400000006,2627.348099999994,1552,2627.348099999994,4,2627.348199999988,8,6,246,28,1,1.4,0.7,Time
,,828098,001,m,20,2025-06-02_16h16.14.015,Serial_Dependence_U,2023.2.3,Win32,243.9024390243686,,,,,,2627.348299999982,157,8,2627.348299999982,157,,,,2630.688199999988,2631.1875,2630.1855,2630.687900000006,2628.351699999988,2630.185299999982,2631.1875,2631.6875,2631.6875,2633.444299999982,1363,2633.444299999982,5,2633.444299999982,8,7,247,15,1,0.8,0.7,Time
,,828098,001,m,20,2025-06-02_16h16.14.015,Serial_Dependence_U,2023.2.3,Win32,243.9024390243686,,,,,,2633.4445,186,8,2633.444599999994,186,,,,2636.783299999982,2637.283199999988,2636.279099999994,2636.783199999988,2634.446799999982,2636.279,2637.283199999988,2637.783199999988,2637.783199999988,2639.151799999982,1245,2639.1519000000058,5,2639.1519000000058,8,8,248,5,1,0.8,0.7,Time
,,828098,001,m,20,2025-06-02_16h16.14.015,Serial_Dependence_U,2023.2.3,Win32,243.9024390243686,,,,,,2639.152099999994,176,8,2639.152099999994,176,,,,2642.5225,2643.020299999982,2642.018599999994,2642.5224000000057,2640.1559000000057,2642.018400000006,2643.020400000006,2643.520299999982,2643.520299999982,2644.814299999982,1049,2644.8144000000057,5,2644.8145,8,9,249,10,1,0.8,0.3,Time
,,828098,001,m,20,2025-06-02_16h16.14.015,Serial_Dependence_U,2023.2.3,Win32,243.9024390243686,,,,,,2644.814599999994,211,8,2644.814599999994,211,,,,2648.949699999988,2649.4519999999998,2648.446699999988,2648.949699999988,2645.8164000000056,2648.446599999994,2649.4519999999998,2649.952799999982,2649.952799999982,2652.103699999988,1954,2652.103699999988,4,2652.103799999982,8,10,250,9,1,1.6,0.7,Time
,,828098,001,m,20,2025-06-02_16h16.14.015,Serial_Dependence_U,2023.2.3,Win32,243.9024390243686,,,,,,2652.104,297,8,2652.104,297,,,,2656.071799999982,2656.5715,2655.569099999994,2656.071699999988,2653.107799999982,2655.569,2656.5715,2657.071599999994,2657.071599999994,2659.4129000000057,1968,2659.413,5,2659.413099999994,8,11,251,23,1,1.4,0.3,Time
,,828098,001,m,20,2025-06-02_16h16.14.015,Serial_Dependence_U,2023.2.3,Win32,243.9024390243686,,,,,,2659.413099999994,58,8,2659.413199999988,58,,,,2663.5805,2664.078,2663.0769999999998,2663.580299999982,2660.413699999988,2663.076900000006,2664.078,2664.575799999982,2664.5759000000057,2666.476599999994,1567,2666.476599999994,3,2666.476699999988,8,12,252,24,1,1.6,0.3,Time
,,828098,001,m,20,2025-06-02_16h16.14.015,Serial_Dependence_U,2023.2.3,Win32,243.9024390243686,,,,,,2666.476900000006,137,8,2666.476900000006,137,,,,2670.2416999999878,2670.742099999994,2669.7385,2670.241599999994,2667.474299999982,2669.7384000000056,2670.742099999994,2671.240299999982,2671.2404000000056,2673.1515,1538,2673.1515,4,2673.151599999994,8,13,253,12,1,1.2,0.3,Time
,,828098,001,m,20,2025-06-02_16h16.14.015,Serial_Dependence_U,2023.2.3,Win32,243.9024390243686,,,,,,2673.151699999988,203,8,2673.151799999982,203,,,,2676.7155,2677.215299999982,2676.213299999982,2676.715299999982,2674.1514000000057,2676.213199999988,2677.215299999982,2677.715199999988,2677.715299999982,2679.130099999994,1154,2679.130099999994,4,2679.130199999988,8,14,254,21,1,1,0.3,Time
,,828098,001,m,20,2025-06-02_16h16.14.015,Serial_Dependence_U,2023.2.3,Win32,243.9024390243686,,,,,,2679.130299999982,224,8,2679.130400000006,224,,,,2682.663,2683.1622999999818,2682.158900000006,2682.6629000000057,2680.128199999988,2682.158799999982,2683.1622999999818,2683.662099999994,2683.662199999988,2685.4419000000057,1449,2685.4419000000057,5,2685.442,8,15,255,6,1,1,0.7,Time
,,828098,001,m,20,2025-06-02_16h16.14.015,Serial_Dependence_U,2023.2.3,Win32,243.9024390243686,,,,,,2685.442099999994,49,8,2685.442199999988,49,,,,2688.805599999994,2689.304099999994,2688.304900000006,2688.8055,2686.4412999999818,2688.304699999988,2689.3041999999878,2689.804299999982,2689.804299999982,2690.644099999994,752,2690.644199999988,2,2690.644299999982,8,16,256,0,1,0.8,0.3,Time
