Scale_setup.started,Scale_setup.stopped,participant,session,sex,age,date,expName,psychopyVersion,OS,frameRate,Intro.started,Intro.stopped,key_resp_2.keys,key_resp_2.rt,key_resp_2.duration,block.started,direction,Block_id,block.stopped,trial_direction,Block_resp_2.keys,Block_resp_2.rt,Block_resp_2.duration,ITI.started,ITI.stopped,Mask_2.started,Mask_2.stopped,encoding.started,encoding.stopped,Cue.started,Cue.stopped,Response.started,Response.stopped,keyDuration,Feedback_Time.started,FeedbackID_T,Feedback_Time.stopped,trials.thisRepN,trials.thisTrialN,trials.thisN,trials.thisIndex,trials.ran,TimeDur,Coherence1,TrialType
0.00010000014304978322,0.00029999995231833054,866424,001,男,20,2025-06-04_20h00.33.894,Serial_Dependence_U,2023.2.3,Win32,166.66666666666666,,,,,,,,,,,,,,,,,,,,,,,,,,,,,,,,,,,
,,866424,001,男,20,2025-06-04_20h00.33.894,Serial_Dependence_U,2023.2.3,Win32,166.66666666666666,75.12879999995232,171.845,space,96.69670000004768,,,,,,,,,,,,,,,,,,,,,,,,,,,,,,,
,,866424,001,男,20,2025-06-04_20h00.33.894,Serial_Dependence_U,2023.2.3,Win32,166.66666666666666,,,,,,171.8542999999523,180,0,181.19270000004767,180,s,9.327900000095354,,185.15870000004767,185.65820000004769,184.65610000014306,185.15870000004767,182.18970000004768,184.65590000009536,185.65820000004769,186.15960000014306,186.1597999999523,194.25960000014305,113,194.2597000000477,1,195.25890000009537,0,0,0,3,1,1.4,0.3,Time
,,866424,001,男,20,2025-06-04_20h00.33.894,Serial_Dependence_U,2023.2.3,Win32,166.66666666666666,,,,,,195.2592999999523,8,0,195.26079999995233,8,,,,199.39749999999998,199.89479999995228,198.8949000000954,199.3974000000954,196.2597999999523,198.89479999995228,199.89479999995228,200.39650000000003,200.39650000000003,211.38429999995233,5497,211.38429999995233,5,212.3882000000477,0,1,1,29,1,1.6,0.7,Time
,,866424,001,男,20,2025-06-04_20h00.33.894,Serial_Dependence_U,2023.2.3,Win32,166.66666666666666,,,,,,212.3886000001431,279,0,212.3887000000477,279,,,,215.75900000000004,216.256,215.25579999995236,215.7589000000954,213.3907000000477,215.2557000000477,216.2562000000477,216.75379999995235,216.7539000000954,220.2614000000954,2341,220.26150000000004,5,221.2544000000954,0,2,2,0,1,0.8,0.3,Time
,,866424,001,男,20,2025-06-04_20h00.33.894,Serial_Dependence_U,2023.2.3,Win32,166.66666666666666,,,,,,221.25479999995233,172,0,221.25490000009538,172,,,,225.20529999995236,225.70000000000002,224.70129999995234,225.20529999995236,222.2591000001431,224.70129999995234,225.70000000000002,226.20020000004772,226.20020000004772,230.11250000000004,2840,230.11250000000004,5,231.1124000000954,0,3,3,8,1,1.4,0.7,Time
,,866424,001,男,20,2025-06-04_20h00.33.894,Serial_Dependence_U,2023.2.3,Win32,166.66666666666666,,,,,,231.11270000004768,204,0,231.11279999995233,204,,,,235.29820000004773,235.80000000000004,234.78960000014305,235.29810000014308,232.12360000014306,234.7895,235.80000000000004,236.29810000014308,236.29820000004773,240.2535,3208,240.2535,5,241.25279999995232,0,4,4,24,1,1.6,0.3,Time
,,866424,001,男,20,2025-06-04_20h00.33.894,Serial_Dependence_U,2023.2.3,Win32,166.66666666666666,,,,,,241.25290000009537,175,0,241.25310000014306,175,,,,245.40529999995235,245.90460000014306,244.8955,245.40529999995235,242.2612000000477,244.8955,245.9047000000477,246.40579999995234,246.40579999995234,250.70129999995234,3152,250.7014000000954,5,251.69960000014308,0,5,5,19,1,1.6,0.7,Time
,,866424,001,男,20,2025-06-04_20h00.33.894,Serial_Dependence_U,2023.2.3,Win32,166.66666666666666,,,,,,251.69990000009537,264,0,251.70010000014307,264,,,,255.4849000000954,255.98460000014305,254.97850000000003,255.48479999995234,252.70640000009539,254.97829999995233,255.98460000014305,256.4809000000954,256.4809000000954,260.6682000000477,4023,260.6682000000477,5,261.6672999999523,0,6,6,22,1,1.2,0.3,Time
,,866424,001,男,20,2025-06-04_20h00.33.894,Serial_Dependence_U,2023.2.3,Win32,166.66666666666666,,,,,,261.6677000000477,353,0,261.6677999999523,353,,,,265.43050000000005,265.9267999999523,264.92940000009537,265.43050000000005,262.6647999999524,264.9292999999524,265.92690000009543,266.42600000000004,266.42610000014304,269.8601000001431,2872,269.8601000001431,5,270.8620000000001,0,7,7,12,1,1.2,0.3,Time
,,866424,001,男,20,2025-06-04_20h00.33.894,Serial_Dependence_U,2023.2.3,Win32,166.66666666666666,,,,,,270.86240000009536,131,0,270.86250000000007,131,,,,274.6106000001431,275.10910000014303,274.10260000014307,274.6106000001431,271.86740000009536,274.10260000014307,275.10910000014303,275.6092999999523,275.60940000009543,279.4196000001431,3179,279.41970000004767,5,280.42170000004774,0,8,8,27,1,1.2,0.7,Time
,,866424,001,男,20,2025-06-04_20h00.33.894,Serial_Dependence_U,2023.2.3,Win32,166.66666666666666,,,,,,280.422100000143,347,0,280.4222999999523,347,,,,284.1674000000954,284.6685,283.6632000000477,284.1674000000954,281.4234000000954,283.663,284.6685,285.16600000000005,285.16620000004775,289.6677000000477,3096,289.6677000000477,5,290.6642000000477,0,9,9,7,1,1.2,0.7,Time
,,866424,001,男,20,2025-06-04_20h00.33.894,Serial_Dependence_U,2023.2.3,Win32,166.66666666666666,,,,,,290.6644000000954,178,0,290.6645,178,,,,294.6120000000001,295.11379999995233,294.10370000004775,294.6119000000954,291.6726000001431,294.10370000004775,295.11379999995233,295.61400000000003,295.61400000000003,300.51129999995237,4274,300.51129999995237,5,301.514,0,10,10,28,1,1.4,0.7,Time
,,866424,001,男,20,2025-06-04_20h00.33.894,Serial_Dependence_U,2023.2.3,Win32,166.66666666666666,,,,,,301.5144000000954,277,0,301.5144000000954,277,,,,305.0631000001431,305.56160000014313,304.5621000001431,305.063,302.5196000001431,304.5621000001431,305.56160000014313,306.063,306.063,310.6237999999523,3269,310.6237999999523,5,311.6247999999523,0,11,11,16,1,1,0.7,Time
,,866424,001,男,20,2025-06-04_20h00.33.894,Serial_Dependence_U,2023.2.3,Win32,166.66666666666666,,,,,,311.625,256,0,311.6251000001431,256,,,,314.9766000001431,315.4727999999524,314.46970000004774,314.9766000001431,312.63820000004773,314.46970000004774,315.4727999999524,315.97270000004767,315.97270000004767,319.133600000143,3136,319.133600000143,5,320.1294000000954,0,12,12,5,1,0.8,0.7,Time
,,866424,001,男,20,2025-06-04_20h00.33.894,Serial_Dependence_U,2023.2.3,Win32,166.66666666666666,,,,,,320.1297999999523,200,0,320.1297999999523,200,,,,323.50160000014307,323.99870000004773,322.998600000143,323.50160000014307,321.1259000000954,322.998600000143,323.99870000004773,324.4967999999524,324.4967999999524,328.1007000000477,3267,328.1007999999523,5,329.10290000009536,0,13,13,10,1,0.8,0.3,Time
,,866424,001,男,20,2025-06-04_20h00.33.894,Serial_Dependence_U,2023.2.3,Win32,166.66666666666666,,,,,,329.10329999995236,264,0,329.10329999995236,264,,,,332.87350000000004,333.37270000004776,332.3706000001431,332.87350000000004,330.1059000000954,332.3705,333.37279999995235,333.8706000001431,333.8706000001431,337.731,3558,337.731,5,338.72860000014305,0,14,14,2,1,1.2,0.3,Time
,,866424,001,男,20,2025-06-04_20h00.33.894,Serial_Dependence_U,2023.2.3,Win32,166.66666666666666,,,,,,338.72900000000004,311,0,338.72910000014303,311,,,,342.70950000000005,343.2064000000954,342.2072000000477,342.70950000000005,339.7359000000954,342.2071000001431,343.2065,343.7077999999524,343.7079000000954,347.73270000004766,3748,347.73270000004766,5,348.72910000014303,0,15,15,13,1,1.4,0.3,Time
,,866424,001,男,20,2025-06-04_20h00.33.894,Serial_Dependence_U,2023.2.3,Win32,166.66666666666666,,,,,,348.72940000009544,72,0,348.72940000009544,72,,,,352.30520000004776,352.80479999995237,351.7982000000477,352.30510000014306,349.7325000000001,351.7982000000477,352.80479999995237,353.30079999995235,353.30079999995235,356.9667999999523,3618,356.9667999999523,5,357.95990000009544,0,16,16,11,1,1,0.3,Time
,,866424,001,男,20,2025-06-04_20h00.33.894,Serial_Dependence_U,2023.2.3,Win32,166.66666666666666,,,,,,357.96010000014303,58,0,357.96020000004773,58,,,,361.9317000000477,362.4291000001431,361.42629999995233,361.931600000143,358.9624000000954,361.42629999995233,362.4291000001431,362.92990000009536,362.92990000009536,367.09020000004773,4008,367.09020000004773,5,368.0921000001431,0,17,17,23,1,1.4,0.3,Time
,,866424,001,男,20,2025-06-04_20h00.33.894,Serial_Dependence_U,2023.2.3,Win32,166.66666666666666,,,,,,368.0925,229,0,368.0926000001431,229,,,,371.43960000014306,371.9432999999524,370.9390000000001,371.43950000000007,369.10290000009536,370.9390000000001,371.9432999999524,372.4415,372.4415,375.0624000000954,2609,375.0624000000954,5,376.06500000000005,0,18,18,15,1,0.8,0.7,Time
,,866424,001,男,20,2025-06-04_20h00.33.894,Serial_Dependence_U,2023.2.3,Win32,166.66666666666666,,,,,,376.06510000014305,355,0,376.06520000004775,355,,,,379.41190000009544,379.9082999999523,378.9044000000954,379.41190000009544,377.071,378.9044000000954,379.9082999999523,380.4096000001431,380.4097000000477,383.716,3085,383.716,5,384.7077000000477,0,19,19,25,1,0.8,0.7,Time
,,866424,001,男,20,2025-06-04_20h00.33.894,Serial_Dependence_U,2023.2.3,Win32,166.66666666666666,,,,,,384.7081000001431,321,0,384.70820000004767,321,,,,388.28040000009537,388.778,387.77700000000004,388.28040000009537,385.7116000001431,387.77700000000004,388.7781000001431,389.28520000004767,389.28520000004767,392.7892000000477,3352,392.7892000000477,5,393.7939000000954,0,20,20,21,1,1,0.3,Time
,,866424,001,男,20,2025-06-04_20h00.33.894,Serial_Dependence_U,2023.2.3,Win32,166.66666666666666,,,,,,393.7941000001431,8,0,393.7942000000477,8,,,,397.1689000000954,397.6647000000477,396.66629999995234,397.1687999999523,394.80100000000004,396.66610000014305,397.6647000000477,398.16540000009536,398.16550000000007,402.40140000009535,3229,402.40140000009535,5,403.3932999999523,0,21,21,20,1,0.8,0.3,Time
,,866424,001,男,20,2025-06-04_20h00.33.894,Serial_Dependence_U,2023.2.3,Win32,166.66666666666666,,,,,,403.3936000001431,172,0,403.3937000000477,172,,,,407.5729000000954,408.072,407.06579999995233,407.5727999999524,404.4037999999523,407.06579999995233,408.0721000001431,408.5715,408.5716000001431,412.63840000009543,3630,412.63840000009543,5,413.6342999999523,0,22,22,4,1,1.6,0.3,Time
,,866424,001,男,20,2025-06-04_20h00.33.894,Serial_Dependence_U,2023.2.3,Win32,166.66666666666666,,,,,,413.6346000001431,239,0,413.6347000000477,239,,,,417.19520000004775,417.69079999995233,416.6815,417.19520000004775,414.6437000000477,416.68129999995233,417.69100000000003,418.18970000004765,418.18979999995236,422.78179999995234,3492,422.78179999995234,5,423.7786000001431,0,23,23,6,1,1,0.7,Time
,,866424,001,男,20,2025-06-04_20h00.33.894,Serial_Dependence_U,2023.2.3,Win32,166.66666666666666,,,,,,423.7787999999523,252,0,423.7789000000954,252,,,,427.92550000000006,428.422,427.4237000000477,427.92529999995236,424.78760000014313,427.4236000001431,428.422,428.91970000004767,428.9197999999524,433.00679999995236,3552,433.00690000009536,5,434.0089000000954,0,24,24,9,1,1.6,0.7,Time
,,866424,001,男,20,2025-06-04_20h00.33.894,Serial_Dependence_U,2023.2.3,Win32,166.66666666666666,,,,,,434.0092000000477,145,0,434.0092999999523,145,,,,437.9476000001431,438.4462999999523,437.4425,437.9475,435.0091000001431,437.4425,438.4462999999523,438.9471000001431,438.9472000000477,443.0436000001431,3588,443.0437000000477,5,444.0377000000477,0,25,25,18,1,1.4,0.7,Time
,,866424,001,男,20,2025-06-04_20h00.33.894,Serial_Dependence_U,2023.2.3,Win32,166.66666666666666,,,,,,444.0379000000954,328,0,444.0381000001431,328,,,,447.61820000004775,448.11410000014314,447.1105,447.61820000004775,445.04529999995236,447.1105,448.11420000004773,448.60800000000006,448.60810000014305,451.7447000000477,2864,451.7447000000477,5,452.7465000000001,0,26,26,1,1,1,0.3,Time
,,866424,001,男,20,2025-06-04_20h00.33.894,Serial_Dependence_U,2023.2.3,Win32,166.66666666666666,,,,,,452.7467999999524,227,0,452.74700000000007,227,,,,456.49729999995236,456.9987999999523,455.9916000001431,456.49729999995236,453.75240000009546,455.9914000000954,456.9987999999523,457.4995,457.4996000001431,461.7164000000954,3381,461.7165,5,462.7122000000477,0,27,27,17,1,1.2,0.7,Time
,,866424,001,男,20,2025-06-04_20h00.33.894,Serial_Dependence_U,2023.2.3,Win32,166.66666666666666,,,,,,462.7125000000001,139,0,462.7127000000478,139,,,,466.8900000000001,467.3896000001431,466.38320000004774,466.8899000000954,463.71360000014306,466.38320000004774,467.3896000001431,467.88760000014315,467.88770000004774,472.711,4291,472.711,5,473.7127999999524,0,28,28,14,1,1.6,0.3,Time
,,866424,001,男,20,2025-06-04_20h00.33.894,Serial_Dependence_U,2023.2.3,Win32,166.66666666666666,,,,,,473.7129000000954,108,0,473.7130000000001,108,,,,477.26250000000005,477.76320000004773,476.75690000009547,477.26250000000005,474.7206000001431,476.75690000009547,477.76320000004773,478.2596000001431,478.2596000001431,481.8267000000477,3107,481.8267000000477,5,482.8276000001431,0,29,29,26,1,1,0.7,Time
,,866424,001,男,20,2025-06-04_20h00.33.894,Serial_Dependence_U,2023.2.3,Win32,166.66666666666666,,,,,,482.8280000000001,306,1,502.4419000000954,306,s,19.598199999809367,,506.21010000014314,506.7080000000001,505.7077999999524,506.21000000000004,503.4425,505.7077999999524,506.7080000000001,507.20510000014315,507.20520000004774,511.86770000004776,4004,511.86770000004776,5,511.87190000009537,1,0,30,12,1,1.2,0.3,Time
,,866424,001,男,20,2025-06-04_20h00.33.894,Serial_Dependence_U,2023.2.3,Win32,166.66666666666666,,,,,,511.87210000014306,190,1,511.87270000004776,190,,,,515.843600000143,516.3422999999524,515.3414000000954,515.843600000143,512.8762999999524,515.3412999999524,516.3424000000954,516.8397000000477,516.8397000000477,517.2447999999524,9,517.2447999999524,1,517.2494000000954,1,1,31,3,1,1.4,0.3,Time
,,866424,001,男,20,2025-06-04_20h00.33.894,Serial_Dependence_U,2023.2.3,Win32,166.66666666666666,,,,,,517.2496000001431,220,1,517.2496000001431,220,,,,520.9909000000954,521.4916000001431,520.4892999999523,520.9909000000954,518.2507999999524,520.4892999999523,521.4916000001431,521.9894000000954,521.9895,525.7851000001431,3540,525.7852000000478,5,525.7897999999524,1,2,32,7,1,1.2,0.7,Time
,,866424,001,男,20,2025-06-04_20h00.33.894,Serial_Dependence_U,2023.2.3,Win32,166.66666666666666,,,,,,525.7900000000001,282,1,525.7900000000001,282,,,,529.3374000000954,529.8371000001431,528.8329000000954,529.3372999999524,526.7992000000478,528.8327999999524,529.8371000001431,530.3380000000001,530.3381000001431,534.3797000000477,3597,534.3797000000477,5,534.3842000000477,1,3,33,6,1,1,0.7,Time
,,866424,001,男,20,2025-06-04_20h00.33.894,Serial_Dependence_U,2023.2.3,Win32,166.66666666666666,,,,,,534.3844000000954,338,1,534.3844000000954,338,,,,538.3401000001431,538.8362000000477,537.839100000143,538.3401000001431,535.3964000000955,537.839,538.8362999999524,539.3347000000477,539.3347999999523,543.3925,3503,543.3926000001431,5,543.3991000001431,1,4,34,18,1,1.4,0.7,Time
,,866424,001,男,20,2025-06-04_20h00.33.894,Serial_Dependence_U,2023.2.3,Win32,166.66666666666666,,,,,,543.3997999999524,286,1,543.4000000000001,286,,,,546.988100000143,547.4859000000954,546.4792000000477,546.988100000143,544.4074000000954,546.4792000000477,547.4860000000001,547.9872999999524,547.9872999999524,552.0009000000954,3559,552.0010000000001,5,552.0055000000001,1,5,35,1,1,1,0.3,Time
,,866424,001,男,20,2025-06-04_20h00.33.894,Serial_Dependence_U,2023.2.3,Win32,166.66666666666666,,,,,,552.0057000000477,144,1,552.0057000000477,144,,,,555.3452999999523,555.8432000000478,554.8422999999524,555.3452999999523,553.0091000001431,554.8422999999524,555.8432000000478,556.3435000000001,556.343600000143,559.8987999999524,2876,559.8987999999524,5,559.9032999999524,1,6,36,5,1,0.8,0.7,Time
,,866424,001,男,20,2025-06-04_20h00.33.894,Serial_Dependence_U,2023.2.3,Win32,166.66666666666666,,,,,,559.9035,71,1,559.9035,71,,,,563.4839000000954,563.9832999999524,562.9801000001431,563.4837999999523,560.912,562.9801000001431,563.9834000000955,564.4862999999524,564.4862999999524,568.4352999999523,3440,568.4352999999523,5,568.4397000000478,1,7,37,21,1,1,0.3,Time
,,866424,001,男,20,2025-06-04_20h00.33.894,Serial_Dependence_U,2023.2.3,Win32,166.66666666666666,,,,,,568.4397999999524,2,1,568.4399000000955,2,,,,572.215,572.7101000001431,571.7122000000477,572.2149000000954,569.4435000000001,571.7121000001431,572.7102000000477,573.2116000001431,573.2116000001431,577.7472999999524,3668,577.7474000000955,5,577.7516000001431,1,8,38,2,1,1.2,0.3,Time
,,866424,001,男,20,2025-06-04_20h00.33.894,Serial_Dependence_U,2023.2.3,Win32,166.66666666666666,,,,,,577.7517999999524,284,1,577.7517999999524,284,,,,581.1259000000954,581.6222000000478,580.6115000000001,581.1259000000954,578.7505000000001,580.6115000000001,581.6222000000478,582.1222999999524,582.1222999999524,585.3087000000477,2580,585.3087999999524,5,585.3130000000001,1,9,39,10,1,0.8,0.3,Time
,,866424,001,男,20,2025-06-04_20h00.33.894,Serial_Dependence_U,2023.2.3,Win32,166.66666666666666,,,,,,585.3132000000477,149,1,585.3132000000477,149,,,,589.2935000000001,589.7899000000954,588.7909000000955,589.2935000000001,586.3187999999524,588.7907999999524,589.7900000000001,590.2894000000954,590.2894000000954,594.6682000000477,3799,594.6682000000477,5,594.6725,1,10,40,23,1,1.4,0.3,Time
,,866424,001,男,20,2025-06-04_20h00.33.894,Serial_Dependence_U,2023.2.3,Win32,166.66666666666666,,,,,,594.6727999999524,228,1,594.673,228,,,,598.2497000000477,598.7485,597.7420000000001,598.2496000001431,595.6774000000954,597.7420000000001,598.7485,599.2481000001432,599.2481000001432,603.4299000000955,3588,603.4299000000955,5,603.4347000000478,1,11,41,11,1,1,0.3,Time
,,866424,001,男,20,2025-06-04_20h00.33.894,Serial_Dependence_U,2023.2.3,Win32,166.66666666666666,,,,,,603.4347999999524,221,1,603.4349000000955,221,,,,607.5780000000001,608.0777999999524,607.0772999999524,607.5779000000954,604.4411000001431,607.0772000000477,608.0777999999524,608.575,608.575,612.6521000001432,3606,612.6522000000477,5,612.6579000000954,1,12,42,9,1,1.6,0.7,Time
,,866424,001,男,20,2025-06-04_20h00.33.894,Serial_Dependence_U,2023.2.3,Win32,166.66666666666666,,,,,,612.6582999999524,326,1,612.6584000000954,326,,,,616.0029000000955,616.5002999999524,615.4970000000001,616.0027999999523,613.6645000000001,615.4969000000954,616.5002999999524,616.9932999999523,616.9934000000954,620.0352000000478,2572,620.0352999999524,5,620.0397000000478,1,13,43,25,1,0.8,0.7,Time
,,866424,001,男,20,2025-06-04_20h00.33.894,Serial_Dependence_U,2023.2.3,Win32,166.66666666666666,,,,,,620.0397999999524,96,1,620.0399000000954,96,,,,623.9877000000478,624.4877000000478,623.4795,623.9877000000478,621.0447999999524,623.4795,624.4877000000478,624.9842999999523,624.9842999999523,629.5682999999524,3932,629.5682999999524,5,629.5727000000477,1,14,44,28,1,1.4,0.7,Time
,,866424,001,男,20,2025-06-04_20h00.33.894,Serial_Dependence_U,2023.2.3,Win32,166.66666666666666,,,,,,629.5730000000001,13,1,629.5730000000001,13,,,,633.5436000001431,634.0426000001431,633.0390000000001,633.5435000000001,630.5772999999524,633.0389000000954,634.0426000001431,634.5422999999523,634.5424000000954,639.0735000000001,4082,639.0735000000001,5,639.0780000000001,1,15,45,13,1,1.4,0.3,Time
,,866424,001,男,20,2025-06-04_20h00.33.894,Serial_Dependence_U,2023.2.3,Win32,166.66666666666666,,,,,,639.0782000000478,3,1,639.0782000000478,3,,,,642.4487000000478,642.9472999999524,641.9474000000954,642.4486000001431,640.0762000000477,641.9474000000954,642.9474000000954,643.4492000000478,643.4492999999524,646.7941000001431,2913,646.7942000000477,5,646.7986000001431,1,16,46,0,1,0.8,0.3,Time
,,866424,001,男,20,2025-06-04_20h00.33.894,Serial_Dependence_U,2023.2.3,Win32,166.66666666666666,,,,,,646.7987000000477,179,1,646.7987999999524,179,,,,650.9707000000477,651.4666000001431,650.4674000000954,650.9707000000477,647.807,650.4674000000954,651.4666000001431,651.9627999999524,651.9627999999524,656.2216000001431,3856,656.2216000001431,5,656.2262999999524,1,17,47,14,1,1.6,0.3,Time
,,866424,001,男,20,2025-06-04_20h00.33.894,Serial_Dependence_U,2023.2.3,Win32,166.66666666666666,,,,,,656.2265000000001,55,1,656.2266000001431,55,,,,660.3985,660.8960000000001,659.8949000000954,660.3985,657.2287999999523,659.8949000000954,660.8961000001431,661.3926000001431,661.3927000000477,666.4787000000478,4694,666.4787999999523,5,666.4832999999524,1,18,48,4,1,1.6,0.3,Time
,,866424,001,男,20,2025-06-04_20h00.33.894,Serial_Dependence_U,2023.2.3,Win32,166.66666666666666,,,,,,666.4836000001432,163,1,666.4836000001432,163,,,,669.8282000000478,670.3242000000478,669.3234000000954,669.8281000001431,667.4872999999524,669.3234000000954,670.3242000000478,670.8222000000477,670.8222999999524,674.3147000000478,2892,674.3147000000478,5,674.3195000000001,1,19,49,15,1,0.8,0.7,Time
,,866424,001,男,20,2025-06-04_20h00.33.894,Serial_Dependence_U,2023.2.3,Win32,166.66666666666666,,,,,,674.3197000000478,191,1,674.3197000000478,191,,,,678.2699000000954,678.7662999999524,677.7671000001432,678.2699000000954,675.3302000000477,677.767,678.7664000000955,679.2642000000477,679.2642000000477,683.3505,3743,683.3505,5,683.3552000000477,1,20,50,8,1,1.4,0.7,Time
,,866424,001,男,20,2025-06-04_20h00.33.894,Serial_Dependence_U,2023.2.3,Win32,166.66666666666666,,,,,,683.3554000000954,251,1,683.3554000000954,251,,,,686.8952000000477,687.3931000001431,686.3927000000477,686.8951000001431,684.3610000000001,686.3927000000477,687.3931000001431,687.8887000000477,687.8887999999523,691.9939000000954,3406,691.9939000000954,5,691.9985,1,21,51,16,1,1,0.7,Time
,,866424,001,男,20,2025-06-04_20h00.33.894,Serial_Dependence_U,2023.2.3,Win32,166.66666666666666,,,,,,691.9987000000477,149,1,691.9987000000477,149,,,,695.7452000000477,696.2459000000954,695.2357000000477,695.7452000000477,693.0047999999524,695.2356000001431,696.2460000000001,696.7469000000954,696.7470000000001,700.6046000001431,3545,700.6047000000477,5,700.6091000001431,1,22,52,27,1,1.2,0.7,Time
,,866424,001,男,20,2025-06-04_20h00.33.894,Serial_Dependence_U,2023.2.3,Win32,166.66666666666666,,,,,,700.6092000000477,298,1,700.6092000000477,298,,,,704.35,704.8492000000477,703.8421000001431,704.35,701.609,703.8421000001431,704.8492999999523,705.3470000000001,705.3470000000001,709.5961000001431,3719,709.5961000001431,5,709.6006000001431,1,23,53,17,1,1.2,0.7,Time
,,866424,001,男,20,2025-06-04_20h00.33.894,Serial_Dependence_U,2023.2.3,Win32,166.66666666666666,,,,,,709.6007999999524,73,1,709.6007999999524,73,,,,713.1317999999524,713.6301000001431,712.6312999999524,713.1317000000478,710.5987000000478,712.6312000000478,713.6301000001431,714.1314000000954,714.1315000000001,717.6350000000001,3033,717.6350000000001,5,717.6394000000954,1,24,54,26,1,1,0.7,Time
,,866424,001,男,20,2025-06-04_20h00.33.894,Serial_Dependence_U,2023.2.3,Win32,166.66666666666666,,,,,,717.6396000001431,67,1,717.6397000000477,67,,,,721.8061000001431,722.3062000000477,721.3057999999523,721.806,718.6445000000001,721.3057000000478,722.3062000000477,722.8065,722.8066000001431,727.0562999999523,3820,727.0562999999523,5,727.0607000000477,1,25,55,24,1,1.6,0.3,Time
,,866424,001,男,20,2025-06-04_20h00.33.894,Serial_Dependence_U,2023.2.3,Win32,166.66666666666666,,,,,,727.0609000000954,265,1,727.061,265,,,,730.8292000000478,731.3272999999524,730.326,730.8292000000478,728.0607000000477,730.3259000000954,731.3272999999524,731.8290000000001,731.8290000000001,735.7105,3226,735.7105,5,735.7152000000477,1,26,56,22,1,1.2,0.3,Time
,,866424,001,男,20,2025-06-04_20h00.33.894,Serial_Dependence_U,2023.2.3,Win32,166.66666666666666,,,,,,735.7154000000954,146,1,735.7154000000954,146,,,,739.8652999999524,740.3637999999523,739.3612999999524,739.8652000000477,736.7232000000478,739.3612999999524,740.3639000000954,740.86,740.86,744.7781000001431,3519,744.7782000000477,5,744.7827000000477,1,27,57,19,1,1.6,0.7,Time
,,866424,001,男,20,2025-06-04_20h00.33.894,Serial_Dependence_U,2023.2.3,Win32,166.66666666666666,,,,,,744.7831000001431,201,1,744.7832000000477,201,,,,748.9227999999524,749.4202000000478,748.4192999999524,748.9227000000477,745.783,748.4192999999524,749.4202999999524,749.9172999999523,749.9172999999523,754.2157000000477,4154,754.2157000000477,5,754.2202999999523,1,28,58,29,1,1.6,0.7,Time
,,866424,001,男,20,2025-06-04_20h00.33.894,Serial_Dependence_U,2023.2.3,Win32,166.66666666666666,,,,,,754.2205,296,1,754.2205,296,,,,757.5912000000477,758.0912999999524,757.0889000000955,757.5912000000477,755.2267000000477,757.0887999999524,758.0912999999524,758.5917999999524,758.5919000000954,762.6042999999523,3468,762.6042999999523,5,762.6091000001431,1,29,59,20,1,0.8,0.3,Time
,,866424,001,男,20,2025-06-04_20h00.33.894,Serial_Dependence_U,2023.2.3,Win32,166.66666666666666,,,,,,762.6094000000954,85,2,811.4549000000954,85,s,48.83809999990467,,815.6282999999523,816.1269000000955,815.1251000001431,815.6282999999523,812.4589000000955,815.1251000001431,816.1270000000001,816.6285,816.6286000001431,821.6511000001431,4454,821.6511000001431,5,821.6555000000001,2,0,60,24,1,1.6,0.3,Time
,,866424,001,男,20,2025-06-04_20h00.33.894,Serial_Dependence_U,2023.2.3,Win32,166.66666666666666,,,,,,821.6557000000478,310,2,821.6562999999524,310,,,,825.8112000000477,826.3105,825.3044000000954,825.8112000000477,822.6600000000001,825.3044000000954,826.3106000001432,826.8081000001431,826.8081000001431,831.0602999999523,3577,831.0602999999523,5,831.0647999999524,2,1,61,9,1,1.6,0.7,Time
,,866424,001,男,20,2025-06-04_20h00.33.894,Serial_Dependence_U,2023.2.3,Win32,166.66666666666666,,,,,,831.065,253,2,831.065100000143,253,,,,834.4381000001431,834.9386000001431,833.9342999999524,834.4380000000001,832.0695000000001,833.9342999999524,834.9386000001431,835.4371000001431,835.4371000001431,838.7315000000001,2799,838.7315000000001,5,838.7359000000954,2,2,62,10,1,0.8,0.3,Time
,,866424,001,男,20,2025-06-04_20h00.33.894,Serial_Dependence_U,2023.2.3,Win32,166.66666666666666,,,,,,838.7360000000001,221,2,838.7361000001431,221,,,,842.0827000000477,842.5821000001431,841.5740000000001,842.0826000001431,839.7432000000478,841.5740000000001,842.5821000001431,843.0817999999524,843.0817999999524,846.5922999999524,3019,846.5922999999524,5,846.5967999999524,2,3,63,5,1,0.8,0.7,Time
,,866424,001,男,20,2025-06-04_20h00.33.894,Serial_Dependence_U,2023.2.3,Win32,166.66666666666666,,,,,,846.5970000000001,156,2,846.5970000000001,156,,,,849.9796000001431,850.4765000000001,849.4671000001431,849.9796000001431,847.6056000001431,849.4670000000001,850.4765000000001,850.9765000000001,850.9766000001431,854.8895,3386,854.8895,5,854.8942000000477,2,4,64,0,1,0.8,0.3,Time
,,866424,001,男,20,2025-06-04_20h00.33.894,Serial_Dependence_U,2023.2.3,Win32,166.66666666666666,,,,,,854.8944000000954,277,2,854.8945000000001,277,,,,859.0682000000477,859.5641000001431,858.5612999999523,859.0680000000001,855.8971000001432,858.5611000001431,859.5641000001431,860.0656000001431,860.0656000001431,864.1074000000954,3411,864.1075000000001,5,864.1117999999524,2,5,65,14,1,1.6,0.3,Time
,,866424,001,男,20,2025-06-04_20h00.33.894,Serial_Dependence_U,2023.2.3,Win32,166.66666666666666,,,,,,864.1120000000001,177,2,864.1121000001431,177,,,,867.8669000000954,868.3667999999524,867.3610000000001,867.8667999999524,865.1192999999523,867.3610000000001,868.3669000000954,868.8662000000477,868.8662000000477,872.7174000000954,3509,872.7175000000001,5,872.7217999999524,2,6,66,7,1,1.2,0.7,Time
,,866424,001,男,20,2025-06-04_20h00.33.894,Serial_Dependence_U,2023.2.3,Win32,166.66666666666666,,,,,,872.7221000001431,75,2,872.7222000000478,75,,,,876.8960000000001,877.3926000001431,876.3892000000477,876.8959000000954,873.7227999999524,876.3892000000477,877.3926000001431,877.8917000000478,877.8917000000478,882.2320000000001,3850,882.2320000000001,5,882.2366000001431,2,7,67,4,1,1.6,0.3,Time
,,866424,001,男,20,2025-06-04_20h00.33.894,Serial_Dependence_U,2023.2.3,Win32,166.66666666666666,,,,,,882.2367000000478,161,2,882.2367999999524,161,,,,885.8141000001431,886.3097999999524,885.3080000000001,885.8140000000001,883.2420000000001,885.3080000000001,886.3099000000955,886.8080000000001,886.8080000000001,890.4156000001431,3108,890.4156000001431,5,890.4200000000001,2,8,68,11,1,1,0.3,Time
,,866424,001,男,20,2025-06-04_20h00.33.894,Serial_Dependence_U,2023.2.3,Win32,166.66666666666666,,,,,,890.4202000000478,98,2,890.4202000000478,98,,,,894.4031000001431,894.9047000000477,893.8942999999524,894.403,891.4281000001431,893.8942999999524,894.9047000000477,895.4022999999523,895.4024000000954,899.5434000000954,3646,899.5435000000001,5,899.5479000000954,2,9,69,3,1,1.4,0.3,Time
,,866424,001,男,20,2025-06-04_20h00.33.894,Serial_Dependence_U,2023.2.3,Win32,166.66666666666666,,,,,,899.5481000001431,339,2,899.5481000001431,339,,,,903.4952999999524,903.9944000000954,902.9889000000954,903.4952999999524,900.5514000000954,902.9887999999523,903.9944000000954,904.4916000001431,904.4917000000478,909.2821000001431,4296,909.2821000001431,5,909.2865,2,10,70,28,1,1.4,0.7,Time
,,866424,001,男,20,2025-06-04_20h00.33.894,Serial_Dependence_U,2023.2.3,Win32,166.66666666666666,,,,,,909.2866000001432,226,2,909.2867999999523,226,,,,912.8252000000477,913.3262000000477,912.3202999999523,912.8252000000477,910.2852000000478,912.3202999999523,913.3262000000477,913.8252000000477,913.8254000000954,917.844,3580,917.844,5,917.8484000000955,2,11,71,26,1,1,0.7,Time
,,866424,001,男,20,2025-06-04_20h00.33.894,Serial_Dependence_U,2023.2.3,Win32,166.66666666666666,,,,,,917.8485000000001,291,2,917.848600000143,291,,,,921.6232000000477,922.12,921.1197999999524,921.6231000001432,918.8515000000001,921.1197000000477,922.12,922.6207000000477,922.6207000000477,926.5357999999524,3375,926.5357999999524,5,926.5407000000478,2,12,72,12,1,1.2,0.3,Time
,,866424,001,男,20,2025-06-04_20h00.33.894,Serial_Dependence_U,2023.2.3,Win32,166.66666666666666,,,,,,926.5409000000955,42,2,926.541,42,,,,930.2860000000001,930.7860000000001,929.7845000000001,930.2860000000001,927.5509000000955,929.7845000000001,930.7860000000001,931.2876000001431,931.2876000001431,936.2604000000954,3391,936.2604000000954,5,936.2649000000954,2,13,73,27,1,1.2,0.7,Time
,,866424,001,男,20,2025-06-04_20h00.33.894,Serial_Dependence_U,2023.2.3,Win32,166.66666666666666,,,,,,936.2650000000001,54,2,936.2651000001431,54,,,,940.4121000001431,940.9082999999524,939.9087999999524,940.4121000001431,937.2726000001431,939.9086000001431,940.9082999999524,941.4102000000478,941.4102000000478,945.354,3410,945.354,5,945.3585,2,14,74,29,1,1.6,0.7,Time
,,866424,001,男,20,2025-06-04_20h00.33.894,Serial_Dependence_U,2023.2.3,Win32,166.66666666666666,,,,,,945.3587000000477,30,2,945.3587000000477,30,,,,948.9292999999524,949.4257999999523,948.4259000000955,948.9292999999524,946.3632000000478,948.4257999999523,949.4259000000955,949.9217000000477,949.9217000000477,954.2927000000477,3678,954.2927000000477,5,954.2977999999524,2,15,75,21,1,1,0.3,Time
,,866424,001,男,20,2025-06-04_20h00.33.894,Serial_Dependence_U,2023.2.3,Win32,166.66666666666666,,,,,,954.298,128,2,954.2981000001431,128,,,,958.0787999999524,958.5747999999523,957.5707999999523,958.0787000000478,955.3036000001431,957.5707999999523,958.5747999999523,959.0745000000001,959.074600000143,963.5082000000476,3093,963.5082000000476,5,963.5127000000476,2,16,76,22,1,1.2,0.3,Time
,,866424,001,男,20,2025-06-04_20h00.33.894,Serial_Dependence_U,2023.2.3,Win32,166.66666666666666,,,,,,963.513,328,2,963.513,328,,,,967.4836000001432,967.9794000000953,966.9797000000477,967.4835000000002,964.5090000000001,966.979600000143,967.9794000000953,968.4762000000477,968.4762999999524,972.4111000001432,3480,972.4111000001432,5,972.4157999999524,2,17,77,13,1,1.4,0.3,Time
,,866424,001,男,20,2025-06-04_20h00.33.894,Serial_Dependence_U,2023.2.3,Win32,166.66666666666666,,,,,,972.416,272,2,972.416100000143,272,,,,975.7899000000954,976.2859000000955,975.2834000000954,975.7899000000954,973.4199000000955,975.2834000000954,976.286,976.7857999999525,976.7859000000955,980.0594000000955,2679,980.0594000000955,5,980.0642999999524,2,18,78,20,1,0.8,0.3,Time
,,866424,001,男,20,2025-06-04_20h00.33.894,Serial_Dependence_U,2023.2.3,Win32,166.66666666666666,,,,,,980.0644000000954,117,2,980.0645000000001,117,,,,984.218,984.7145000000002,983.709,984.218,981.0687000000477,983.709,984.7145000000002,985.2130000000001,985.2131000001431,989.3931000001431,3751,989.3931000001431,5,989.398,2,19,79,19,1,1.6,0.7,Time
,,866424,001,男,20,2025-06-04_20h00.33.894,Serial_Dependence_U,2023.2.3,Win32,166.66666666666666,,,,,,989.3982000000477,160,2,989.3982999999524,160,,,,993.3737000000477,993.871,992.8667000000477,993.3737000000477,990.4045,992.8667000000477,993.8711000001432,994.3697000000478,994.3697000000478,998.1401000001432,3444,998.1401000001432,5,998.1446000001432,2,20,80,23,1,1.4,0.3,Time
,,866424,001,男,20,2025-06-04_20h00.33.894,Serial_Dependence_U,2023.2.3,Win32,166.66666666666666,,,,,,998.1447999999524,328,2,998.1447999999524,328,,,,1001.9254999999999,1002.4250000000001,1001.42,1001.9254999999999,999.1476000001431,1001.4199000000955,1002.4250000000001,1002.9250000000001,1002.9251000001431,1006.62,3366,1006.62,5,1006.6249000000954,2,21,81,2,1,1.2,0.3,Time
,,866424,001,男,20,2025-06-04_20h00.33.894,Serial_Dependence_U,2023.2.3,Win32,166.66666666666666,,,,,,1006.6251000001431,227,2,1006.6251000001431,227,,,,1009.9634000000955,1010.4595,1009.4544000000955,1009.9634000000955,1007.6197999999523,1009.4544000000955,1010.4595,1010.9571000001432,1010.9571000001432,1014.1206000001431,2729,1014.1206000001431,5,1014.1247000000477,2,22,82,15,1,0.8,0.7,Time
,,866424,001,男,20,2025-06-04_20h00.33.894,Serial_Dependence_U,2023.2.3,Win32,166.66666666666666,,,,,,1014.1249000000954,78,2,1014.1249000000954,78,,,,1017.4769000000955,1017.975,1016.9645000000002,1017.4767999999523,1015.129100000143,1016.9645000000002,1017.975100000143,1018.4765000000001,1018.4765000000001,1022.0742999999524,2905,1022.0742999999524,5,1022.0789000000954,2,23,83,25,1,0.8,0.7,Time
,,866424,001,男,20,2025-06-04_20h00.33.894,Serial_Dependence_U,2023.2.3,Win32,166.66666666666666,,,,,,1022.0790000000001,36,2,1022.0792000000478,36,,,,1025.8324000000953,1026.329100000143,1025.326100000143,1025.8324000000953,1023.0886000001432,1025.326100000143,1026.3292000000476,1026.8302999999523,1026.8304000000953,1030.7014000000954,3530,1030.7014000000954,5,1030.7059000000952,2,24,84,17,1,1.2,0.7,Time
,,866424,001,男,20,2025-06-04_20h00.33.894,Serial_Dependence_U,2023.2.3,Win32,166.66666666666666,,,,,,1030.7062000000476,137,2,1030.7062000000476,137,,,,1034.6557000000475,1035.155,1034.1487000000477,1034.6554999999998,1031.716100000143,1034.148600000143,1035.155,1035.6544000000954,1035.6544000000954,1039.8764999999999,3732,1039.876600000143,5,1039.8814000000953,2,25,85,18,1,1.4,0.7,Time
,,866424,001,男,20,2025-06-04_20h00.33.894,Serial_Dependence_U,2023.2.3,Win32,166.66666666666666,,,,,,1039.8815,83,2,1039.881600000143,83,,,,1043.448600000143,1043.949600000143,1042.944100000143,1043.4485,1040.8805,1042.944100000143,1043.9497000000476,1044.4492000000475,1044.4492000000475,1048.2307999999523,3439,1048.2307999999523,5,1048.236100000143,2,26,86,1,1,1,0.3,Time
,,866424,001,男,20,2025-06-04_20h00.33.894,Serial_Dependence_U,2023.2.3,Win32,166.66666666666666,,,,,,1048.2362000000476,216,2,1048.2362999999523,216,,,,1051.7887999999523,1052.2804000000954,1051.2872000000477,1051.7887999999523,1049.2414000000954,1051.2872000000477,1052.2804999999998,1052.7782000000477,1052.7782999999522,1056.743600000143,3420,1056.7437000000475,5,1056.748,2,27,87,6,1,1,0.7,Time
,,866424,001,男,20,2025-06-04_20h00.33.894,Serial_Dependence_U,2023.2.3,Win32,166.66666666666666,,,,,,1056.7482000000475,267,2,1056.7482000000475,267,,,,1060.2844000000953,1060.782600000143,1059.7817999999522,1060.2844000000953,1057.7454000000953,1059.7817999999522,1060.782600000143,1061.284100000143,1061.2842000000476,1064.9634000000954,3006,1064.9634999999998,5,1064.9677999999521,2,28,88,16,1,1,0.7,Time
,,866424,001,男,20,2025-06-04_20h00.33.894,Serial_Dependence_U,2023.2.3,Win32,166.66666666666666,,,,,,1064.9679999999998,216,2,1064.968100000143,216,,,,1068.9032999999522,1069.3992000000476,1068.3987000000477,1068.9032000000477,1065.965100000143,1068.398600000143,1069.3992999999523,1069.8957999999523,1069.8957999999523,1073.9125,3507,1073.9125,5,1073.9172000000476,2,29,89,8,1,1.4,0.7,Time
,,866424,001,男,20,2025-06-04_20h00.33.894,Serial_Dependence_U,2023.2.3,Win32,166.66666666666666,,,,,,1073.9174000000953,315,3,1139.012,315,s,65.08219999980929,,1142.5914000000953,1143.0907000000477,1142.0842000000475,1142.5914000000953,1140.0182999999522,1142.084100000143,1143.0907000000477,1143.588100000143,1143.588100000143,1147.8165,3717,1147.8165,5,1147.8209000000952,3,0,90,11,1,1,0.3,Time
,,866424,001,男,20,2025-06-04_20h00.33.894,Serial_Dependence_U,2023.2.3,Win32,166.66666666666666,,,,,,1147.821100000143,183,3,1147.8217999999522,183,,,,1151.9782999999522,1152.474600000143,1151.4652000000476,1151.9782000000475,1148.8292999999524,1151.4652000000476,1152.474600000143,1152.973100000143,1152.973100000143,1158.214,4229,1158.214,5,1158.2184000000952,3,1,91,9,1,1.6,0.7,Time
,,866424,001,男,20,2025-06-04_20h00.33.894,Serial_Dependence_U,2023.2.3,Win32,166.66666666666666,,,,,,1158.2187000000476,36,3,1158.2187000000476,36,,,,1162.3664999999999,1162.8677999999522,1161.861100000143,1162.3664000000954,1159.224600000143,1161.8609999999999,1162.8677999999522,1163.3649000000953,1163.365,1169.183100000143,4380,1169.183100000143,5,1169.1879000000954,3,2,92,19,1,1.6,0.7,Time
,,866424,001,男,20,2025-06-04_20h00.33.894,Serial_Dependence_U,2023.2.3,Win32,166.66666666666666,,,,,,1169.188100000143,148,3,1169.188100000143,148,,,,1173.1727999999523,1173.6702999999522,1172.664,1173.1727000000476,1170.198100000143,1172.6637999999523,1173.6702999999522,1174.167100000143,1174.167100000143,1178.2967000000476,3493,1178.2967999999523,5,1178.3019000000952,3,3,93,3,1,1.4,0.3,Time
,,866424,001,男,20,2025-06-04_20h00.33.894,Serial_Dependence_U,2023.2.3,Win32,166.66666666666666,,,,,,1178.302100000143,115,3,1178.302100000143,115,,,,1181.8864000000954,1182.3829000000953,1181.3774000000953,1181.8862999999521,1179.306,1181.3774000000953,1182.383,1182.8819999999998,1182.882100000143,1186.213,2658,1186.213,5,1186.2175,3,4,94,1,1,1,0.3,Time
,,866424,001,男,20,2025-06-04_20h00.33.894,Serial_Dependence_U,2023.2.3,Win32,166.66666666666666,,,,,,1186.217600000143,282,3,1186.2177999999521,282,,,,1190.3884000000953,1190.886600000143,1189.886600000143,1190.3882999999523,1187.2242000000476,1189.8864999999998,1190.886600000143,1191.388,1191.388,1196.6954000000953,3932,1196.6954000000953,5,1196.700100000143,3,5,95,14,1,1.6,0.3,Time
,,866424,001,男,20,2025-06-04_20h00.33.894,Serial_Dependence_U,2023.2.3,Win32,166.66666666666666,,,,,,1196.7004000000952,147,3,1196.7005,147,,,,1200.6425,1201.1442000000477,1200.137100000143,1200.6425,1197.703,1200.137100000143,1201.1442000000477,1201.6452000000477,1201.6452000000477,1207.3372999999522,4657,1207.3372999999522,5,1207.3419999999999,3,6,96,8,1,1.4,0.7,Time
,,866424,001,男,20,2025-06-04_20h00.33.894,Serial_Dependence_U,2023.2.3,Win32,166.66666666666666,,,,,,1207.3422000000476,278,3,1207.3422999999523,278,,,,1210.71,1211.2092000000475,1210.208100000143,1210.71,1208.3469000000953,1210.2079000000954,1211.2092000000475,1211.703,1211.703100000143,1214.2677999999523,2012,1214.2677999999523,5,1214.2725,3,7,97,0,1,0.8,0.3,Time
,,866424,001,男,20,2025-06-04_20h00.33.894,Serial_Dependence_U,2023.2.3,Win32,166.66666666666666,,,,,,1214.272600000143,74,3,1214.2727000000477,74,,,,1217.8382000000477,1218.3367999999523,1217.3364000000954,1217.8382000000477,1215.275600000143,1217.3362999999522,1218.3367999999523,1218.836100000143,1218.8362000000477,1223.5637000000477,2711,1223.5637000000477,5,1223.5682999999522,3,8,98,21,1,1,0.3,Time
,,866424,001,男,20,2025-06-04_20h00.33.894,Serial_Dependence_U,2023.2.3,Win32,166.66666666666666,,,,,,1223.5684999999999,186,3,1223.5684999999999,186,,,,1227.5052000000476,1228.0019000000952,1226.9989000000953,1227.505100000143,1224.5667999999523,1226.9987999999523,1228.0019000000952,1228.499100000143,1228.499100000143,1233.0265,3852,1233.0265,5,1233.0307000000475,3,9,99,18,1,1.4,0.7,Time
,,866424,001,男,20,2025-06-04_20h00.33.894,Serial_Dependence_U,2023.2.3,Win32,166.66666666666666,,,,,,1233.0309000000952,274,3,1233.031,274,,,,1236.8017000000477,1237.3027999999522,1236.2967000000476,1236.801600000143,1234.0284000000954,1236.296600000143,1237.3027999999522,1237.8002999999524,1237.8002999999524,1243.1462000000477,3489,1243.1462000000477,5,1243.1507999999521,3,10,100,2,1,1.2,0.3,Time
,,866424,001,男,20,2025-06-04_20h00.33.894,Serial_Dependence_U,2023.2.3,Win32,166.66666666666666,,,,,,1243.1509999999998,225,3,1243.1509999999998,225,,,,1246.8979000000952,1247.394,1246.3924000000952,1246.8977999999522,1244.1587999999522,1246.3922999999522,1247.394100000143,1247.8954000000954,1247.8954000000954,1252.5342999999523,3963,1252.5342999999523,5,1252.539100000143,3,11,101,17,1,1.2,0.7,Time
,,866424,001,男,20,2025-06-04_20h00.33.894,Serial_Dependence_U,2023.2.3,Win32,166.66666666666666,,,,,,1252.5392999999522,268,3,1252.5394000000954,268,,,,1255.886,1256.3852000000477,1255.3846000001429,1255.886,1253.542100000143,1255.3846000001429,1256.3852999999522,1256.8849000000953,1256.8849000000953,1260.3469000000953,2939,1260.3469000000953,5,1260.3519000000954,3,12,102,5,1,0.8,0.7,Time
,,866424,001,男,20,2025-06-04_20h00.33.894,Serial_Dependence_U,2023.2.3,Win32,166.66666666666666,,,,,,1260.3519999999999,263,3,1260.352100000143,263,,,,1263.7354000000953,1264.2302999999522,1263.2307999999523,1263.7354000000953,1261.360600000143,1263.2307999999523,1264.2302999999522,1264.7299000000953,1264.7299000000953,1268.276100000143,3071,1268.276100000143,5,1268.2807000000475,3,13,103,10,1,0.8,0.3,Time
,,866424,001,男,20,2025-06-04_20h00.33.894,Serial_Dependence_U,2023.2.3,Win32,166.66666666666666,,,,,,1268.2809000000952,125,3,1268.281,125,,,,1271.652600000143,1272.1524000000952,1271.1479000000952,1271.6525,1269.2845,1271.1477999999522,1272.1524000000952,1272.648600000143,1272.648600000143,1276.1739000000953,2978,1276.1739000000953,5,1276.179100000143,3,14,104,20,1,0.8,0.3,Time
,,866424,001,男,20,2025-06-04_20h00.33.894,Serial_Dependence_U,2023.2.3,Win32,166.66666666666666,,,,,,1276.1794000000953,228,3,1276.1794000000953,228,,,,1279.7217000000476,1280.221600000143,1279.213,1279.7217000000476,1277.179100000143,1279.213,1280.2217000000476,1280.7185,1280.718600000143,1286.2565,2633,1286.256600000143,5,1286.2612000000477,3,15,105,26,1,1,0.7,Time
,,866424,001,男,20,2025-06-04_20h00.33.894,Serial_Dependence_U,2023.2.3,Win32,166.66666666666666,,,,,,1286.2614000000954,317,3,1286.2614000000954,317,,,,1290.0072000000475,1290.502600000143,1289.503600000143,1290.007100000143,1287.2632999999523,1289.503600000143,1290.502600000143,1291.0042000000476,1291.0042999999523,1294.587600000143,3030,1294.5877000000476,5,1294.5925,3,16,106,7,1,1.2,0.7,Time
,,866424,001,男,20,2025-06-04_20h00.33.894,Serial_Dependence_U,2023.2.3,Win32,166.66666666666666,,,,,,1294.5927000000477,85,3,1294.5927000000477,85,,,,1298.327,1298.8257000000476,1297.8229000000954,1298.3269000000953,1295.5922999999523,1297.8229000000954,1298.8257000000476,1299.3242999999522,1299.3242999999522,1307.368,4126,1307.368,5,1307.373,3,17,107,27,1,1.2,0.7,Time
,,866424,001,男,20,2025-06-04_20h00.33.894,Serial_Dependence_U,2023.2.3,Win32,166.66666666666666,,,,,,1307.3732000000475,253,3,1307.3732000000475,253,,,,1311.5169999999998,1312.0149999999999,1311.007600000143,1311.5169000000953,1308.3717000000477,1311.0075,1312.015100000143,1312.5139000000954,1312.5139000000954,1318.3519000000954,3818,1318.3519000000954,5,1318.356600000143,3,18,108,29,1,1.6,0.7,Time
,,866424,001,男,20,2025-06-04_20h00.33.894,Serial_Dependence_U,2023.2.3,Win32,166.66666666666666,,,,,,1318.3569000000953,161,3,1318.3569000000953,161,,,,1322.2904999999998,1322.7859000000954,1321.7875,1322.2904000000954,1319.3564000000954,1321.7875,1322.7859999999998,1323.2842000000476,1323.2842999999523,1328.3552000000477,3935,1328.3552000000477,5,1328.36,3,19,109,28,1,1.4,0.7,Time
,,866424,001,男,20,2025-06-04_20h00.33.894,Serial_Dependence_U,2023.2.3,Win32,166.66666666666666,,,,,,1328.3602000000476,186,3,1328.3602000000476,186,,,,1332.130600000143,1332.6282999999523,1331.6297000000477,1332.130600000143,1329.3607999999522,1331.6297000000477,1332.6282999999523,1333.1264000000954,1333.1264999999999,1336.074600000143,1977,1336.074600000143,5,1336.0787999999523,3,20,110,22,1,1.2,0.3,Time
,,866424,001,男,20,2025-06-04_20h00.33.894,Serial_Dependence_U,2023.2.3,Win32,166.66666666666666,,,,,,1336.079,176,3,1336.079100000143,176,,,,1339.4134999999999,1339.9109999999998,1338.911100000143,1339.4132999999522,1337.08,1338.9109999999998,1339.9109999999998,1340.4089999999999,1340.4089999999999,1344.3512999999523,1766,1344.3512999999523,5,1344.3562000000477,3,21,111,25,1,0.8,0.7,Time
,,866424,001,男,20,2025-06-04_20h00.33.894,Serial_Dependence_U,2023.2.3,Win32,166.66666666666666,,,,,,1344.3564999999999,257,3,1344.3564999999999,257,,,,1348.128,1348.6244000000952,1347.623,1348.128,1345.3564999999999,1347.623,1348.6245,1349.1219000000954,1349.1219999999998,1352.489600000143,2467,1352.489600000143,5,1352.4942999999523,3,22,112,12,1,1.2,0.3,Time
,,866424,001,男,20,2025-06-04_20h00.33.894,Serial_Dependence_U,2023.2.3,Win32,166.66666666666666,,,,,,1352.4945,153,3,1352.494600000143,153,,,,1356.0362000000475,1356.538100000143,1355.5332999999523,1356.036100000143,1353.4952999999523,1355.5332999999523,1356.538100000143,1357.0392999999522,1357.0394000000954,1360.9842000000476,3074,1360.9844000000953,5,1360.9892999999522,3,23,113,6,1,1,0.7,Time
,,866424,001,男,20,2025-06-04_20h00.33.894,Serial_Dependence_U,2023.2.3,Win32,166.66666666666666,,,,,,1360.989600000143,114,3,1360.9897000000476,114,,,,1364.9599000000953,1365.4607999999523,1364.4537000000475,1364.9597999999523,1361.989100000143,1364.4537000000475,1365.4609000000953,1365.9575,1365.9575,1369.9419000000953,2855,1369.942,5,1369.947,3,24,114,13,1,1.4,0.3,Time
,,866424,001,男,20,2025-06-04_20h00.33.894,Serial_Dependence_U,2023.2.3,Win32,166.66666666666666,,,,,,1369.9471000001429,227,3,1369.9472000000476,227,,,,1373.2924000000953,1373.7887000000476,1372.7892999999522,1373.2924000000953,1370.9534999999998,1372.7892000000477,1373.7887000000476,1374.289100000143,1374.2892000000477,1378.1439000000953,3151,1378.144,5,1378.1487999999522,3,25,115,15,1,0.8,0.7,Time
,,866424,001,男,20,2025-06-04_20h00.33.894,Serial_Dependence_U,2023.2.3,Win32,166.66666666666666,,,,,,1378.1491000001429,192,3,1378.1492000000476,192,,,,1381.6971000001429,1382.1962999999523,1381.191100000143,1381.6971000001429,1379.1579000000952,1381.191100000143,1382.1962999999523,1382.6937000000476,1382.6937000000476,1386.1872000000476,2852,1386.1872999999523,5,1386.1919000000953,3,26,116,16,1,1,0.7,Time
,,866424,001,男,20,2025-06-04_20h00.33.894,Serial_Dependence_U,2023.2.3,Win32,166.66666666666666,,,,,,1386.192100000143,261,3,1386.192100000143,261,,,,1390.3654000000954,1390.8642999999522,1389.858600000143,1390.3652999999522,1387.192100000143,1389.8585,1390.8642999999522,1391.3637000000476,1391.3637000000476,1395.7292999999522,3583,1395.7292999999522,5,1395.734,3,27,117,4,1,1.6,0.3,Time
,,866424,001,男,20,2025-06-04_20h00.33.894,Serial_Dependence_U,2023.2.3,Win32,166.66666666666666,,,,,,1395.734100000143,166,3,1395.7342000000476,166,,,,1399.6999000000953,1400.1997000000476,1399.1952999999523,1399.6997999999523,1396.733100000143,1399.1952000000476,1400.1997999999523,1400.6982999999523,1400.6984000000953,1404.4844000000953,3165,1404.4845,5,1404.4889000000953,3,28,118,23,1,1.4,0.3,Time
,,866424,001,男,20,2025-06-04_20h00.33.894,Serial_Dependence_U,2023.2.3,Win32,166.66666666666666,,,,,,1404.489100000143,326,3,1404.489100000143,326,,,,1408.6752000000477,1409.171600000143,1408.1622000000477,1408.6752000000477,1405.4942000000476,1408.162100000143,1409.171600000143,1409.6699000000954,1409.6699999999998,1414.494,4267,1414.494,5,1414.499100000143,3,29,119,24,1,1.6,0.3,Time
,,866424,001,男,20,2025-06-04_20h00.33.894,Serial_Dependence_U,2023.2.3,Win32,166.66666666666666,,,,,,1414.4992999999522,173,4,1509.1374000000953,173,s,94.62620000004767,,1512.4985,1512.9985,1511.9959999999999,1512.4985,1510.1345,1511.9959000000954,1512.9985,1513.495,1513.4951000001429,1517.0864000000954,3139,1517.0864000000954,5,1517.090600000143,4,0,120,20,1,0.8,0.3,Time
,,866424,001,男,20,2025-06-04_20h00.33.894,Serial_Dependence_U,2023.2.3,Win32,166.66666666666666,,,,,,1517.0907000000477,40,4,1517.0914000000953,40,,,,1521.2664000000952,1521.7662999999523,1520.7645,1521.2662000000475,1518.094600000143,1520.7645,1521.7662999999523,1522.266100000143,1522.2662999999523,1526.4664000000953,3846,1526.4665,5,1526.4707000000476,4,1,121,4,1,1.6,0.3,Time
,,866424,001,男,20,2025-06-04_20h00.33.894,Serial_Dependence_U,2023.2.3,Win32,166.66666666666666,,,,,,1526.4709000000953,201,4,1526.471,201,,,,1530.0139000000954,1530.5154000000953,1529.5134000000953,1530.0139000000954,1527.4772999999523,1529.5132999999523,1530.5154000000953,1531.0125,1531.0125,1535.0324000000953,3362,1535.0324000000953,5,1535.036600000143,4,2,122,6,1,1,0.7,Time
,,866424,001,男,20,2025-06-04_20h00.33.894,Serial_Dependence_U,2023.2.3,Win32,166.66666666666666,,,,,,1535.0367999999523,21,4,1535.0369000000953,21,,,,1538.8219000000954,1539.322,1538.3135,1538.8217999999522,1536.0459000000953,1538.3135,1539.322,1539.8194000000954,1539.8194999999998,1543.771100000143,3446,1543.7712000000477,5,1543.7757000000477,4,3,123,2,1,1.2,0.3,Time
,,866424,001,男,20,2025-06-04_20h00.33.894,Serial_Dependence_U,2023.2.3,Win32,166.66666666666666,,,,,,1543.7757999999521,277,4,1543.7759000000954,277,,,,1547.3105,1547.8077000000476,1546.808600000143,1547.3104000000953,1544.776100000143,1546.8084999999999,1547.8077000000476,1548.3082999999522,1548.3082999999522,1548.9092999999523,186,1548.9092999999523,1,1548.9134999999999,4,4,124,26,1,1,0.7,Time
,,866424,001,男,20,2025-06-04_20h00.33.894,Serial_Dependence_U,2023.2.3,Win32,166.66666666666666,,,,,,1548.9137000000476,199,4,1548.9137999999523,199,,,,1552.8862000000477,1553.3837000000476,1552.3767999999523,1552.886100000143,1549.9117999999523,1552.3767999999523,1553.3837000000476,1553.877100000143,1553.877100000143,1558.0939000000953,4182,1558.0939000000953,5,1558.0982999999524,4,5,125,13,1,1.4,0.3,Time
,,866424,001,男,20,2025-06-04_20h00.33.894,Serial_Dependence_U,2023.2.3,Win32,166.66666666666666,,,,,,1558.0984000000954,78,4,1558.0984000000954,78,,,,1562.0392999999522,1562.5377000000476,1561.5359000000954,1562.0392999999522,1559.1009999999999,1561.5357999999524,1562.5377999999523,1563.0352999999523,1563.0352999999523,1567.4807999999523,4107,1567.4807999999523,5,1567.4852000000476,4,6,126,28,1,1.4,0.7,Time
,,866424,001,男,20,2025-06-04_20h00.33.894,Serial_Dependence_U,2023.2.3,Win32,166.66666666666666,,,,,,1567.4854000000953,81,4,1567.4855,81,,,,1571.0632000000476,1571.559100000143,1570.559,1571.0632000000476,1568.4902000000477,1570.5589000000953,1571.5592000000477,1572.0537999999522,1572.0539000000954,1575.7117000000476,3236,1575.7117999999523,5,1575.716100000143,4,7,127,21,1,1,0.3,Time
,,866424,001,男,20,2025-06-04_20h00.33.894,Serial_Dependence_U,2023.2.3,Win32,166.66666666666666,,,,,,1575.7162999999523,190,4,1575.7164000000953,190,,,,1579.6527000000476,1580.1505,1579.1469000000952,1579.6527000000476,1576.710600000143,1579.1467999999522,1580.1505,1580.652,1580.652,1584.636600000143,3437,1584.636600000143,5,1584.6407999999522,4,8,128,8,1,1.4,0.7,Time
,,866424,001,男,20,2025-06-04_20h00.33.894,Serial_Dependence_U,2023.2.3,Win32,166.66666666666666,,,,,,1584.6409999999998,330,4,1584.641100000143,330,,,,1588.218100000143,1588.718600000143,1587.7122999999522,1588.2179999999998,1585.651600000143,1587.7122000000477,1588.7187000000476,1589.2144000000953,1589.2145,1593.0867999999523,3450,1593.0869000000953,5,1593.091,4,9,129,1,1,1,0.3,Time
,,866424,001,男,20,2025-06-04_20h00.33.894,Serial_Dependence_U,2023.2.3,Win32,166.66666666666666,,,,,,1593.0912999999523,267,4,1593.0912999999523,267,,,,1596.8649000000953,1597.3582999999524,1596.357600000143,1596.8649000000953,1594.092100000143,1596.3574999999998,1597.3584000000953,1597.8572000000477,1597.8572999999521,1601.8182999999522,3463,1601.8184000000954,5,1601.8227000000477,4,10,130,22,1,1.2,0.3,Time
,,866424,001,男,20,2025-06-04_20h00.33.894,Serial_Dependence_U,2023.2.3,Win32,166.66666666666666,,,,,,1601.8227999999522,33,4,1601.8229000000954,33,,,,1605.5752000000475,1606.0734000000953,1605.0587000000476,1605.575100000143,1602.8235,1605.058600000143,1606.0735,1606.5742999999522,1606.5742999999522,1609.8469000000953,3132,1609.847,5,1609.8527000000477,4,11,131,27,1,1.2,0.7,Time
,,866424,001,男,20,2025-06-04_20h00.33.894,Serial_Dependence_U,2023.2.3,Win32,166.66666666666666,,,,,,1609.8529999999998,339,4,1609.8529999999998,339,,,,1613.6025,1614.1002000000476,1613.0934000000952,1613.6025,1610.858,1613.0932999999523,1614.1002000000476,1614.5962999999522,1614.5962999999522,1618.657100000143,3385,1618.657100000143,5,1618.6614000000952,4,12,132,17,1,1.2,0.7,Time
,,866424,001,男,20,2025-06-04_20h00.33.894,Serial_Dependence_U,2023.2.3,Win32,166.66666666666666,,,,,,1618.661600000143,30,4,1618.661600000143,30,,,,1622.000600000143,1622.4975,1621.4942999999523,1622.000600000143,1619.6577000000477,1621.4942999999523,1622.4975,1622.9954000000953,1622.9954000000953,1627.4967000000477,4088,1627.4967000000477,5,1627.5007999999523,4,13,133,15,1,0.8,0.7,Time
,,866424,001,男,20,2025-06-04_20h00.33.894,Serial_Dependence_U,2023.2.3,Win32,166.66666666666666,,,,,,1627.5009000000953,304,4,1627.501100000143,304,,,,1631.473600000143,1631.971100000143,1630.9687000000476,1631.4734999999998,1628.503,1630.9687000000476,1631.971100000143,1632.4704000000952,1632.4705,1636.9795,3843,1636.9795,5,1636.9835,4,14,134,3,1,1.4,0.3,Time
,,866424,001,男,20,2025-06-04_20h00.33.894,Serial_Dependence_U,2023.2.3,Win32,166.66666666666666,,,,,,1636.9837999999522,221,4,1636.9837999999522,221,,,,1640.974,1641.4747000000477,1640.469600000143,1640.9739000000952,1637.9967999999521,1640.469600000143,1641.4747000000477,1641.974,1641.974100000143,1645.8679000000952,2762,1645.8679000000952,5,1645.8722000000475,4,15,135,23,1,1.4,0.3,Time
,,866424,001,男,20,2025-06-04_20h00.33.894,Serial_Dependence_U,2023.2.3,Win32,166.66666666666666,,,,,,1645.8724000000952,280,4,1645.8725,280,,,,1650.0469000000953,1650.546600000143,1649.5429000000954,1650.0469000000953,1646.874100000143,1649.5429000000954,1650.546600000143,1651.0445,1651.0445,1657.0929000000954,3903,1657.0929999999998,5,1657.0974999999999,4,16,136,24,1,1.6,0.3,Time
,,866424,001,男,20,2025-06-04_20h00.33.894,Serial_Dependence_U,2023.2.3,Win32,166.66666666666666,,,,,,1657.0977000000476,171,4,1657.0977000000476,171,,,,1661.249100000143,1661.748100000143,1660.7429000000952,1661.249100000143,1658.1012999999523,1660.7427999999522,1661.748100000143,1662.2477999999523,1662.2477999999523,1667.191100000143,3891,1667.191100000143,5,1667.1955,4,17,137,19,1,1.6,0.7,Time
,,866424,001,男,20,2025-06-04_20h00.33.894,Serial_Dependence_U,2023.2.3,Win32,166.66666666666666,,,,,,1667.1957000000475,175,4,1667.1957000000475,175,,,,1670.7409000000953,1671.2389000000953,1670.227100000143,1670.7407999999523,1668.1939000000953,1670.227100000143,1671.239,1671.7395,1671.7395,1676.383,3825,1676.383,5,1676.3877000000475,4,18,138,16,1,1,0.7,Time
,,866424,001,男,20,2025-06-04_20h00.33.894,Serial_Dependence_U,2023.2.3,Win32,166.66666666666666,,,,,,1676.3879000000952,168,4,1676.3879000000952,168,,,,1679.948600000143,1680.447,1679.4477999999522,1679.948600000143,1677.3874000000953,1679.4477000000477,1680.447,1680.9475,1680.9475,1685.089600000143,3154,1685.0897000000475,5,1685.094100000143,4,19,139,11,1,1,0.3,Time
,,866424,001,男,20,2025-06-04_20h00.33.894,Serial_Dependence_U,2023.2.3,Win32,166.66666666666666,,,,,,1685.0942999999522,154,4,1685.0944000000952,154,,,,1689.2469000000954,1689.7474000000952,1688.7422999999524,1689.2469000000954,1686.1056000001429,1688.7422000000477,1689.7475,1690.244600000143,1690.2447999999522,1695.2432999999523,4006,1695.2432999999523,5,1695.248,4,20,140,29,1,1.6,0.7,Time
,,866424,001,男,20,2025-06-04_20h00.33.894,Serial_Dependence_U,2023.2.3,Win32,166.66666666666666,,,,,,1695.248100000143,278,4,1695.2482000000475,278,,,,1698.619,1699.1149000000953,1698.1157999999523,1698.6189000000952,1696.2534000000953,1698.1157000000476,1699.1149000000953,1699.6117000000477,1699.6117999999522,1702.9745,2689,1702.9745,5,1702.979,4,21,141,0,1,0.8,0.3,Time
,,866424,001,男,20,2025-06-04_20h00.33.894,Serial_Dependence_U,2023.2.3,Win32,166.66666666666666,,,,,,1702.9792000000475,237,4,1702.9792999999522,237,,,,1706.7597000000476,1707.2589000000953,1706.2532999999523,1706.7597000000476,1703.9874000000952,1706.2532999999523,1707.2589000000953,1707.7562999999523,1707.7562999999523,1712.0949000000953,3690,1712.0949000000953,5,1712.0994000000953,4,22,142,12,1,1.2,0.3,Time
,,866424,001,男,20,2025-06-04_20h00.33.894,Serial_Dependence_U,2023.2.3,Win32,166.66666666666666,,,,,,1712.099600000143,70,4,1712.099600000143,70,,,,1716.2299000000953,1716.7292000000475,1715.7257000000477,1716.2299000000953,1713.0942999999522,1715.725600000143,1716.7292000000475,1717.2284000000952,1717.2285,1722.1982999999523,4253,1722.1982999999523,5,1722.2027999999523,4,23,143,9,1,1.6,0.7,Time
,,866424,001,男,20,2025-06-04_20h00.33.894,Serial_Dependence_U,2023.2.3,Win32,166.66666666666666,,,,,,1722.203,338,4,1722.203,338,,,,1725.5597999999522,1726.057100000143,1725.0555,1725.5597000000475,1723.2139000000952,1725.0555,1726.057100000143,1726.558,1726.558100000143,1731.3352999999522,4286,1731.3352999999522,5,1731.34,4,24,144,5,1,0.8,0.7,Time
,,866424,001,男,20,2025-06-04_20h00.33.894,Serial_Dependence_U,2023.2.3,Win32,166.66666666666666,,,,,,1731.3402000000476,144,4,1731.3402999999523,144,,,,1735.5047999999522,1736.0062999999523,1735.0022000000477,1735.5047000000477,1732.341600000143,1735.002100000143,1736.0062999999523,1736.494100000143,1736.494100000143,1741.8962999999524,4444,1741.8962999999524,5,1741.901100000143,4,25,145,14,1,1.6,0.3,Time
,,866424,001,男,20,2025-06-04_20h00.33.894,Serial_Dependence_U,2023.2.3,Win32,166.66666666666666,,,,,,1741.9012000000475,212,4,1741.9012999999522,212,,,,1745.268600000143,1745.7657999999522,1744.768100000143,1745.2685,1742.9052000000477,1744.768,1745.7657999999522,1746.2655,1746.2655,1749.342600000143,2418,1749.342600000143,5,1749.3477999999523,4,26,146,10,1,0.8,0.3,Time
,,866424,001,男,20,2025-06-04_20h00.33.894,Serial_Dependence_U,2023.2.3,Win32,166.66666666666666,,,,,,1749.348,72,4,1749.348,72,,,,1753.0969000000953,1753.5934000000952,1752.589,1753.0969000000953,1750.3579000000952,1752.5887999999522,1753.5934000000952,1754.0917000000477,1754.0917999999522,1758.674,3791,1758.674,5,1758.6787999999522,4,27,147,7,1,1.2,0.7,Time
,,866424,001,男,20,2025-06-04_20h00.33.894,Serial_Dependence_U,2023.2.3,Win32,166.66666666666666,,,,,,1758.6789999999999,257,4,1758.679100000143,257,,,,1762.617600000143,1763.1242000000477,1762.1149000000953,1762.6174999999998,1759.677,1762.1147999999523,1763.1242999999522,1763.6184000000953,1763.6185,1768.6937000000476,3914,1768.6937000000476,5,1768.698100000143,4,28,148,18,1,1.4,0.7,Time
,,866424,001,男,20,2025-06-04_20h00.33.894,Serial_Dependence_U,2023.2.3,Win32,166.66666666666666,,,,,,1768.6982000000476,315,4,1768.6982999999523,315,,,,1772.038,1772.537100000143,1771.532100000143,1772.038,1769.700100000143,1771.532100000143,1772.5372000000477,1773.0387999999523,1773.0387999999523,1777.7889000000953,3903,1777.7889000000953,5,1777.7932000000476,4,29,149,25,1,0.8,0.7,Time
,,866424,001,男,20,2025-06-04_20h00.33.894,Serial_Dependence_U,2023.2.3,Win32,166.66666666666666,,,,,,1777.7934000000953,163,5,1784.3022999999523,163,s,6.496299999952271,,1788.2884999999999,1788.7874000000952,1787.7797000000476,1788.2884000000954,1785.3089000000953,1787.779600000143,1788.7875,1789.2817000000475,1789.2817000000475,1794.0149999999999,4184,1794.0149999999999,5,1794.019600000143,5,0,150,23,1,1.4,0.3,Time
,,866424,001,男,20,2025-06-04_20h00.33.894,Serial_Dependence_U,2023.2.3,Win32,166.66666666666666,,,,,,1794.0197000000476,118,5,1794.0204000000954,118,,,,1798.197,1798.6939000000953,1797.6922999999522,1798.1969000000954,1795.027100000143,1797.6922999999522,1798.694,1799.1902999999522,1799.1902999999522,1804.1337000000476,4320,1804.1339000000953,5,1804.1382000000476,5,1,151,4,1,1.6,0.3,Time
,,866424,001,男,20,2025-06-04_20h00.33.894,Serial_Dependence_U,2023.2.3,Win32,166.66666666666666,,,,,,1804.1384000000953,238,5,1804.1384000000953,238,,,,1808.271,1808.7707000000476,1807.7634000000953,1808.2709000000953,1805.1322999999522,1807.7632999999523,1808.7707000000476,1809.2667999999524,1809.2667999999524,1814.3734000000952,3464,1814.3734000000952,5,1814.3784000000953,5,2,152,19,1,1.6,0.7,Time
,,866424,001,男,20,2025-06-04_20h00.33.894,Serial_Dependence_U,2023.2.3,Win32,166.66666666666666,,,,,,1814.3787000000477,317,5,1814.3787000000477,317,,,,1817.7289000000953,1818.2289000000953,1817.2272999999523,1817.7287999999523,1815.3817000000477,1817.2272000000476,1818.2289000000953,1818.7259999999999,1818.7259999999999,1822.321100000143,2894,1822.321100000143,5,1822.3257000000476,5,3,153,15,1,0.8,0.7,Time
,,866424,001,男,20,2025-06-04_20h00.33.894,Serial_Dependence_U,2023.2.3,Win32,166.66666666666666,,,,,,1822.3259000000953,302,5,1822.3259000000953,302,,,,1825.9102999999523,1826.4064000000953,1825.4012999999522,1825.9102000000476,1823.3352000000477,1825.4012000000475,1826.4064000000953,1826.9032000000477,1826.9032999999522,1830.5549000000954,3170,1830.5549000000954,5,1830.559100000143,5,4,154,21,1,1,0.3,Time
,,866424,001,男,20,2025-06-04_20h00.33.894,Serial_Dependence_U,2023.2.3,Win32,166.66666666666666,,,,,,1830.5592999999521,81,5,1830.5592999999521,81,,,,1834.0957000000476,1834.5945,1833.5934000000952,1834.0957000000476,1831.5605,1833.5932999999523,1834.5945,1835.0884999999998,1835.0884999999998,1839.1402000000476,3401,1839.1402999999523,5,1839.1447999999523,5,5,155,6,1,1,0.7,Time
,,866424,001,男,20,2025-06-04_20h00.33.894,Serial_Dependence_U,2023.2.3,Win32,166.66666666666666,,,,,,1839.145,12,5,1839.145,12,,,,1842.6889000000954,1843.187,1842.183600000143,1842.6887999999522,1840.1502000000476,1842.1834999999999,1843.187100000143,1843.6874000000953,1843.6874000000953,1848.1532000000477,3552,1848.1532000000477,5,1848.1577000000477,5,6,156,16,1,1,0.7,Time
,,866424,001,男,20,2025-06-04_20h00.33.894,Serial_Dependence_U,2023.2.3,Win32,166.66666666666666,,,,,,1848.1579000000952,130,5,1848.158,130,,,,1852.297100000143,1852.7955,1851.7907999999522,1852.297100000143,1849.1557000000475,1851.7907000000475,1852.7955,1853.2967999999523,1853.2967999999523,1857.8224000000953,3659,1857.8224000000953,5,1857.827100000143,5,7,157,9,1,1.6,0.7,Time
,,866424,001,男,20,2025-06-04_20h00.33.894,Serial_Dependence_U,2023.2.3,Win32,166.66666666666666,,,,,,1857.8272999999522,41,5,1857.8272999999522,41,,,,1861.5747999999523,1862.0762999999522,1861.068600000143,1861.5747000000476,1858.832100000143,1861.0684999999999,1862.0762999999522,1862.5757999999523,1862.5757999999523,1866.262,3257,1866.262,5,1866.2669999999998,5,8,158,17,1,1.2,0.7,Time
,,866424,001,男,20,2025-06-04_20h00.33.894,Serial_Dependence_U,2023.2.3,Win32,166.66666666666666,,,,,,1866.2672000000475,33,5,1866.2672999999522,33,,,,1870.4327999999523,1870.9299000000954,1869.9309000000953,1870.4327000000476,1867.2629000000952,1869.9307999999523,1870.9299000000954,1871.4312000000475,1871.4312000000475,1875.6052999999522,3627,1875.6054000000954,5,1875.6097999999522,5,9,159,14,1,1.6,0.3,Time
,,866424,001,男,20,2025-06-04_20h00.33.894,Serial_Dependence_U,2023.2.3,Win32,166.66666666666666,,,,,,1875.61,15,5,1875.61,15,,,,1879.3522999999523,1879.854,1878.845,1879.3522999999523,1876.614,1878.845,1879.854,1880.3555,1880.3556000001429,1884.8357999999523,3757,1884.8357999999523,5,1884.8402000000476,5,10,160,7,1,1.2,0.7,Time
,,866424,001,男,20,2025-06-04_20h00.33.894,Serial_Dependence_U,2023.2.3,Win32,166.66666666666666,,,,,,1884.8404000000953,251,5,1884.8405,251,,,,1888.5942000000475,1889.0899000000952,1888.091,1888.5942000000475,1885.8594000000953,1888.0909000000954,1889.09,1889.5865,1889.5865,1894.315100000143,3917,1894.315100000143,5,1894.3197000000475,5,11,161,27,1,1.2,0.7,Time
,,866424,001,男,20,2025-06-04_20h00.33.894,Serial_Dependence_U,2023.2.3,Win32,166.66666666666666,,,,,,1894.3199000000952,250,5,1894.32,250,,,,1897.8885,1898.3867000000475,1897.3864000000954,1897.8884000000953,1895.319,1897.3862999999521,1898.3867000000475,1898.8879000000952,1898.888,1903.0017000000475,3583,1903.0017999999523,5,1903.0062999999523,5,12,162,1,1,1,0.3,Time
,,866424,001,男,20,2025-06-04_20h00.33.894,Serial_Dependence_U,2023.2.3,Win32,166.66666666666666,,,,,,1903.0065,161,5,1903.006600000143,161,,,,1906.9512999999522,1907.4494000000952,1906.4507000000476,1906.9512999999522,1904.0187999999523,1906.450600000143,1907.4495,1907.9472999999523,1907.9474000000953,1912.1892000000475,3671,1912.1892999999523,5,1912.1939000000953,5,13,163,28,1,1.4,0.7,Time
,,866424,001,男,20,2025-06-04_20h00.33.894,Serial_Dependence_U,2023.2.3,Win32,166.66666666666666,,,,,,1912.194100000143,32,5,1912.194100000143,32,,,,1915.733600000143,1916.2324999999998,1915.2242999999523,1915.733600000143,1913.1917000000476,1915.2242999999523,1916.232600000143,1916.7302000000477,1916.7302000000477,1921.3057000000476,3915,1921.3057999999523,5,1921.31,5,14,164,26,1,1,0.7,Time
,,866424,001,男,20,2025-06-04_20h00.33.894,Serial_Dependence_U,2023.2.3,Win32,166.66666666666666,,,,,,1921.310100000143,347,5,1921.3102000000476,347,,,,1924.6564000000953,1925.1557000000475,1924.1529000000953,1924.6564000000953,1922.3177999999523,1924.1527999999523,1925.1557000000475,1925.6559000000952,1925.656,1929.319,3009,1929.319,5,1929.3239000000954,5,15,165,25,1,0.8,0.7,Time
,,866424,001,男,20,2025-06-04_20h00.33.894,Serial_Dependence_U,2023.2.3,Win32,166.66666666666666,,,,,,1929.3239999999998,187,5,1929.324100000143,187,,,,1933.2655,1933.7642000000476,1932.7575,1933.2655,1930.326600000143,1932.7574000000952,1933.7642000000476,1934.2654000000953,1934.2654000000953,1938.0587999999523,3483,1938.0587999999523,5,1938.063100000143,5,16,166,18,1,1.4,0.7,Time
,,866424,001,男,20,2025-06-04_20h00.33.894,Serial_Dependence_U,2023.2.3,Win32,166.66666666666666,,,,,,1938.0632000000476,162,5,1938.0632999999523,162,,,,1941.406600000143,1941.903,1940.8997000000477,1941.4065,1939.0644000000952,1940.8997000000477,1941.903100000143,1942.403100000143,1942.4032000000477,1945.7209000000953,2956,1945.7209000000953,5,1945.725600000143,5,17,167,5,1,0.8,0.7,Time
,,866424,001,男,20,2025-06-04_20h00.33.894,Serial_Dependence_U,2023.2.3,Win32,166.66666666666666,,,,,,1945.7257999999522,192,5,1945.7257999999522,192,,,,1949.1237000000476,1949.6192999999523,1948.6085,1949.123600000143,1946.7342999999523,1948.6085,1949.6192999999523,1950.1157999999523,1950.1157999999523,1952.8562000000477,2398,1952.8562999999522,5,1952.8602999999523,5,18,168,10,1,0.8,0.3,Time
,,866424,001,男,20,2025-06-04_20h00.33.894,Serial_Dependence_U,2023.2.3,Win32,166.66666666666666,,,,,,1952.8605,216,5,1952.860600000143,216,,,,1956.7967000000476,1957.297600000143,1956.2949000000954,1956.7967000000476,1953.8627999999524,1956.2949000000954,1957.297600000143,1957.7992000000477,1957.7992000000477,1962.7457999999522,3436,1962.7457999999522,5,1962.7504999999999,5,19,169,8,1,1.4,0.7,Time
,,866424,001,男,20,2025-06-04_20h00.33.894,Serial_Dependence_U,2023.2.3,Win32,166.66666666666666,,,,,,1962.7507999999523,82,5,1962.7509000000953,82,,,,1966.3219000000954,1966.8215,1965.8192000000477,1966.3217999999522,1963.753100000143,1965.819100000143,1966.8215,1967.3222999999523,1967.3224000000953,1971.685100000143,3452,1971.6852000000476,5,1971.6897999999524,5,20,170,11,1,1,0.3,Time
,,866424,001,男,20,2025-06-04_20h00.33.894,Serial_Dependence_U,2023.2.3,Win32,166.66666666666666,,,,,,1971.690100000143,332,5,1971.6902000000475,332,,,,1975.0682999999522,1975.5667999999523,1974.5659000000953,1975.0682000000477,1972.695600000143,1974.5657999999523,1975.5667999999523,1976.063100000143,1976.063100000143,1979.3772999999524,2805,1979.3772999999524,5,1979.382100000143,5,21,171,20,1,0.8,0.3,Time
,,866424,001,男,20,2025-06-04_20h00.33.894,Serial_Dependence_U,2023.2.3,Win32,166.66666666666666,,,,,,1979.3822000000475,310,5,1979.3822000000475,310,,,,1983.1427999999523,1983.638600000143,1982.639600000143,1983.1427000000476,1980.3764000000954,1982.6395,1983.638600000143,1984.1344000000954,1984.1345000000001,1988.0532000000476,2695,1988.0532999999523,5,1988.0577000000476,5,22,172,22,1,1.2,0.3,Time
,,866424,001,男,20,2025-06-04_20h00.33.894,Serial_Dependence_U,2023.2.3,Win32,166.66666666666666,,,,,,1988.0579000000953,269,5,1988.058,269,,,,1992.2041000001432,1992.6999999999998,1991.697299999952,1992.2041000001432,1989.0625,1991.697299999952,1992.7001000001428,1993.1967999999524,1993.1969000000954,1996.314600000143,2674,1996.314600000143,5,1996.3194000000954,5,23,173,29,1,1.6,0.7,Time
,,866424,001,男,20,2025-06-04_20h00.33.894,Serial_Dependence_U,2023.2.3,Win32,166.66666666666666,,,,,,1996.319600000143,237,5,1996.319600000143,237,,,,2000.4926000001428,2000.9915,1999.9805000000001,2000.4926000001428,1997.317799999952,1999.9804000000954,2000.9915,2001.4872000000478,2001.487299999952,2006.7325,4486,2006.7325,5,2006.7372000000478,5,24,174,24,1,1.6,0.3,Time
,,866424,001,男,20,2025-06-04_20h00.33.894,Serial_Dependence_U,2023.2.3,Win32,166.66666666666666,,,,,,2006.7374999999997,143,5,2006.7374999999997,143,,,,2010.5144000000955,2011.0129000000952,2010.0121000001432,2010.514299999952,2007.746299999952,2010.0121000001432,2011.0129000000952,2011.5075000000002,2011.5075000000002,2015.6207999999524,3605,2015.6209000000954,5,2015.6254000000954,5,25,175,2,1,1.2,0.3,Time
,,866424,001,男,20,2025-06-04_20h00.33.894,Serial_Dependence_U,2023.2.3,Win32,166.66666666666666,,,,,,2015.6255,352,5,2015.625600000143,352,,,,2019.6149999999998,2020.114799999952,2019.1064000000952,2019.6149999999998,2016.6390000000001,2019.1062999999522,2020.1149000000955,2020.611600000143,2020.6117000000477,2024.8839000000953,3686,2024.884,5,2024.8885,5,26,176,13,1,1.4,0.3,Time
,,866424,001,男,20,2025-06-04_20h00.33.894,Serial_Dependence_U,2023.2.3,Win32,166.66666666666666,,,,,,2024.8887000000477,66,5,2024.8887999999524,66,,,,2028.2599000000955,2028.7599999999998,2027.7527999999525,2028.259799999952,2025.888,2027.7527999999525,2028.7599999999998,2029.2612999999524,2029.2612999999524,2032.3584999999998,2875,2032.3584999999998,5,2032.3629000000951,5,27,177,0,1,0.8,0.3,Time
,,866424,001,男,20,2025-06-04_20h00.33.894,Serial_Dependence_U,2023.2.3,Win32,166.66666666666666,,,,,,2032.3631000001428,329,5,2032.3632000000475,329,,,,2036.1184000000953,2036.618600000143,2035.618,2036.1182999999523,2033.3561000001432,2035.6179000000952,2036.6187000000477,2037.1194999999998,2037.1196000001428,2041.3572000000477,3734,2041.3572000000477,5,2041.3639000000953,5,28,178,12,1,1.2,0.3,Time
,,866424,001,男,20,2025-06-04_20h00.33.894,Serial_Dependence_U,2023.2.3,Win32,166.66666666666666,,,,,,2041.364100000143,290,5,2041.3642999999524,290,,,,2045.3489000000955,2045.8471000001432,2044.8342000000475,2045.3487999999525,2042.3712000000478,2044.8342000000475,2045.8471000001432,2046.3482999999524,2046.3482999999524,2050.8695,3823,2050.869600000143,5,2050.873900000095,5,29,179,3,1,1.4,0.3,Time
,,866424,001,男,20,2025-06-04_20h00.33.894,Serial_Dependence_U,2023.2.3,Win32,166.66666666666666,,,,,,2050.874100000143,162,6,2109.492100000143,162,s,58.60609999990493,,2113.0355,2113.5317000000477,2112.533100000143,2113.0354000000953,2110.4975,2112.533100000143,2113.5317000000477,2114.031100000143,2114.031100000143,2118.1549000000955,3398,2118.1549999999997,5,2118.1594999999998,6,0,180,26,1,1,0.7,Time
,,866424,001,男,20,2025-06-04_20h00.33.894,Serial_Dependence_U,2023.2.3,Win32,166.66666666666666,,,,,,2118.1597000000475,168,6,2118.1604000000953,168,,,,2122.1092999999523,2122.6059000000955,2121.6052999999524,2122.1092999999523,2119.169100000143,2121.6052000000477,2122.6059000000955,2123.102,2123.102100000143,2126.7992000000477,3365,2126.7992000000477,5,2126.8037999999524,6,1,181,8,1,1.4,0.7,Time
,,866424,001,男,20,2025-06-04_20h00.33.894,Serial_Dependence_U,2023.2.3,Win32,166.66666666666666,,,,,,2126.804,342,6,2126.804100000143,342,,,,2130.181100000143,2130.679799999952,2129.6802000000475,2130.181,2127.8082000000477,2129.6802000000475,2130.679799999952,2131.1767000000477,2131.1767000000477,2134.400900000095,2690,2134.400900000095,5,2134.405600000143,6,2,182,20,1,0.8,0.3,Time
,,866424,001,男,20,2025-06-04_20h00.33.894,Serial_Dependence_U,2023.2.3,Win32,166.66666666666666,,,,,,2134.4057999999523,13,6,2134.4059000000952,13,,,,2138.1815,2138.6807000000476,2137.6725,2138.1815,2135.4109000000954,2137.6725,2138.6807000000476,2139.177900000095,2139.178,2143.5154000000953,3526,2143.5154000000953,5,2143.5204000000954,6,3,183,22,1,1.2,0.3,Time
,,866424,001,男,20,2025-06-04_20h00.33.894,Serial_Dependence_U,2023.2.3,Win32,166.66666666666666,,,,,,2143.520600000143,199,6,2143.520600000143,199,,,,2147.270100000143,2147.769,2146.7617000000478,2147.270100000143,2144.519600000143,2146.761600000143,2147.769,2148.2634000000953,2148.2635,2155.5717000000477,3424,2155.5717999999524,5,2155.576,6,4,184,7,1,1.2,0.7,Time
,,866424,001,男,20,2025-06-04_20h00.33.894,Serial_Dependence_U,2023.2.3,Win32,166.66666666666666,,,,,,2155.5762999999524,161,6,2155.5762999999524,161,,,,2159.133100000143,2159.6317000000477,2158.626600000143,2159.133,2156.5894000000953,2158.626400000095,2159.6317000000477,2160.130799999952,2160.130900000095,2164.0062999999523,3266,2164.0062999999523,5,2164.0107000000476,6,5,185,16,1,1,0.7,Time
,,866424,001,男,20,2025-06-04_20h00.33.894,Serial_Dependence_U,2023.2.3,Win32,166.66666666666666,,,,,,2164.011,28,6,2164.011,28,,,,2168.186200000048,2168.6834000000954,2167.679100000143,2168.186200000048,2165.017,2167.679,2168.6834000000954,2169.1839999999997,2169.1839999999997,2173.6895,3849,2173.689600000143,5,2173.6944000000954,6,6,186,4,1,1.6,0.3,Time
,,866424,001,男,20,2025-06-04_20h00.33.894,Serial_Dependence_U,2023.2.3,Win32,166.66666666666666,,,,,,2173.6947000000478,142,6,2173.6947000000478,142,,,,2177.228,2177.7252999999523,2176.7252999999523,2177.2279000000954,2174.6937999999523,2176.7252000000476,2177.7252999999523,2178.2219999999998,2178.222100000143,2184.128900000095,4139,2184.128900000095,5,2184.1342999999524,6,7,187,6,1,1,0.7,Time
,,866424,001,男,20,2025-06-04_20h00.33.894,Serial_Dependence_U,2023.2.3,Win32,166.66666666666666,,,,,,2184.134700000048,109,6,2184.134799999952,109,,,,2188.324,2188.823,2187.8124000000953,2188.3239000000954,2185.140600000143,2187.8124000000953,2188.823,2189.3235,2189.3235,2194.100100000143,4086,2194.1002000000476,5,2194.1045,6,8,188,14,1,1.6,0.3,Time
,,866424,001,男,20,2025-06-04_20h00.33.894,Serial_Dependence_U,2023.2.3,Win32,166.66666666666666,,,,,,2194.1047000000476,42,6,2194.1047000000476,42,,,,2197.4445,2197.943100000143,2196.9375,2197.4444000000954,2195.102600000143,2196.9375,2197.943100000143,2198.439600000143,2198.439600000143,2201.6477000000477,2757,2201.6477999999524,5,2201.6522999999524,6,9,189,25,1,0.8,0.7,Time
,,866424,001,男,20,2025-06-04_20h00.33.894,Serial_Dependence_U,2023.2.3,Win32,166.66666666666666,,,,,,2201.6524000000954,213,6,2201.652600000143,213,,,,2205.0015,2205.499299999952,2204.4995,2205.001400000095,2202.6625,2204.4995,2205.499400000095,2206.0012000000474,2206.001299999952,2210.974299999952,4227,2210.974400000095,5,2210.9787000000474,6,10,190,15,1,0.8,0.7,Time
,,866424,001,男,20,2025-06-04_20h00.33.894,Serial_Dependence_U,2023.2.3,Win32,166.66666666666666,,,,,,2210.978900000095,312,6,2210.979,312,,,,2214.5555,2215.054900000095,2214.0527000000475,2214.5555,2211.988100000143,2214.052600000143,2215.054900000095,2215.550299999952,2215.550400000095,2219.8179000000955,3867,2219.8179000000955,5,2219.822299999952,6,11,191,1,1,1,0.3,Time
,,866424,001,男,20,2025-06-04_20h00.33.894,Serial_Dependence_U,2023.2.3,Win32,166.66666666666666,,,,,,2219.8224999999998,171,6,2219.822600000143,171,,,,2223.802,2224.303,2223.2947999999524,2223.802,2220.822799999952,2223.2947000000477,2224.303100000143,2224.8002000000474,2224.800299999952,2229.4394000000952,4278,2229.4394000000952,5,2229.444,6,12,192,13,1,1.4,0.3,Time
,,866424,001,男,20,2025-06-04_20h00.33.894,Serial_Dependence_U,2023.2.3,Win32,166.66666666666666,,,,,,2229.4442000000477,12,6,2229.4442999999524,12,,,,2233.588600000143,2234.0852000000477,2233.079600000143,2233.588600000143,2230.445900000095,2233.0795,2234.0852999999524,2234.585100000143,2234.585100000143,2239.2879000000953,4180,2239.2879000000953,5,2239.2927000000477,6,13,193,19,1,1.6,0.7,Time
,,866424,001,男,20,2025-06-04_20h00.33.894,Serial_Dependence_U,2023.2.3,Win32,166.66666666666666,,,,,,2239.2929000000954,314,6,2239.2929000000954,314,,,,2243.2599999999998,2243.755799999952,2242.7567999999524,2243.2599000000955,2240.2924000000953,2242.7567000000477,2243.755799999952,2244.2527000000478,2244.2527999999525,2248.6222999999522,3955,2248.6222999999522,5,2248.626600000143,6,14,194,23,1,1.4,0.3,Time
,,866424,001,男,20,2025-06-04_20h00.33.894,Serial_Dependence_U,2023.2.3,Win32,166.66666666666666,,,,,,2248.6267999999523,294,6,2248.6267999999523,294,,,,2252.566600000143,2253.0627000000477,2252.066,2252.5665,2249.6275,2252.065900000095,2253.0627999999524,2253.5589999999997,2253.559100000143,2257.7785,3676,2257.7785,5,2257.7827000000475,6,15,195,28,1,1.4,0.7,Time
,,866424,001,男,20,2025-06-04_20h00.33.894,Serial_Dependence_U,2023.2.3,Win32,166.66666666666666,,,,,,2257.783,275,6,2257.783,275,,,,2261.764200000048,2262.2647000000475,2261.2617000000478,2261.764100000143,2258.7954000000955,2261.261600000143,2262.2647000000475,2262.760299999952,2262.760299999952,2267.2799999999997,4077,2267.280100000143,5,2267.284600000143,6,16,196,3,1,1.4,0.3,Time
,,866424,001,男,20,2025-06-04_20h00.33.894,Serial_Dependence_U,2023.2.3,Win32,166.66666666666666,,,,,,2267.284799999952,26,6,2267.284799999952,26,,,,2271.0179000000953,2271.515600000143,2270.5164000000955,2271.0177999999523,2268.2802000000474,2270.5164000000955,2271.515600000143,2272.0115,2272.011600000143,2279.393100000143,3781,2279.3932000000477,5,2279.3985,6,17,197,17,1,1.2,0.7,Time
,,866424,001,男,20,2025-06-04_20h00.33.894,Serial_Dependence_U,2023.2.3,Win32,166.66666666666666,,,,,,2279.3987000000475,302,6,2279.3987000000475,302,,,,2282.729600000143,2283.2264999999998,2282.226200000048,2282.7295,2280.395,2282.226100000143,2283.2264999999998,2283.7225,2283.7225,2287.1652999999524,2970,2287.1652999999524,5,2287.1697000000477,6,18,198,5,1,0.8,0.7,Time
,,866424,001,男,20,2025-06-04_20h00.33.894,Serial_Dependence_U,2023.2.3,Win32,166.66666666666666,,,,,,2287.1697999999524,350,6,2287.1699000000954,350,,,,2291.1067000000476,2291.607100000143,2290.606400000095,2291.1067000000476,2288.175600000143,2290.606299999952,2291.607100000143,2292.1034000000955,2292.1034999999997,2294.9265,2496,2294.9265,5,2294.931100000143,6,19,199,18,1,1.4,0.7,Time
,,866424,001,男,20,2025-06-04_20h00.33.894,Serial_Dependence_U,2023.2.3,Win32,166.66666666666666,,,,,,2294.9312000000477,312,6,2294.9312999999524,312,,,,2298.307600000143,2298.8052000000475,2297.8057000000476,2298.307400000095,2295.9444000000954,2297.8055,2298.8052000000475,2299.3007999999522,2299.3007999999522,2302.7817000000477,3066,2302.7817999999525,5,2302.7862999999525,6,20,200,0,1,0.8,0.3,Time
,,866424,001,男,20,2025-06-04_20h00.33.894,Serial_Dependence_U,2023.2.3,Win32,166.66666666666666,,,,,,2302.7865,234,6,2302.7865,234,,,,2306.358100000143,2306.8587000000475,2305.8552999999524,2306.3579999999997,2303.791600000143,2305.8552000000477,2306.8587000000475,2307.356600000143,2307.356600000143,2312.1895,4400,2312.1895,5,2312.194,6,21,201,11,1,1,0.3,Time
,,866424,001,男,20,2025-06-04_20h00.33.894,Serial_Dependence_U,2023.2.3,Win32,166.66666666666666,,,,,,2312.1942000000477,137,6,2312.1942000000477,137,,,,2316.3587000000475,2316.854600000143,2315.8572999999524,2316.358600000143,2313.188799999952,2315.8572999999524,2316.854600000143,2317.353600000143,2317.353600000143,2322.3044000000955,4299,2322.3044000000955,5,2322.3089999999997,6,22,202,24,1,1.6,0.3,Time
,,866424,001,男,20,2025-06-04_20h00.33.894,Serial_Dependence_U,2023.2.3,Win32,166.66666666666666,,,,,,2322.3092000000474,79,6,2322.309299999952,79,,,,2326.0537999999524,2326.550299999952,2325.5517999999524,2326.0537999999524,2323.316299999952,2325.5517000000477,2326.550299999952,2327.0517000000477,2327.0517000000477,2331.2817999999525,3803,2331.2817999999525,5,2331.2865,6,23,203,27,1,1.2,0.7,Time
,,866424,001,男,20,2025-06-04_20h00.33.894,Serial_Dependence_U,2023.2.3,Win32,166.66666666666666,,,,,,2331.286799999952,273,6,2331.286900000095,273,,,,2334.856400000095,2335.3527999999524,2334.351900000095,2334.856400000095,2332.289100000143,2334.351900000095,2335.3527999999524,2335.8502999999523,2335.8502999999523,2340.4492999999525,4082,2340.4494000000955,5,2340.4537999999525,6,24,204,21,1,1,0.3,Time
,,866424,001,男,20,2025-06-04_20h00.33.894,Serial_Dependence_U,2023.2.3,Win32,166.66666666666666,,,,,,2340.4539999999997,88,6,2340.4542000000474,88,,,,2343.822799999952,2344.322799999952,2343.321100000143,2343.822799999952,2341.455600000143,2343.321,2344.322799999952,2344.822299999952,2344.822299999952,2349.6112000000476,4094,2349.6112000000476,5,2349.615600000143,6,25,205,10,1,0.8,0.3,Time
,,866424,001,男,20,2025-06-04_20h00.33.894,Serial_Dependence_U,2023.2.3,Win32,166.66666666666666,,,,,,2349.6157999999523,340,6,2349.6159000000953,340,,,,2353.7724000000953,2354.2667000000474,2353.264,2353.7724000000953,2350.6252000000477,2353.264,2354.2667000000474,2354.763100000143,2354.763100000143,2359.8992000000476,4221,2359.8992999999523,5,2359.9037000000476,6,26,206,29,1,1.6,0.7,Time
,,866424,001,男,20,2025-06-04_20h00.33.894,Serial_Dependence_U,2023.2.3,Win32,166.66666666666666,,,,,,2359.9039000000953,34,6,2359.904,34,,,,2363.6762000000476,2364.1757999999522,2363.1739000000953,2363.6762000000476,2360.911,2363.1739000000953,2364.1757999999522,2364.6731000001428,2364.6732000000475,2368.5157999999524,3679,2368.5159000000954,5,2368.5205,6,27,207,2,1,1.2,0.3,Time
,,866424,001,男,20,2025-06-04_20h00.33.894,Serial_Dependence_U,2023.2.3,Win32,166.66666666666666,,,,,,2368.520600000143,346,6,2368.520600000143,346,,,,2372.657600000143,2373.1557999999523,2372.152600000143,2372.6575,2369.520700000048,2372.152600000143,2373.1557999999523,2373.6557000000475,2373.6557999999523,2377.719799999952,3692,2377.719900000095,5,2377.7242000000474,6,28,208,9,1,1.6,0.7,Time
,,866424,001,男,20,2025-06-04_20h00.33.894,Serial_Dependence_U,2023.2.3,Win32,166.66666666666666,,,,,,2377.724299999952,355,6,2377.724400000095,355,,,,2381.4997000000476,2381.9985,2380.9915,2381.4997000000476,2378.724400000095,2380.9915,2381.998600000143,2382.504100000143,2382.504100000143,2386.869900000095,3673,2386.87,5,2386.8749000000953,6,29,209,12,1,1.2,0.3,Time
,,866424,001,男,20,2025-06-04_20h00.33.894,Serial_Dependence_U,2023.2.3,Win32,166.66666666666666,,,,,,2386.8752999999524,255,7,2390.4597000000476,255,s,3.5732000000475637,,2393.8059000000953,2394.304,2393.299100000143,2393.8059000000953,2391.462799999952,2393.299,2394.304100000143,2394.804200000048,2394.804299999952,2398.551100000143,3671,2398.551100000143,5,2398.5555,7,0,210,25,1,0.8,0.7,Time
,,866424,001,男,20,2025-06-04_20h00.33.894,Serial_Dependence_U,2023.2.3,Win32,166.66666666666666,,,,,,2398.5557000000476,92,7,2398.5564000000954,92,,,,2401.922,2402.4215,2401.418900000095,2401.9219000000953,2399.5572000000475,2401.418900000095,2402.4215,2402.9184000000955,2402.9184000000955,2406.6507000000474,3469,2406.6507000000474,5,2406.655299999952,7,1,211,20,1,0.8,0.3,Time
,,866424,001,男,20,2025-06-04_20h00.33.894,Serial_Dependence_U,2023.2.3,Win32,166.66666666666666,,,,,,2406.6555,320,7,2406.6555,320,,,,2410.2324000000954,2410.73,2409.730700000048,2410.2324000000954,2407.663,2409.730600000143,2410.7302000000477,2411.232100000143,2411.2322000000477,2415.1712000000475,3575,2415.171299999952,5,2415.1757999999522,7,2,212,1,1,1,0.3,Time
,,866424,001,男,20,2025-06-04_20h00.33.894,Serial_Dependence_U,2023.2.3,Win32,166.66666666666666,,,,,,2415.175900000095,198,7,2415.175900000095,198,,,,2418.9392000000475,2419.435,2418.4367000000475,2418.939100000143,2416.170100000143,2418.4365,2419.435100000143,2419.932100000143,2419.932299999952,2423.956799999952,3696,2423.956799999952,5,2423.961100000143,7,3,213,12,1,1.2,0.3,Time
,,866424,001,男,20,2025-06-04_20h00.33.894,Serial_Dependence_U,2023.2.3,Win32,166.66666666666666,,,,,,2423.961400000095,207,7,2423.961400000095,207,,,,2428.128400000095,2428.6275,2427.6277000000478,2428.128299999952,2424.9629999999997,2427.6277000000478,2428.6275,2429.135600000143,2429.135600000143,2433.0724000000955,3539,2433.0724000000955,5,2433.0769000000955,7,4,214,14,1,1.6,0.3,Time
,,866424,001,男,20,2025-06-04_20h00.33.894,Serial_Dependence_U,2023.2.3,Win32,166.66666666666666,,,,,,2433.0769999999998,281,7,2433.0771000001428,281,,,,2436.6462000000474,2437.1357000000476,2436.143,2436.646100000143,2434.0804000000953,2436.143,2437.1357000000476,2437.6342999999524,2437.6344000000954,2441.1589000000954,3091,2441.1589000000954,5,2441.163700000048,7,5,215,11,1,1,0.3,Time
,,866424,001,男,20,2025-06-04_20h00.33.894,Serial_Dependence_U,2023.2.3,Win32,166.66666666666666,,,,,,2441.163799999952,248,7,2441.1639000000955,248,,,,2444.541900000095,2445.0409000000955,2444.0312000000476,2444.541900000095,2442.165,2444.031100000143,2445.0409000000955,2445.5384000000954,2445.5385,2449.292600000143,3384,2449.292600000143,5,2449.297600000143,7,6,216,10,1,0.8,0.3,Time
,,866424,001,男,20,2025-06-04_20h00.33.894,Serial_Dependence_U,2023.2.3,Win32,166.66666666666666,,,,,,2449.2979000000955,52,7,2449.2979000000955,52,,,,2452.673,2453.1744000000954,2452.1652999999524,2452.673,2450.296299999952,2452.1652999999524,2453.1744000000954,2453.67,2453.67,2457.6459000000955,3607,2457.6459999999997,5,2457.650299999952,7,7,217,0,1,0.8,0.3,Time
,,866424,001,男,20,2025-06-04_20h00.33.894,Serial_Dependence_U,2023.2.3,Win32,166.66666666666666,,,,,,2457.6504999999997,8,7,2457.6504999999997,8,,,,2461.1847999999522,2461.6812000000477,2460.681,2461.1847000000475,2458.650600000143,2460.6809000000953,2461.6812999999524,2462.1785,2462.178600000143,2466.125100000143,3232,2466.1252000000477,5,2466.130200000048,7,8,218,6,1,1,0.7,Time
,,866424,001,男,20,2025-06-04_20h00.33.894,Serial_Dependence_U,2023.2.3,Win32,166.66666666666666,,,,,,2466.1304000000955,130,7,2466.1304000000955,130,,,,2470.072799999952,2470.573,2469.5705,2470.072799999952,2467.1335,2469.5705,2470.573,2471.073100000143,2471.073100000143,2474.659900000095,3209,2474.659900000095,5,2474.664299999952,7,9,219,8,1,1.4,0.7,Time
,,866424,001,男,20,2025-06-04_20h00.33.894,Serial_Dependence_U,2023.2.3,Win32,166.66666666666666,,,,,,2474.664600000143,179,7,2474.664600000143,179,,,,2478.6357000000476,2479.1375,2478.1277000000478,2478.6357000000476,2475.666600000143,2478.1277000000478,2479.1375,2479.633600000143,2479.6337000000476,2483.4882000000475,3536,2483.4882999999522,5,2483.493,7,10,220,23,1,1.4,0.3,Time
,,866424,001,男,20,2025-06-04_20h00.33.894,Serial_Dependence_U,2023.2.3,Win32,166.66666666666666,,,,,,2483.4932000000476,248,7,2483.4932000000476,248,,,,2487.4559000000954,2487.9527999999523,2486.951100000143,2487.4559000000954,2484.4902000000475,2486.951100000143,2487.9527999999523,2488.455100000143,2488.455100000143,2492.5445,3795,2492.5445,5,2492.5492999999524,7,11,221,13,1,1.4,0.3,Time
,,866424,001,男,20,2025-06-04_20h00.33.894,Serial_Dependence_U,2023.2.3,Win32,166.66666666666666,,,,,,2492.5495,275,7,2492.5495,275,,,,2496.527100000143,2497.0254999999997,2496.0184000000954,2496.527,2493.5524000000955,2496.0182999999524,2497.0254999999997,2497.523,2497.523,2501.2989000000953,3179,2501.2989000000953,5,2501.3032999999523,7,12,222,3,1,1.4,0.3,Time
,,866424,001,男,20,2025-06-04_20h00.33.894,Serial_Dependence_U,2023.2.3,Win32,166.66666666666666,,,,,,2501.3034000000953,351,7,2501.3035,351,,,,2505.0519000000954,2505.550900000095,2504.545,2505.0517999999524,2502.3077000000476,2504.545,2505.550900000095,2506.0469000000953,2506.047,2510.17,3475,2510.17,5,2510.1749000000955,7,13,223,17,1,1.2,0.7,Time
,,866424,001,男,20,2025-06-04_20h00.33.894,Serial_Dependence_U,2023.2.3,Win32,166.66666666666666,,,,,,2510.175100000143,233,7,2510.175100000143,233,,,,2514.316299999952,2514.813100000143,2513.815600000143,2514.3162000000475,2511.1807999999523,2513.8155,2514.813100000143,2515.3117000000475,2515.3117000000475,2519.947900000095,4259,2519.948,5,2519.9527999999523,7,14,224,19,1,1.6,0.7,Time
,,866424,001,男,20,2025-06-04_20h00.33.894,Serial_Dependence_U,2023.2.3,Win32,166.66666666666666,,,,,,2519.953,195,7,2519.953,195,,,,2524.090799999952,2524.5924000000955,2523.589600000143,2524.0907000000475,2520.9564000000955,2523.5895,2524.5924999999997,2525.090299999952,2525.090400000095,2529.0072999999525,3705,2529.0074000000955,5,2529.0119000000955,7,15,225,29,1,1.6,0.7,Time
,,866424,001,男,20,2025-06-04_20h00.33.894,Serial_Dependence_U,2023.2.3,Win32,166.66666666666666,,,,,,2529.012100000143,11,7,2529.0122000000474,11,,,,2532.788,2533.2895,2532.282100000143,2532.788,2530.013,2532.282100000143,2533.289600000143,2533.791100000143,2533.7912000000474,2537.110299999952,2900,2537.1104000000955,5,2537.115,7,16,226,22,1,1.2,0.3,Time
,,866424,001,男,20,2025-06-04_20h00.33.894,Serial_Dependence_U,2023.2.3,Win32,166.66666666666666,,,,,,2537.115100000143,204,7,2537.1152000000475,204,,,,2541.052,2541.554200000048,2540.5445,2541.0519000000954,2538.1127000000474,2540.5445,2541.554200000048,2542.0557000000476,2542.0557999999523,2550.2679000000953,3938,2550.2679000000953,5,2550.2722000000476,7,17,227,18,1,1.4,0.7,Time
,,866424,001,男,20,2025-06-04_20h00.33.894,Serial_Dependence_U,2023.2.3,Win32,166.66666666666666,,,,,,2550.2724000000953,278,7,2550.2724000000953,278,,,,2554.440600000143,2554.9394000000952,2553.9365,2554.4404000000955,2551.2744000000953,2553.936299999952,2554.9395,2555.436799999952,2555.436799999952,2561.3322000000476,4606,2561.3322000000476,5,2561.3369000000953,7,18,228,24,1,1.6,0.3,Time
,,866424,001,男,20,2025-06-04_20h00.33.894,Serial_Dependence_U,2023.2.3,Win32,166.66666666666666,,,,,,2561.337100000143,181,7,2561.3372000000477,181,,,,2564.9057999999523,2565.403,2564.4019000000953,2564.9057000000475,2562.3362000000475,2564.4019000000953,2565.403100000143,2565.8992999999523,2565.8992999999523,2571.027100000143,3633,2571.027100000143,5,2571.0314000000953,7,19,229,21,1,1,0.3,Time
,,866424,001,男,20,2025-06-04_20h00.33.894,Serial_Dependence_U,2023.2.3,Win32,166.66666666666666,,,,,,2571.031600000143,291,7,2571.031600000143,291,,,,2574.805100000143,2575.3014000000953,2574.300100000143,2574.805,2572.036,2574.2999999999997,2575.3015,2575.7985,2575.7985,2579.0552000000475,2801,2579.0552999999522,5,2579.06,7,20,230,2,1,1.2,0.3,Time
,,866424,001,男,20,2025-06-04_20h00.33.894,Serial_Dependence_U,2023.2.3,Win32,166.66666666666666,,,,,,2579.0602000000476,55,7,2579.0602000000476,55,,,,2582.816100000143,2583.313299999952,2582.3059000000953,2582.816100000143,2580.071,2582.3057999999523,2583.313299999952,2583.8107000000477,2583.8107000000477,2589.072900000095,3589,2589.073,5,2589.077299999952,7,21,231,27,1,1.2,0.7,Time
,,866424,001,男,20,2025-06-04_20h00.33.894,Serial_Dependence_U,2023.2.3,Win32,166.66666666666666,,,,,,2589.077400000095,134,7,2589.0775,134,,,,2592.624299999952,2593.120600000143,2592.1234000000954,2592.6242000000475,2590.0844000000952,2592.1232999999525,2593.1207000000477,2593.619799999952,2593.619799999952,2598.0727000000475,3513,2598.0727000000475,5,2598.0769000000955,7,22,232,26,1,1,0.7,Time
,,866424,001,男,20,2025-06-04_20h00.33.894,Serial_Dependence_U,2023.2.3,Win32,166.66666666666666,,,,,,2598.0771000001428,147,7,2598.0772000000475,147,,,,2601.6304000000955,2602.125799999952,2601.121799999952,2601.630299999952,2599.0844000000952,2601.121799999952,2602.1259000000955,2602.628900000095,2602.629,2606.5012000000474,2751,2606.501299999952,5,2606.5054999999998,7,23,233,16,1,1,0.7,Time
,,866424,001,男,20,2025-06-04_20h00.33.894,Serial_Dependence_U,2023.2.3,Win32,166.66666666666666,,,,,,2606.5057000000475,294,7,2606.5057000000475,294,,,,2610.681700000048,2611.1794000000955,2610.1794000000955,2610.681600000143,2607.5139000000954,2610.1794000000955,2611.1794999999997,2611.676100000143,2611.6762000000476,2616.0695,3430,2616.069600000143,5,2616.0737000000477,7,24,234,4,1,1.6,0.3,Time
,,866424,001,男,20,2025-06-04_20h00.33.894,Serial_Dependence_U,2023.2.3,Win32,166.66666666666666,,,,,,2616.0739000000954,302,7,2616.074,302,,,,2619.4094000000955,2619.909100000143,2618.9042999999524,2619.4094000000955,2617.0727000000475,2618.9042999999524,2619.909100000143,2620.4072000000474,2620.4072000000474,2625.0322000000474,3592,2625.0322000000474,5,2625.0372000000475,7,25,235,5,1,0.8,0.7,Time
,,866424,001,男,20,2025-06-04_20h00.33.894,Serial_Dependence_U,2023.2.3,Win32,166.66666666666666,,,,,,2625.037400000095,95,7,2625.037400000095,95,,,,2628.368600000143,2628.8669999999997,2627.867100000143,2628.3685,2626.0352000000476,2627.867100000143,2628.8669999999997,2629.3614000000953,2629.3615,2633.422700000048,3115,2633.422799999952,5,2633.428100000143,7,26,236,15,1,0.8,0.7,Time
,,866424,001,男,20,2025-06-04_20h00.33.894,Serial_Dependence_U,2023.2.3,Win32,166.66666666666666,,,,,,2633.4284000000953,88,7,2633.4284000000953,88,,,,2637.578600000143,2638.0744000000955,2637.076,2637.5785,2634.4342000000474,2637.076,2638.0744000000955,2638.570400000095,2638.570400000095,2642.798600000143,3414,2642.798600000143,5,2642.803100000143,7,27,237,9,1,1.6,0.7,Time
,,866424,001,男,20,2025-06-04_20h00.33.894,Serial_Dependence_U,2023.2.3,Win32,166.66666666666666,,,,,,2642.8032999999523,209,7,2642.8032999999523,209,,,,2646.5382000000477,2647.0385,2646.037100000143,2646.538100000143,2643.804799999952,2646.037,2647.0385,2647.5337000000477,2647.5337000000477,2653.228799999952,4096,2653.228900000095,5,2653.233600000143,7,28,238,7,1,1.2,0.7,Time
,,866424,001,男,20,2025-06-04_20h00.33.894,Serial_Dependence_U,2023.2.3,Win32,166.66666666666666,,,,,,2653.233799999952,179,7,2653.233900000095,179,,,,2657.1805,2657.678,2656.679900000095,2657.1804000000952,2654.2412000000477,2656.679799999952,2657.678,2658.1794999999997,2658.1794999999997,2662.940100000143,4227,2662.940100000143,5,2662.944600000143,7,29,239,28,1,1.4,0.7,Time
,,866424,001,男,20,2025-06-04_20h00.33.894,Serial_Dependence_U,2023.2.3,Win32,166.66666666666666,,,,,,2662.9447000000478,53,8,2710.2039000000955,53,s,47.244299999952545,,2713.7892000000475,2714.2862000000478,2713.284,2713.7889999999998,2711.218100000143,2713.284,2714.2862999999525,2714.789400000095,2714.789400000095,2718.5662000000475,3411,2718.5662000000475,5,2718.570299999952,8,0,240,1,1,1,0.3,Time
,,866424,001,男,20,2025-06-04_20h00.33.894,Serial_Dependence_U,2023.2.3,Win32,166.66666666666666,,,,,,2718.570600000143,69,8,2718.5712999999523,69,,,,2722.141600000143,2722.643799999952,2721.6337000000476,2722.141600000143,2719.5712999999523,2721.6337000000476,2722.643799999952,2723.1414000000955,2723.1414999999997,2727.2554000000955,3655,2727.2554999999998,5,2727.259799999952,8,1,241,21,1,1,0.3,Time
,,866424,001,男,20,2025-06-04_20h00.33.894,Serial_Dependence_U,2023.2.3,Win32,166.66666666666666,,,,,,2727.2599999999998,13,8,2727.2599999999998,13,,,,2730.6027000000477,2731.101100000143,2730.0959000000953,2730.602600000143,2728.260400000095,2730.0959000000953,2731.101100000143,2731.5982000000477,2731.5982000000477,2735.2027999999523,3234,2735.2027999999523,5,2735.2074000000953,8,2,242,5,1,0.8,0.7,Time
,,866424,001,男,20,2025-06-04_20h00.33.894,Serial_Dependence_U,2023.2.3,Win32,166.66666666666666,,,,,,2735.207600000143,80,8,2735.2077000000477,80,,,,2738.570900000095,2739.070100000143,2738.065600000143,2738.570900000095,2736.204100000143,2738.065600000143,2739.0702000000474,2739.5672000000477,2739.5674000000954,2743.1142000000477,2808,2743.1142999999524,5,2743.118600000143,8,3,243,10,1,0.8,0.3,Time
,,866424,001,男,20,2025-06-04_20h00.33.894,Serial_Dependence_U,2023.2.3,Win32,166.66666666666666,,,,,,2743.1187999999524,3,8,2743.1187999999524,3,,,,2747.061600000143,2747.5579000000953,2746.552299999952,2747.061600000143,2744.1209000000954,2746.552200000048,2747.558,2748.058100000143,2748.058100000143,2753.351600000143,4222,2753.3517000000475,5,2753.3559000000955,8,4,244,8,1,1.4,0.7,Time
,,866424,001,男,20,2025-06-04_20h00.33.894,Serial_Dependence_U,2023.2.3,Win32,166.66666666666666,,,,,,2753.356100000143,106,8,2753.3562000000475,106,,,,2756.72,2757.2174000000955,2756.2192999999525,2756.72,2754.3565,2756.2192000000477,2757.2174000000955,2757.7144000000953,2757.7144000000953,2761.9089000000954,3335,2761.9089000000954,5,2761.913600000143,8,5,245,20,1,0.8,0.3,Time
,,866424,001,男,20,2025-06-04_20h00.33.894,Serial_Dependence_U,2023.2.3,Win32,166.66666666666666,,,,,,2761.913799999952,235,8,2761.9139000000955,235,,,,2766.087600000143,2766.586100000143,2765.5784000000954,2766.087600000143,2762.912600000143,2765.5784000000954,2766.586100000143,2767.087100000143,2767.087100000143,2772.2924000000953,4205,2772.2924000000953,5,2772.296600000143,8,6,246,14,1,1.6,0.3,Time
,,866424,001,男,20,2025-06-04_20h00.33.894,Serial_Dependence_U,2023.2.3,Win32,166.66666666666666,,,,,,2772.2969000000953,279,8,2772.2969000000953,279,,,,2775.848600000143,2776.3479000000953,2775.346600000143,2775.8485,2773.3062000000477,2775.3465,2776.3479000000953,2776.845,2776.845100000143,2782.1512999999522,3352,2782.1512999999522,5,2782.156,8,7,247,6,1,1,0.7,Time
,,866424,001,男,20,2025-06-04_20h00.33.894,Serial_Dependence_U,2023.2.3,Win32,166.66666666666666,,,,,,2782.1562000000476,180,8,2782.1562000000476,180,,,,2786.337799999952,2786.8334000000955,2785.8289999999997,2786.337799999952,2783.1639999999998,2785.8289999999997,2786.8334000000955,2787.333100000143,2787.333100000143,2793.5364000000955,4090,2793.5364000000955,5,2793.5407000000478,8,8,248,24,1,1.6,0.3,Time
,,866424,001,男,20,2025-06-04_20h00.33.894,Serial_Dependence_U,2023.2.3,Win32,166.66666666666666,,,,,,2793.5409999999997,9,8,2793.5409999999997,9,,,,2797.4799000000953,2797.9777999999524,2796.9734000000954,2797.4799000000953,2794.5402999999524,2796.9732999999524,2797.9779000000954,2798.479299999952,2798.479400000095,2803.3075,4180,2803.307600000143,5,2803.311900000095,8,9,249,28,1,1.4,0.7,Time
,,866424,001,男,20,2025-06-04_20h00.33.894,Serial_Dependence_U,2023.2.3,Win32,166.66666666666666,,,,,,2803.312100000143,196,8,2803.312100000143,196,,,,2807.2747000000477,2807.7762000000475,2806.770700000048,2807.274600000143,2804.3097000000475,2806.770700000048,2807.7762000000475,2808.272100000143,2808.2722000000476,2811.8525,3435,2811.852600000143,5,2811.857,8,10,250,3,1,1.4,0.3,Time
,,866424,001,男,20,2025-06-04_20h00.33.894,Serial_Dependence_U,2023.2.3,Win32,166.66666666666666,,,,,,2811.857100000143,35,8,2811.8572999999524,35,,,,2815.798,2816.293900000095,2815.2889999999998,2815.798,2812.8579999999997,2815.2889999999998,2816.293900000095,2816.791900000095,2816.791900000095,2821.9125,4379,2821.9125,5,2821.916900000095,8,11,251,18,1,1.4,0.7,Time
,,866424,001,男,20,2025-06-04_20h00.33.894,Serial_Dependence_U,2023.2.3,Win32,166.66666666666666,,,,,,2821.917100000143,66,8,2821.917100000143,66,,,,2825.2915,2825.7882000000477,2824.789100000143,2825.2915,2822.9224000000954,2824.789100000143,2825.7882000000477,2826.287400000095,2826.2875,2830.3959999999997,3373,2830.396100000143,5,2830.4004999999997,8,12,252,0,1,0.8,0.3,Time
,,866424,001,男,20,2025-06-04_20h00.33.894,Serial_Dependence_U,2023.2.3,Win32,166.66666666666666,,,,,,2830.4007000000474,333,8,2830.4007000000474,333,,,,2833.9687000000476,2834.4669000000954,2833.4617999999523,2833.9687000000476,2831.4007000000474,2833.4617999999523,2834.4669000000954,2834.9647999999524,2834.9649000000954,2839.3304000000953,3287,2839.3304000000953,5,2839.3347000000476,8,13,253,11,1,1,0.3,Time
,,866424,001,男,20,2025-06-04_20h00.33.894,Serial_Dependence_U,2023.2.3,Win32,166.66666666666666,,,,,,2839.3349000000953,321,8,2839.335,321,,,,2843.3084000000954,2843.8057999999523,2842.807299999952,2843.3084000000954,2840.339,2842.8072000000475,2843.8057999999523,2844.3037999999524,2844.3039000000954,2848.9419000000953,3358,2848.9419000000953,5,2848.9462000000476,8,14,254,23,1,1.4,0.3,Time
