Scale_setup.started,Scale_setup.stopped,participant,session,sex,age,date,expName,psychopyVersion,OS,frameRate,Intro.started,Intro.stopped,key_resp_2.keys,key_resp_2.rt,key_resp_2.duration,block.started,direction,Block_id,block.stopped,trial_direction,Block_resp_2.keys,Block_resp_2.rt,Block_resp_2.duration,ITI.started,ITI.stopped,Mask_2.started,Mask_2.stopped,encoding.started,encoding.stopped,Cue.started,Cue.stopped,Response.started,Response.stopped,keyDuration,Feedback_Time.started,FeedbackID_T,Feedback_Time.stopped,trials.thisRepN,trials.thisTrialN,trials.thisN,trials.thisIndex,trials.ran,TimeDur,Coherence1,TrialType
0.00009999996423459834,0.00019999998807662678,919598,001,男,20,2025-06-02_16h37.39.946,Serial_Dependence_U,2023.2.3,Win32,142.85714285714286,,,,,,,,,,,,,,,,,,,,,,,,,,,,,,,,,,,
,,919598,001,男,20,2025-06-02_16h37.39.946,Serial_Dependence_U,2023.2.3,Win32,142.85714285714286,52.589999999999996,271.4648999999762,space,218.85430000001196,,,,,,,,,,,,,,,,,,,,,,,,,,,,,,,
,,919598,001,男,20,2025-06-02_16h37.39.946,Serial_Dependence_U,2023.2.3,Win32,142.85714285714286,,,,,,271.4696999999881,60,0,274.8058999999762,60,s,3.3220000000000027,,278.1775999999643,278.6778999999762,277.6721999999881,278.17750000000007,275.81100000000004,277.6720999999643,278.6780999999643,279.173300000012,279.1733999999762,282.22680000001196,2256,282.2268999999762,5,283.2266999999881,0,0,0,10,1,0.8,0.3,Time
,,919598,001,男,20,2025-06-02_16h37.39.946,Serial_Dependence_U,2023.2.3,Win32,142.85714285714286,,,,,,283.22709999996425,300,0,283.22819999998814,300,,,,286.97119999998813,287.47100000000006,286.4701999999881,286.9710999999643,284.2356999999881,286.47,287.4710999999643,287.970800000012,287.970800000012,289.9150999999643,1479,289.9150999999643,4,290.91480000001195,0,1,1,17,1,1.2,0.7,Time
,,919598,001,男,20,2025-06-02_16h37.39.946,Serial_Dependence_U,2023.2.3,Win32,142.85714285714286,,,,,,290.91519999998815,37,0,290.91530000001194,37,,,,294.86350000000004,295.3630999999643,294.35900000000004,294.8633999999762,291.9218999999762,294.35900000000004,295.3630999999643,295.86300000000006,295.86300000000006,298.4553999999762,1519,298.4553999999762,4,299.4551999999881,0,2,2,8,1,1.4,0.7,Time
,,919598,001,男,20,2025-06-02_16h37.39.946,Serial_Dependence_U,2023.2.3,Win32,142.85714285714286,,,,,,299.45550000000003,211,0,299.4555999999643,211,,,,303.0313999999762,303.53069999998814,302.52450000000005,303.031300000012,300.46209999996427,302.52450000000005,303.53069999998814,304.03069999998814,304.03069999998814,305.99580000001197,680,305.99580000001197,1,306.9940999999643,0,3,3,1,1,1,0.3,Time
,,919598,001,男,20,2025-06-02_16h37.39.946,Serial_Dependence_U,2023.2.3,Win32,142.85714285714286,,,,,,306.9943999999762,313,0,306.9945,313,,,,310.3408999999762,310.84009999996425,309.833800000012,310.3408999999762,308.00059999996427,309.83369999998814,310.84009999996425,311.34000000000003,311.34000000000003,313.249800000012,1055,313.2498999999762,5,314.2493999999762,0,4,4,25,1,0.8,0.7,Time
,,919598,001,男,20,2025-06-02_16h37.39.946,Serial_Dependence_U,2023.2.3,Win32,142.85714285714286,,,,,,314.249800000012,229,0,314.2498999999762,229,,,,317.5828999999762,318.081800000012,317.08230000001197,317.5828999999762,315.25000000000006,317.0821999999881,318.081800000012,318.5818999999762,318.5818999999762,320.79750000000007,1069,320.7975999999643,5,321.7971999999881,0,5,5,5,1,0.8,0.7,Time
,,919598,001,男,20,2025-06-02_16h37.39.946,Serial_Dependence_U,2023.2.3,Win32,142.85714285714286,,,,,,321.79750000000007,284,0,321.7975999999643,284,,,,325.97700000000003,326.4716999999881,325.4700999999643,325.97700000000003,322.80400000000003,325.4700999999643,326.4716999999881,326.97180000001197,326.97180000001197,328.74230000001194,1201,328.74230000001194,2,329.7418999999762,0,6,6,4,1,1.6,0.3,Time
,,919598,001,男,20,2025-06-02_16h37.39.946,Serial_Dependence_U,2023.2.3,Win32,142.85714285714286,,,,,,329.7423999999762,233,0,329.74250000000006,233,,,,333.5196999999881,334.0190999999643,333.01300000000003,333.5196999999881,330.747,333.01280000001196,334.0190999999643,334.51900000000006,334.5190999999643,336.69950000000006,1076,336.6995999999643,2,337.699300000012,0,7,7,2,1,1.2,0.3,Time
,,919598,001,男,20,2025-06-02_16h37.39.946,Serial_Dependence_U,2023.2.3,Win32,142.85714285714286,,,,,,337.6996999999881,35,0,337.6998999999762,35,,,,341.47709999996425,341.9763999999762,340.9700999999643,341.47700000000003,338.70630000001194,340.9700999999643,341.9763999999762,342.476300000012,342.476300000012,344.1845,1028,344.1845999999643,2,345.18430000001194,0,8,8,22,1,1.2,0.3,Time
,,919598,001,男,20,2025-06-02_16h37.39.946,Serial_Dependence_U,2023.2.3,Win32,142.85714285714286,,,,,,345.18469999998814,268,0,345.18469999998814,268,,,,348.7325,349.232,348.22600000000006,348.7325,346.1911999999881,348.2258999999762,349.232,349.732,349.7320999999643,351.28819999998814,939,351.28819999998814,2,352.28730000001195,0,9,9,26,1,1,0.7,Time
,,919598,001,男,20,2025-06-02_16h37.39.946,Serial_Dependence_U,2023.2.3,Win32,142.85714285714286,,,,,,352.2875999999643,31,0,352.28769999998815,31,,,,356.4675999999643,356.96730000001196,355.9608999999762,356.4675999999643,353.2945,355.9608999999762,356.96730000001196,357.4671999999881,357.4671999999881,359.6473999999762,1604,359.64750000000004,3,360.64700000000005,0,10,10,24,1,1.6,0.3,Time
,,919598,001,男,20,2025-06-02_16h37.39.946,Serial_Dependence_U,2023.2.3,Win32,142.85714285714286,,,,,,360.6473999999762,213,0,360.64750000000004,213,,,,364.39500000000004,364.894300000012,363.8881999999881,364.3948999999762,361.65230000001196,363.8881999999881,364.894300000012,365.394300000012,365.394300000012,366.22069999998814,786,366.220800000012,1,367.21569999998815,0,11,11,7,1,1.2,0.7,Time
,,919598,001,男,20,2025-06-02_16h37.39.946,Serial_Dependence_U,2023.2.3,Win32,142.85714285714286,,,,,,367.21600000000007,66,0,367.2160999999643,66,,,,370.5973999999762,371.0968999999762,370.09069999998815,370.5973999999762,368.22350000000006,370.09069999998815,371.0968999999762,371.5968999999762,371.5968999999762,373.2078999999762,1005,373.2078999999762,4,374.20580000001195,0,12,12,20,1,0.8,0.3,Time
,,919598,001,男,20,2025-06-02_16h37.39.946,Serial_Dependence_U,2023.2.3,Win32,142.85714285714286,,,,,,374.2060999999643,356,0,374.20619999998814,356,,,,377.747300000012,378.2465,377.2403999999762,377.74719999998814,375.20550000000003,377.2403999999762,378.2465,378.7465999999643,378.7465999999643,380.16319999998814,897,380.16319999998814,2,381.1625,0,13,13,6,1,1,0.7,Time
,,919598,001,男,20,2025-06-02_16h37.39.946,Serial_Dependence_U,2023.2.3,Win32,142.85714285714286,,,,,,381.16280000001194,32,0,381.16300000000007,32,,,,385.10909999996426,385.6086999999881,384.6070999999643,385.10900000000004,382.1696999999881,384.607,385.6086999999881,386.10880000001197,386.10880000001197,388.1641999999881,1597,388.1641999999881,4,389.16230000001195,0,14,14,18,1,1.4,0.7,Time
,,919598,001,男,20,2025-06-02_16h37.39.946,Serial_Dependence_U,2023.2.3,Win32,142.85714285714286,,,,,,389.1623999999762,289,0,389.1625999999643,289,,,,393.1335999999643,393.63309999996426,392.6288999999762,393.1335999999643,390.16780000001194,392.62880000001195,393.63309999996426,394.1328999999762,394.1328999999762,395.7166999999881,1020,395.7166999999881,2,396.7160999999643,0,15,15,13,1,1.4,0.3,Time
,,919598,001,男,20,2025-06-02_16h37.39.946,Serial_Dependence_U,2023.2.3,Win32,142.85714285714286,,,,,,396.716300000012,307,0,396.716300000012,307,,,,400.69469999998813,401.1943999999762,400.18809999996427,400.69469999998813,397.7233999999762,400.18800000000005,401.1943999999762,401.69450000000006,401.69450000000006,403.278,1340,403.278,3,404.27709999996426,0,16,16,23,1,1.4,0.3,Time
,,919598,001,男,20,2025-06-02_16h37.39.946,Serial_Dependence_U,2023.2.3,Win32,142.85714285714286,,,,,,404.27730000001196,201,0,404.2773999999762,201,,,,408.423300000012,408.92250000000007,407.9161999999881,408.4231999999881,405.28450000000004,407.91600000000005,408.92250000000007,409.4223999999762,409.42250000000007,411.64459999996427,1638,411.64459999996427,3,412.644300000012,0,17,17,19,1,1.6,0.7,Time
,,919598,001,男,20,2025-06-02_16h37.39.946,Serial_Dependence_U,2023.2.3,Win32,142.85714285714286,,,,,,412.64450000000005,77,0,412.64459999996427,77,,,,416.6180999999643,417.117800000012,416.11159999996426,416.6180999999643,413.646300000012,416.11150000000004,417.117800000012,417.61769999998813,417.617800000012,419.6313999999762,1403,419.6315,3,420.6310999999643,0,18,18,3,1,1.4,0.3,Time
,,919598,001,男,20,2025-06-02_16h37.39.946,Serial_Dependence_U,2023.2.3,Win32,142.85714285714286,,,,,,420.6315,184,0,420.6315999999643,184,,,,424.2073999999762,424.70700000000005,423.70059999996425,424.20730000001197,421.63830000001195,423.70050000000003,424.70700000000005,425.2068999999762,425.20700000000005,426.6510999999643,936,426.65119999998814,2,427.6491999999881,0,19,19,21,1,1,0.3,Time
,,919598,001,男,20,2025-06-02_16h37.39.946,Serial_Dependence_U,2023.2.3,Win32,142.85714285714286,,,,,,427.64950000000005,348,0,427.64959999996427,348,,,,431.59330000001194,432.0925999999643,431.0863999999762,431.59330000001194,428.6488999999762,431.0863999999762,432.0925999999643,432.59250000000003,432.5925999999643,434.73859999996426,1500,434.73859999996426,4,435.7398999999762,0,20,20,28,1,1.4,0.7,Time
,,919598,001,男,20,2025-06-02_16h37.39.946,Serial_Dependence_U,2023.2.3,Win32,142.85714285714286,,,,,,435.74019999998814,211,0,435.740300000012,211,,,,439.8835,440.38280000001197,439.37700000000007,439.88330000001196,436.74500000000006,439.3768999999762,440.38280000001197,440.8828999999762,440.8828999999762,442.896800000012,1597,442.896800000012,3,443.89650000000006,0,21,21,9,1,1.6,0.7,Time
,,919598,001,男,20,2025-06-02_16h37.39.946,Serial_Dependence_U,2023.2.3,Win32,142.85714285714286,,,,,,443.89669999998813,111,0,443.896800000012,111,,,,447.4678999999762,447.9671999999881,446.9610999999643,447.4678999999762,444.8990999999643,446.96100000000007,447.9671999999881,448.46709999996426,448.46709999996426,449.93269999998813,1091,449.932800000012,4,450.930300000012,0,22,22,11,1,1,0.3,Time
,,919598,001,男,20,2025-06-02_16h37.39.946,Serial_Dependence_U,2023.2.3,Win32,142.85714285714286,,,,,,450.93050000000005,313,0,450.9305999999643,313,,,,454.4716999999881,454.97100000000006,453.97119999998813,454.47159999996427,451.9370999999643,453.9710999999643,454.97100000000006,455.4705,455.4705,457.0061999999881,1029,457.00630000001195,3,458.0058999999762,0,23,23,16,1,1,0.7,Time
,,919598,001,男,20,2025-06-02_16h37.39.946,Serial_Dependence_U,2023.2.3,Win32,142.85714285714286,,,,,,458.0060999999643,106,0,458.0061999999881,106,,,,462.18580000001197,462.685300000012,461.6786999999881,462.1856999999881,459.0123999999762,461.6786999999881,462.685300000012,463.18519999998813,463.185300000012,464.8516999999881,1375,464.85180000001196,2,465.85180000001196,0,24,24,14,1,1.6,0.3,Time
,,919598,001,男,20,2025-06-02_16h37.39.946,Serial_Dependence_U,2023.2.3,Win32,142.85714285714286,,,,,,465.85209999996425,104,0,465.85209999996425,104,,,,469.9966999999881,470.4966999999881,469.4900999999643,469.9966999999881,466.85819999998813,469.4898999999762,470.4966999999881,470.99630000001196,470.99630000001196,472.899300000012,1465,472.899300000012,2,473.89900000000006,0,25,25,29,1,1.6,0.7,Time
,,919598,001,男,20,2025-06-02_16h37.39.946,Serial_Dependence_U,2023.2.3,Win32,142.85714285714286,,,,,,473.8991999999881,342,0,473.899300000012,342,,,,477.6763000000119,478.17789999997615,477.16949999999997,477.6763000000119,474.905800000012,477.16949999999997,478.17789999997615,478.677699999988,478.677699999988,480.0581999999881,1041,480.0581999999881,2,481.05949999999996,0,26,26,12,1,1.2,0.3,Time
,,919598,001,男,20,2025-06-02_16h37.39.946,Serial_Dependence_U,2023.2.3,Win32,142.85714285714286,,,,,,481.05980000001193,17,0,481.0598999999761,17,,,,484.43430000001194,484.9338999999761,483.927699999988,484.43430000001194,482.0665999999642,483.9275,484.9338999999761,485.4338999999761,485.4338999999761,486.87130000001196,957,486.87130000001196,4,487.87089999997613,0,27,27,0,1,0.8,0.3,Time
,,919598,001,男,20,2025-06-02_16h37.39.946,Serial_Dependence_U,2023.2.3,Win32,142.85714285714286,,,,,,487.87109999996426,74,0,487.8711999999881,74,,,,491.6188000000119,492.1183000000119,491.11199999999997,491.61850000000004,488.87609999996425,491.1116999999881,492.1183000000119,492.6180999999642,492.6180999999642,493.93789999997614,964,493.93789999997614,2,494.93780000001186,0,28,28,27,1,1.2,0.7,Time
,,919598,001,男,20,2025-06-02_16h37.39.946,Serial_Dependence_U,2023.2.3,Win32,142.85714285714286,,,,,,494.93830000001185,25,0,494.9383999999761,25,,,,498.284,498.7860999999642,497.7773999999762,498.284,495.94449999999995,497.7773999999762,498.7860999999642,499.2858999999761,499.28599999999994,500.966199999988,1021,500.96630000001187,4,501.9645999999642,0,29,29,15,1,0.8,0.7,Time
,,919598,001,男,20,2025-06-02_16h37.39.946,Serial_Dependence_U,2023.2.3,Win32,142.85714285714286,,,,,,501.9648000000119,235,1,530.8925,235,s,28.91599999999994,,534.8436999999881,535.3435,534.3368000000119,534.8433999999761,531.8995,534.336699999988,535.3435,535.8433999999761,535.8433999999761,537.5648999999761,1381,537.5650999999642,3,537.5653000000119,1,0,30,18,1,1.4,0.7,Time
,,919598,001,男,20,2025-06-02_16h37.39.946,Serial_Dependence_U,2023.2.3,Win32,142.85714285714286,,,,,,537.5653999999762,193,1,537.5663000000119,193,,,,540.9398000000119,541.4393000000119,540.4328999999761,540.9396999999881,538.572199999988,540.4328999999761,541.4393999999761,541.9393999999761,541.9393999999761,543.2863999999762,965,543.2863999999762,4,543.2866999999881,1,1,31,10,1,0.8,0.3,Time
,,919598,001,男,20,2025-06-02_16h37.39.946,Serial_Dependence_U,2023.2.3,Win32,142.85714285714286,,,,,,543.287,87,1,543.287,87,,,,547.036,547.5358000000119,546.5293000000119,547.036,544.2933999999761,546.5293000000119,547.5358000000119,548.035300000012,548.0353999999761,549.7693999999761,1180,549.7693999999761,3,549.7695999999643,1,2,32,7,1,1.2,0.7,Time
,,919598,001,男,20,2025-06-02_16h37.39.946,Serial_Dependence_U,2023.2.3,Win32,142.85714285714286,,,,,,549.7696999999881,167,1,549.7698000000119,167,,,,553.110199999988,553.6093000000119,552.609699999988,553.1100999999642,550.7768999999762,552.609699999988,553.6093000000119,554.1088999999762,554.1088999999762,555.5880999999642,953,555.5881999999881,4,555.5883000000119,1,3,33,15,1,0.8,0.7,Time
,,919598,001,男,20,2025-06-02_16h37.39.946,Serial_Dependence_U,2023.2.3,Win32,142.85714285714286,,,,,,555.5885,65,1,555.5885,65,,,,559.5390999999643,560.038699999988,559.0323000000119,559.5390999999643,556.5953999999762,559.032,560.038699999988,560.538199999988,560.538199999988,562.2814999999999,1180,562.2815999999642,2,562.2816999999881,1,4,34,28,1,1.4,0.7,Time
,,919598,001,男,20,2025-06-02_16h37.39.946,Serial_Dependence_U,2023.2.3,Win32,142.85714285714286,,,,,,562.2818999999762,259,1,562.282,259,,,,566.427199999988,566.9263999999762,565.9200999999642,566.427,563.2885999999643,565.92,566.9265,567.4263999999762,567.4263999999762,569.5791999999881,1514,569.5793000000119,2,569.5793999999761,1,5,35,29,1,1.6,0.7,Time
,,919598,001,男,20,2025-06-02_16h37.39.946,Serial_Dependence_U,2023.2.3,Win32,142.85714285714286,,,,,,569.5795999999642,243,1,569.5796999999881,243,,,,573.7245,574.2236999999881,573.2176999999881,573.7245,570.5853999999762,573.2176999999881,574.2238000000119,574.7239999999999,574.7239999999999,576.6895,1466,576.6895,2,576.6896999999881,1,6,36,19,1,1.6,0.7,Time
,,919598,001,男,20,2025-06-02_16h37.39.946,Serial_Dependence_U,2023.2.3,Win32,142.85714285714286,,,,,,576.6898999999761,166,1,576.6899999999999,166,,,,580.0655999999642,580.5654999999999,579.5590999999642,580.0655999999642,577.6955999999642,579.559,580.5654999999999,581.0653000000119,581.0653000000119,582.4401999999881,875,582.4401999999881,4,582.4405999999642,1,7,37,0,1,0.8,0.3,Time
,,919598,001,男,20,2025-06-02_16h37.39.946,Serial_Dependence_U,2023.2.3,Win32,142.85714285714286,,,,,,582.440699999988,177,1,582.4408000000119,177,,,,586.0161999999881,586.516,585.5095999999642,586.0160999999642,583.4470999999642,585.5095999999642,586.516,587.015800000012,587.0158999999761,588.1478000000119,764,588.1478000000119,2,588.148,1,8,38,11,1,1,0.3,Time
,,919598,001,男,20,2025-06-02_16h37.39.946,Serial_Dependence_U,2023.2.3,Win32,142.85714285714286,,,,,,588.148199999988,205,1,588.1483000000119,205,,,,591.925,592.4246999999881,591.4183999999761,591.925,589.1548999999761,591.418199999988,592.4248000000119,592.9246999999881,592.9246999999881,594.355,1083,594.355,2,594.355199999988,1,9,39,2,1,1.2,0.3,Time
,,919598,001,男,20,2025-06-02_16h37.39.946,Serial_Dependence_U,2023.2.3,Win32,142.85714285714286,,,,,,594.3553999999762,285,1,594.3555,285,,,,598.1323999999761,598.6318000000119,597.626,598.1323999999761,595.3620999999642,597.6258999999761,598.6318000000119,599.132,599.132,600.597300000012,1056,600.597300000012,2,600.5975999999642,1,10,40,12,1,1.2,0.3,Time
,,919598,001,男,20,2025-06-02_16h37.39.946,Serial_Dependence_U,2023.2.3,Win32,142.85714285714286,,,,,,600.597800000012,85,1,600.5978999999761,85,,,,604.3448000000119,604.8441999999881,603.838,604.3448000000119,601.6020999999643,603.837800000012,604.8441999999881,605.3440999999642,605.3440999999642,606.9555,1139,606.9555999999642,2,606.955699999988,1,11,41,27,1,1.2,0.7,Time
,,919598,001,男,20,2025-06-02_16h37.39.946,Serial_Dependence_U,2023.2.3,Win32,142.85714285714286,,,,,,606.9558999999762,230,1,606.9558999999762,230,,,,610.5313999999761,611.0308000000119,610.0245999999643,610.5311999999881,607.9621999999881,610.0245999999643,611.0308000000119,611.5306999999881,611.5308000000119,613.3175,1021,613.3175,3,613.3178999999761,1,12,42,21,1,1,0.3,Time
,,919598,001,男,20,2025-06-02_16h37.39.946,Serial_Dependence_U,2023.2.3,Win32,142.85714285714286,,,,,,613.318,280,1,613.3180999999643,280,,,,617.296699999988,617.7955999999642,616.7898999999761,617.296699999988,614.3243999999761,616.789800000012,617.7955999999642,618.2955999999642,618.2955999999642,620.0525,1250,620.0525,2,620.052699999988,1,13,43,13,1,1.4,0.3,Time
,,919598,001,男,20,2025-06-02_16h37.39.946,Serial_Dependence_U,2023.2.3,Win32,142.85714285714286,,,,,,620.0528999999761,314,1,620.053,314,,,,623.601,624.1003999999762,623.0940999999642,623.601,621.0595999999642,623.0939999999999,624.1005,624.6003000000119,624.6003999999762,625.8993000000119,807,625.8993000000119,2,625.8993999999761,1,14,44,16,1,1,0.7,Time
,,919598,001,男,20,2025-06-02_16h37.39.946,Serial_Dependence_U,2023.2.3,Win32,142.85714285714286,,,,,,625.8995999999643,160,1,625.8996999999881,160,,,,629.6765,630.1758999999762,629.1695,629.6763999999762,626.9058999999761,629.1695,630.1758999999762,630.6758999999762,630.6758999999762,632.2033999999761,1132,632.2035,2,632.2036999999881,1,15,45,22,1,1.2,0.3,Time
,,919598,001,男,20,2025-06-02_16h37.39.946,Serial_Dependence_U,2023.2.3,Win32,142.85714285714286,,,,,,632.2038000000119,167,1,632.2038999999761,167,,,,636.3489999999999,636.8486999999881,635.8421999999881,636.3488999999762,633.2103999999762,635.8420999999643,636.8486999999881,637.3485999999642,637.3486999999881,639.2858999999761,1486,639.2858999999761,2,639.2860999999642,1,16,46,9,1,1.6,0.7,Time
,,919598,001,男,20,2025-06-02_16h37.39.946,Serial_Dependence_U,2023.2.3,Win32,142.85714285714286,,,,,,639.2863000000119,28,1,639.2863000000119,28,,,,642.6268000000119,643.1233000000119,642.1235999999642,642.6268000000119,640.2906999999881,642.1235,643.1233000000119,643.6226999999881,643.6226999999881,645.061,757,645.0610999999642,2,645.061199999988,1,17,47,25,1,0.8,0.7,Time
,,919598,001,男,20,2025-06-02_16h37.39.946,Serial_Dependence_U,2023.2.3,Win32,142.85714285714286,,,,,,645.0613999999762,36,1,645.0613999999762,36,,,,649.2405999999643,649.7463999999761,648.7338999999762,649.2405999999643,646.0670999999642,648.7338000000119,649.7465,650.2426999999881,650.2426999999881,652.2144999999999,1513,652.2144999999999,2,652.2148000000119,1,18,48,4,1,1.6,0.3,Time
,,919598,001,男,20,2025-06-02_16h37.39.946,Serial_Dependence_U,2023.2.3,Win32,142.85714285714286,,,,,,652.2148999999762,143,1,652.2150999999642,143,,,,656.1908999999762,656.6905999999642,655.6865,656.1908999999762,653.2213000000119,655.6865,656.6905999999642,657.190699999988,657.1908000000119,658.6143000000119,1076,658.6143000000119,2,658.6143999999762,1,19,49,3,1,1.4,0.3,Time
,,919598,001,男,20,2025-06-02_16h37.39.946,Serial_Dependence_U,2023.2.3,Win32,142.85714285714286,,,,,,658.6145999999642,95,1,658.614699999988,95,,,,661.9608999999762,662.4605,661.4541999999881,661.9608999999762,659.6185999999642,661.4540999999642,662.4605,662.9598999999762,662.9598999999762,664.169,860,664.1690999999643,4,664.1693999999761,1,20,50,5,1,0.8,0.7,Time
,,919598,001,男,20,2025-06-02_16h37.39.946,Serial_Dependence_U,2023.2.3,Win32,142.85714285714286,,,,,,664.1695,292,1,664.1695999999642,292,,,,667.9115999999642,668.4065999999642,667.4045,667.9114999999999,665.1685,667.4045,668.4065999999642,668.9065999999642,668.9065999999642,670.6005,1054,670.6005999999642,2,670.600699999988,1,21,51,17,1,1.2,0.7,Time
,,919598,001,男,20,2025-06-02_16h37.39.946,Serial_Dependence_U,2023.2.3,Win32,142.85714285714286,,,,,,670.6008999999761,109,1,670.6008999999761,109,,,,674.1418000000119,674.6415,673.6351999999881,674.1416999999881,671.6008000000119,673.6350999999643,674.6415,675.1415,675.1415,676.5161999999881,951,676.5161999999881,3,676.5163999999761,1,22,52,26,1,1,0.7,Time
,,919598,001,男,20,2025-06-02_16h37.39.946,Serial_Dependence_U,2023.2.3,Win32,142.85714285714286,,,,,,676.5165999999642,180,1,676.5166999999881,180,,,,680.6965999999642,681.1958999999762,680.1896999999881,680.6965999999642,677.523199999988,680.1896999999881,681.1958999999762,681.696,681.696,683.7236999999881,1465,683.7236999999881,2,683.7238999999762,1,23,53,24,1,1.6,0.3,Time
,,919598,001,男,20,2025-06-02_16h37.39.946,Serial_Dependence_U,2023.2.3,Win32,142.85714285714286,,,,,,683.7240999999642,220,1,683.7241999999881,220,,,,687.6745,688.1740999999643,687.1678999999762,687.6743999999761,684.7305,687.1678000000119,688.1740999999643,688.674,688.674,690.306,1116,690.306,2,690.306199999988,1,24,54,8,1,1.4,0.7,Time
,,919598,001,男,20,2025-06-02_16h37.39.946,Serial_Dependence_U,2023.2.3,Win32,142.85714285714286,,,,,,690.3063999999762,175,1,690.3063999999762,175,,,,693.8818999999761,694.3815,693.3753000000119,693.8818999999761,691.3128000000119,693.3753000000119,694.3815,694.8813999999761,694.8815,696.3605,986,696.3605999999643,3,696.3608999999761,1,25,55,1,1,1,0.3,Time
,,919598,001,男,20,2025-06-02_16h37.39.946,Serial_Dependence_U,2023.2.3,Win32,142.85714285714286,,,,,,696.3610999999643,59,1,696.3611999999881,59,,,,700.5405,701.0403000000119,700.0338000000119,700.5405,697.3673999999761,700.0338000000119,701.0403000000119,701.5403000000119,701.5403999999761,703.29,1235,703.29,2,703.2903000000119,1,26,56,14,1,1.6,0.3,Time
,,919598,001,男,20,2025-06-02_16h37.39.946,Serial_Dependence_U,2023.2.3,Win32,142.85714285714286,,,,,,703.2905,307,1,703.2905999999642,307,,,,706.8386999999881,707.3378999999761,706.3313000000119,706.8385999999642,704.297,706.3313000000119,707.3378999999761,707.838,707.838,709.1365,1026,709.1365999999642,3,709.1368000000119,1,27,57,6,1,1,0.7,Time
,,919598,001,男,20,2025-06-02_16h37.39.946,Serial_Dependence_U,2023.2.3,Win32,142.85714285714286,,,,,,709.137,13,1,709.137,13,,,,713.115,713.615,712.6083000000119,713.1148999999762,710.1433000000119,712.6083000000119,713.6150999999642,714.1145999999642,714.1145999999642,715.975699999988,1451,715.975699999988,3,715.9758999999761,1,28,58,23,1,1.4,0.3,Time
,,919598,001,男,20,2025-06-02_16h37.39.946,Serial_Dependence_U,2023.2.3,Win32,142.85714285714286,,,,,,715.9760999999643,232,1,715.976199999988,232,,,,719.3433999999761,719.8428999999761,718.8365999999643,719.3433000000119,716.9758999999761,718.8365,719.8428999999761,720.3428999999761,720.3428999999761,721.586,923,721.586,4,721.5863000000119,1,29,59,20,1,0.8,0.3,Time
,,919598,001,男,20,2025-06-02_16h37.39.946,Serial_Dependence_U,2023.2.3,Win32,142.85714285714286,,,,,,721.5865,321,2,732.9245,321,s,11.327799999952276,,736.472800000012,736.9721999999881,735.9660999999642,736.472800000012,733.9313999999762,735.9660999999642,736.972300000012,737.472300000012,737.472300000012,738.6804999999999,847,738.6804999999999,2,738.6806999999881,2,0,60,6,1,1,0.7,Time
,,919598,001,男,20,2025-06-02_16h37.39.946,Serial_Dependence_U,2023.2.3,Win32,142.85714285714286,,,,,,738.6808999999762,273,2,738.682,273,,,,742.2295999999642,742.7281999999881,741.7220999999643,742.2293999999762,739.6875999999643,741.722,742.7283000000119,743.2281999999881,743.2281999999881,744.6380999999642,910,744.6380999999642,2,744.6383999999762,2,1,61,26,1,1,0.7,Time
,,919598,001,男,20,2025-06-02_16h37.39.946,Serial_Dependence_U,2023.2.3,Win32,142.85714285714286,,,,,,744.6385,125,2,744.6385999999642,125,,,,748.0126999999881,748.5123000000119,747.5060999999642,748.0126999999881,745.6448999999761,747.506,748.5123999999762,749.0120999999642,749.0120999999642,750.3246999999881,798,750.3246999999881,3,750.3249999999999,2,2,62,20,1,0.8,0.3,Time
,,919598,001,男,20,2025-06-02_16h37.39.946,Serial_Dependence_U,2023.2.3,Win32,142.85714285714286,,,,,,750.3250999999642,321,2,750.3251999999881,321,,,,753.900300000012,754.4001999999881,753.3938000000119,753.900300000012,751.331199999988,753.393699999988,754.4001999999881,754.9,754.9,756.1293000000119,909,756.1293000000119,2,756.1295999999642,2,3,63,21,1,1,0.3,Time
,,919598,001,男,20,2025-06-02_16h37.39.946,Serial_Dependence_U,2023.2.3,Win32,142.85714285714286,,,,,,756.1298000000119,236,2,756.1298999999761,236,,,,760.080199999988,760.5798999999762,759.5735,760.080199999988,757.1363999999761,759.5733999999761,760.5798999999762,761.0798000000119,761.0798000000119,762.524199999988,972,762.5243000000119,1,762.5243999999761,2,4,64,28,1,1.4,0.7,Time
,,919598,001,男,20,2025-06-02_16h37.39.946,Serial_Dependence_U,2023.2.3,Win32,142.85714285714286,,,,,,762.5245999999643,100,2,762.5246999999881,100,,,,766.0933000000119,766.5928999999761,765.5865999999643,766.0931999999881,763.524199999988,765.5865,766.5928999999761,767.092800000012,767.092800000012,768.384199999988,819,768.3843000000119,2,768.3843999999762,2,5,65,11,1,1,0.3,Time
,,919598,001,男,20,2025-06-02_16h37.39.946,Serial_Dependence_U,2023.2.3,Win32,142.85714285714286,,,,,,768.384699999988,117,2,768.3848000000119,117,,,,772.3616999999881,772.8603999999762,771.8565,772.3615999999643,769.3911999999881,771.8565,772.8603999999762,773.3605,773.3605,774.5760999999642,909,774.576199999988,1,774.5763999999762,2,6,66,23,1,1.4,0.3,Time
,,919598,001,男,20,2025-06-02_16h37.39.946,Serial_Dependence_U,2023.2.3,Win32,142.85714285714286,,,,,,774.5765,239,2,774.5765999999642,239,,,,778.7555,779.2550999999643,778.249199999988,778.7553999999761,775.5825,778.249199999988,779.255199999988,779.7553999999761,779.7553999999761,781.549,1409,781.5490999999643,2,781.5493999999761,2,7,67,24,1,1.6,0.3,Time
,,919598,001,男,20,2025-06-02_16h37.39.946,Serial_Dependence_U,2023.2.3,Win32,142.85714285714286,,,,,,781.5495999999642,201,2,781.5496999999881,201,,,,785.13,785.6288999999762,784.6235,785.13,782.5560999999642,784.6233000000119,785.6288999999762,786.1293999999762,786.1293999999762,787.423199999988,993,787.423199999988,3,787.4233999999761,2,8,68,1,1,1,0.3,Time
,,919598,001,男,20,2025-06-02_16h37.39.946,Serial_Dependence_U,2023.2.3,Win32,142.85714285714286,,,,,,787.4235,67,2,787.4236999999881,67,,,,790.77,791.2696999999881,790.2633999999762,790.7698999999761,788.4303000000119,790.2633000000119,791.2696999999881,791.7695999999643,791.7695999999643,792.7625999999642,604,792.7626999999881,2,792.7628999999762,2,9,69,25,1,0.8,0.7,Time
,,919598,001,男,20,2025-06-02_16h37.39.946,Serial_Dependence_U,2023.2.3,Win32,142.85714285714286,,,,,,792.763,134,2,792.7630999999642,134,,,,796.7415,797.2408000000119,796.2345999999642,796.7413999999761,793.7695999999643,796.2345999999642,797.2408000000119,797.741,797.741,799.0741999999881,979,799.0741999999881,1,799.0743999999761,2,10,70,3,1,1.4,0.3,Time
,,919598,001,男,20,2025-06-02_16h37.39.946,Serial_Dependence_U,2023.2.3,Win32,142.85714285714286,,,,,,799.0745999999642,179,2,799.0746999999881,179,,,,802.4209999999999,802.9206999999881,801.9143999999761,802.4209999999999,800.081,801.9143999999761,802.9206999999881,803.4203999999761,803.4205,804.8163000000119,618,804.8163000000119,2,804.8165999999642,2,11,71,5,1,0.8,0.7,Time
,,919598,001,男,20,2025-06-02_16h37.39.946,Serial_Dependence_U,2023.2.3,Win32,142.85714285714286,,,,,,804.8168000000119,31,2,804.8168000000119,31,,,,808.7948999999761,809.294800000012,808.288199999988,808.7948999999761,805.823300000012,808.2880999999642,809.294800000012,809.7948999999761,809.7948999999761,811.461199999988,1305,811.461199999988,2,811.4613999999762,2,12,72,13,1,1.4,0.3,Time
,,919598,001,男,20,2025-06-02_16h37.39.946,Serial_Dependence_U,2023.2.3,Win32,142.85714285714286,,,,,,811.4615999999643,174,2,811.4615999999643,174,,,,815.6413999999761,816.1408999999761,815.134699999988,815.6413999999761,812.4680999999642,815.1345999999642,816.1408999999761,816.6408999999761,816.641,818.578300000012,1520,818.578300000012,2,818.5785,2,13,73,4,1,1.6,0.3,Time
,,919598,001,男,20,2025-06-02_16h37.39.946,Serial_Dependence_U,2023.2.3,Win32,142.85714285714286,,,,,,818.5788000000119,175,2,818.5788999999761,175,,,,822.328,822.827199999988,821.8208999999762,822.327800000012,819.5850999999642,821.8208999999762,822.8273000000119,823.3275,823.3275,824.6883000000118,1007,824.6883999999761,2,824.6885999999643,2,14,74,17,1,1.2,0.7,Time
,,919598,001,男,20,2025-06-02_16h37.39.946,Serial_Dependence_U,2023.2.3,Win32,142.85714285714286,,,,,,824.6888999999761,179,2,824.6888999999761,179,,,,828.8338000000119,829.3335,828.3270999999643,828.8338000000119,825.6951999999881,828.3270999999643,829.3335,829.8331999999881,829.833300000012,831.729,1506,831.729,2,831.729199999988,2,15,75,29,1,1.6,0.7,Time
,,919598,001,男,20,2025-06-02_16h37.39.946,Serial_Dependence_U,2023.2.3,Win32,142.85714285714286,,,,,,831.7295,215,2,831.7295,215,,,,835.909,836.4090999999643,835.4023999999762,835.909,832.736,835.4023000000119,836.4090999999643,836.9088999999761,836.9088999999761,838.4780999999642,1097,838.4780999999642,1,838.4783999999761,2,16,76,14,1,1.6,0.3,Time
,,919598,001,男,20,2025-06-02_16h37.39.946,Serial_Dependence_U,2023.2.3,Win32,142.85714285714286,,,,,,838.4785999999642,355,2,838.4786999999881,355,,,,841.8513000000119,842.3500999999642,841.3460999999642,841.851199999988,839.4848999999762,841.346,842.3500999999642,842.85,842.85,844.3433000000119,909,844.3433000000119,4,844.3435,2,17,77,0,1,0.8,0.3,Time
,,919598,001,男,20,2025-06-02_16h37.39.946,Serial_Dependence_U,2023.2.3,Win32,142.85714285714286,,,,,,844.3435999999642,345,2,844.3436999999881,345,,,,847.717800000012,848.2171999999881,847.211,847.7176999999881,845.35,847.2108999999762,848.217300000012,848.7168999999761,848.7168999999761,850.023,805,850.023,3,850.023199999988,2,18,78,10,1,0.8,0.3,Time
,,919598,001,男,20,2025-06-02_16h37.39.946,Serial_Dependence_U,2023.2.3,Win32,142.85714285714286,,,,,,850.0233999999762,101,2,850.0235,101,,,,853.7675999999642,854.2669999999999,853.260800000012,853.7675,851.0296999999881,853.2606999999881,854.2669999999999,854.7669999999999,854.7669999999999,856.246300000012,1083,856.246300000012,2,856.2465,2,19,79,7,1,1.2,0.7,Time
,,919598,001,男,20,2025-06-02_16h37.39.946,Serial_Dependence_U,2023.2.3,Win32,142.85714285714286,,,,,,856.2466999999881,354,2,856.246800000012,354,,,,859.7875999999642,860.2870999999642,859.2805,859.7875,857.2463999999761,859.2803999999761,860.287199999988,860.7870999999642,860.7870999999642,861.8215,688,861.8215999999642,1,861.8218000000119,2,20,80,16,1,1,0.7,Time
,,919598,001,男,20,2025-06-02_16h37.39.946,Serial_Dependence_U,2023.2.3,Win32,142.85714285714286,,,,,,861.822,212,2,861.8220999999642,212,,,,865.5989999999999,866.0986999999881,865.0923999999761,865.5988999999762,862.8283999999761,865.0923999999761,866.0988000000119,866.5988999999762,866.5988999999762,868.2303999999762,1048,868.2303999999762,2,868.2305999999642,2,21,81,2,1,1.2,0.3,Time
,,919598,001,男,20,2025-06-02_16h37.39.946,Serial_Dependence_U,2023.2.3,Win32,142.85714285714286,,,,,,868.2308000000119,244,2,868.2308999999761,244,,,,872.008,872.5078000000119,871.5011999999881,872.0078999999762,869.2373999999761,871.5010999999643,872.5078000000119,873.0073999999761,873.0074999999999,874.5213000000119,1069,874.5213000000119,2,874.5215,2,22,82,12,1,1.2,0.3,Time
,,919598,001,男,20,2025-06-02_16h37.39.946,Serial_Dependence_U,2023.2.3,Win32,142.85714285714286,,,,,,874.5216999999881,173,2,874.5218000000119,173,,,,878.6651999999881,879.1641999999881,878.1595999999643,878.6650999999642,875.528199999988,878.1595999999643,879.1641999999881,879.664,879.664,881.6221999999881,1444,881.6221999999881,2,881.6223999999761,2,23,83,19,1,1.6,0.7,Time
,,919598,001,男,20,2025-06-02_16h37.39.946,Serial_Dependence_U,2023.2.3,Win32,142.85714285714286,,,,,,881.6225999999642,57,2,881.6226999999881,57,,,,885.371300000012,885.871,884.865199999988,885.3711999999881,882.6283000000119,884.865199999988,885.8710999999643,886.3708999999761,886.371,887.9338999999761,1034,887.9338999999761,2,887.9340999999642,2,24,84,27,1,1.2,0.7,Time
,,919598,001,男,20,2025-06-02_16h37.39.946,Serial_Dependence_U,2023.2.3,Win32,142.85714285714286,,,,,,887.934300000012,313,2,887.934300000012,313,,,,891.8848000000119,892.384199999988,891.378199999988,891.8848000000119,888.9405999999642,891.3780999999642,892.384199999988,892.884199999988,892.884199999988,894.8288000000119,1395,894.8288000000119,3,894.8290999999642,2,25,85,8,1,1.4,0.7,Time
,,919598,001,男,20,2025-06-02_16h37.39.946,Serial_Dependence_U,2023.2.3,Win32,142.85714285714286,,,,,,894.8291999999881,95,2,894.8293000000119,95,,,,898.779199999988,899.2788999999761,898.272699999988,898.779199999988,895.8353000000119,898.272699999988,899.2788999999761,899.7788999999761,899.7788999999761,901.1405,1009,901.1405,2,901.1406999999881,2,26,86,18,1,1.4,0.7,Time
,,919598,001,男,20,2025-06-02_16h37.39.946,Serial_Dependence_U,2023.2.3,Win32,142.85714285714286,,,,,,901.1408999999761,344,2,901.141,344,,,,905.284800000012,905.785,904.7785,905.284800000012,902.1468999999762,904.7785,905.7850999999642,906.285,906.285,908.028,1416,908.0280999999642,2,908.0283000000119,2,27,87,9,1,1.6,0.7,Time
,,919598,001,男,20,2025-06-02_16h37.39.946,Serial_Dependence_U,2023.2.3,Win32,142.85714285714286,,,,,,908.0285,217,2,908.0285999999642,217,,,,911.8050999999642,912.3045,911.2983000000119,911.805,909.034800000012,911.2983000000119,912.3045,912.8048000000119,912.8048000000119,914.3605,1014,914.3605999999643,2,914.360699999988,2,28,88,22,1,1.2,0.3,Time
,,919598,001,男,20,2025-06-02_16h37.39.946,Serial_Dependence_U,2023.2.3,Win32,142.85714285714286,,,,,,914.3608999999761,297,2,914.3608999999761,297,,,,917.707,918.2068000000119,917.2008000000119,917.7068999999761,915.367,917.2008000000119,918.2068000000119,918.7063999999762,918.7063999999762,919.568300000012,542,919.5683999999761,1,919.5686999999881,2,29,89,15,1,0.8,0.7,Time
,,919598,001,男,20,2025-06-02_16h37.39.946,Serial_Dependence_U,2023.2.3,Win32,142.85714285714286,,,,,,919.568800000012,157,3,1052.2233999999762,157,s,132.64419999998802,,1055.5980999999642,1056.0975,1055.0915999999643,1055.598,1053.2305999999642,1055.0915999999643,1056.0975,1056.5978000000118,1056.5978000000118,1057.7228000000118,798,1057.722899999976,3,1057.7230999999642,3,0,90,0,1,0.8,0.3,Time
,,919598,001,男,20,2025-06-02_16h37.39.946,Serial_Dependence_U,2023.2.3,Win32,142.85714285714286,,,,,,1057.723199999988,180,3,1057.724199999988,180,,,,1061.1020999999641,1061.6015999999643,1060.5950999999643,1061.1020999999641,1058.7298999999762,1060.5950999999643,1061.6015999999643,1062.1013000000119,1062.1013000000119,1063.1365999999641,757,1063.1365999999641,2,1063.1368000000118,3,1,91,10,1,0.8,0.3,Time
,,919598,001,男,20,2025-06-02_16h37.39.946,Serial_Dependence_U,2023.2.3,Win32,142.85714285714286,,,,,,1063.137,128,3,1063.1370999999642,128,,,,1066.709399999976,1067.204699999988,1066.205800000012,1066.709399999976,1064.1425999999642,1066.2055999999643,1067.2048000000118,1067.705,1067.705,1068.943300000012,923,1068.9433999999762,2,1068.9435,3,2,92,1,1,1,0.3,Time
,,919598,001,男,20,2025-06-02_16h37.39.946,Serial_Dependence_U,2023.2.3,Win32,142.85714285714286,,,,,,1068.943699999988,288,3,1068.9438000000118,288,,,,1072.2833999999762,1072.7826999999882,1071.776399999976,1072.2833000000119,1069.9430999999643,1071.776399999976,1072.7826999999882,1073.2826999999882,1073.2826999999882,1074.393699999988,667,1074.3938000000119,2,1074.3938999999762,3,3,93,25,1,0.8,0.7,Time
,,919598,001,男,20,2025-06-02_16h37.39.946,Serial_Dependence_U,2023.2.3,Win32,142.85714285714286,,,,,,1074.3940999999643,233,3,1074.3941999999881,233,,,,1077.733899999976,1078.233199999988,1077.227,1077.7338000000118,1075.394,1077.227,1078.233199999988,1078.733199999988,1078.733300000012,1079.8235999999642,708,1079.8235999999642,2,1079.823800000012,3,4,94,15,1,0.8,0.7,Time
,,919598,001,男,20,2025-06-02_16h37.39.946,Serial_Dependence_U,2023.2.3,Win32,142.85714285714286,,,,,,1079.824,308,3,1079.824199999988,308,,,,1083.593800000012,1084.0935999999642,1083.0870999999643,1083.593800000012,1080.823699999988,1083.087,1084.0935999999642,1084.593399999976,1084.593399999976,1085.9335999999641,854,1085.9335999999641,2,1085.9338000000118,3,5,95,12,1,1.2,0.3,Time
,,919598,001,男,20,2025-06-02_16h37.39.946,Serial_Dependence_U,2023.2.3,Win32,142.85714285714286,,,,,,1085.934,198,3,1085.9340999999642,198,,,,1089.912699999988,1090.412,1089.405699999988,1089.9125999999642,1086.9405999999642,1089.405699999988,1090.412,1090.9120999999643,1090.9120999999643,1092.5855999999642,1146,1092.585699999988,2,1092.585800000012,3,6,96,13,1,1.4,0.3,Time
,,919598,001,男,20,2025-06-02_16h37.39.946,Serial_Dependence_U,2023.2.3,Win32,142.85714285714286,,,,,,1092.586,181,3,1092.5860999999643,181,,,,1096.1338999999762,1096.633399999976,1095.6270999999642,1096.1338999999762,1093.5923999999761,1095.627,1096.633399999976,1097.133399999976,1097.133399999976,1098.7440999999642,882,1098.744199999988,2,1098.7443999999762,3,7,97,16,1,1,0.7,Time
,,919598,001,男,20,2025-06-02_16h37.39.946,Serial_Dependence_U,2023.2.3,Win32,142.85714285714286,,,,,,1098.7445999999643,299,3,1098.7445999999643,299,,,,1102.2926999999881,1102.792199999988,1101.785699999988,1102.2925999999643,1099.7515,1101.7855999999642,1102.792300000012,1103.2916999999882,1103.291800000012,1104.507099999964,902,1104.507199999988,2,1104.5073000000118,3,8,98,26,1,1,0.7,Time
,,919598,001,男,20,2025-06-02_16h37.39.946,Serial_Dependence_U,2023.2.3,Win32,142.85714285714286,,,,,,1104.5075,317,3,1104.507699999988,317,,,,1108.2845999999643,1108.7839999999999,1107.7778999999762,1108.2845,1105.5143000000119,1107.777800000012,1108.7839999999999,1109.284199999988,1109.284199999988,1110.694199999988,890,1110.694300000012,2,1110.6943999999762,3,9,99,2,1,1.2,0.3,Time
,,919598,001,男,20,2025-06-02_16h37.39.946,Serial_Dependence_U,2023.2.3,Win32,142.85714285714286,,,,,,1110.694599999964,275,3,1110.694699999988,275,,,,1114.0615999999643,1114.5613999999762,1113.555,1114.0615,1111.694199999988,1113.554800000012,1114.5613999999762,1115.0615999999643,1115.0615999999643,1116.5263000000118,805,1116.526399999976,3,1116.5265999999642,3,10,100,20,1,0.8,0.3,Time
,,919598,001,男,20,2025-06-02_16h37.39.946,Serial_Dependence_U,2023.2.3,Win32,142.85714285714286,,,,,,1116.526699999988,165,3,1116.526800000012,165,,,,1120.276,1120.7755,1119.769300000012,1120.2758999999762,1117.5333999999762,1119.7691999999881,1120.7755,1121.2753000000118,1121.2753000000118,1122.713,951,1122.713,2,1122.713199999988,3,11,101,27,1,1.2,0.7,Time
,,919598,001,男,20,2025-06-02_16h37.39.946,Serial_Dependence_U,2023.2.3,Win32,142.85714285714286,,,,,,1122.713300000012,234,3,1122.7135,234,,,,1126.6918000000119,1127.191300000012,1126.185,1126.691699999988,1123.719800000012,1126.184899999976,1127.191300000012,1127.691300000012,1127.691300000012,1128.9756999999881,936,1128.975800000012,1,1128.9759999999999,3,12,102,23,1,1.4,0.3,Time
,,919598,001,男,20,2025-06-02_16h37.39.946,Serial_Dependence_U,2023.2.3,Win32,142.85714285714286,,,,,,1128.976199999988,101,3,1128.9763000000119,101,,,,1133.1555999999641,1133.6555999999641,1132.649199999988,1133.1555,1129.982899999976,1132.649199999988,1133.655699999988,1134.1553999999762,1134.1553999999762,1135.8985999999643,1416,1135.8985999999643,2,1135.898800000012,3,13,103,14,1,1.6,0.3,Time
,,919598,001,男,20,2025-06-02_16h37.39.946,Serial_Dependence_U,2023.2.3,Win32,142.85714285714286,,,,,,1135.898899999976,36,3,1135.899,36,,,,1139.877,1140.3765999999641,1139.3705,1139.877,1136.9050999999642,1139.3703999999761,1140.376699999988,1140.876899999976,1140.876899999976,1142.647199999988,1423,1142.647199999988,3,1142.6475,3,14,104,3,1,1.4,0.3,Time
,,919598,001,男,20,2025-06-02_16h37.39.946,Serial_Dependence_U,2023.2.3,Win32,142.85714285714286,,,,,,1142.6476999999882,165,3,1142.647800000012,165,,,,1146.8275999999641,1147.327,1146.3205999999643,1146.8273999999763,1143.654300000012,1146.3205999999643,1147.327,1147.8270999999643,1147.8270999999643,1149.521300000012,1186,1149.5213999999762,2,1149.521599999964,3,15,105,4,1,1.6,0.3,Time
,,919598,001,男,20,2025-06-02_16h37.39.946,Serial_Dependence_U,2023.2.3,Win32,142.85714285714286,,,,,,1149.5218000000118,267,3,1149.521899999976,267,,,,1153.472300000012,1153.9718000000119,1152.9656999999881,1153.472300000012,1150.528,1152.9655999999643,1153.9718000000119,1154.471699999988,1154.4718000000119,1156.082699999988,1034,1156.082699999988,2,1156.0828999999762,3,16,106,28,1,1.4,0.7,Time
,,919598,001,男,20,2025-06-02_16h37.39.946,Serial_Dependence_U,2023.2.3,Win32,142.85714285714286,,,,,,1156.0830999999641,36,3,1156.0830999999641,36,,,,1159.8325,1160.3319999999999,1159.3258999999762,1159.8325,1157.089800000012,1159.325800000012,1160.3320999999642,1160.8319999999999,1160.8320999999642,1162.449699999988,1097,1162.449800000012,2,1162.45,3,17,107,17,1,1.2,0.7,Time
,,919598,001,男,20,2025-06-02_16h37.39.946,Serial_Dependence_U,2023.2.3,Win32,142.85714285714286,,,,,,1162.4503000000118,121,3,1162.4503000000118,121,,,,1166.6300999999642,1167.1295,1166.123399999976,1166.6299999999999,1163.456800000012,1166.1233000000118,1167.1295999999643,1167.6295,1167.6295,1169.3725999999642,1396,1169.3725999999642,2,1169.372699999988,3,18,108,24,1,1.6,0.3,Time
,,919598,001,男,20,2025-06-02_16h37.39.946,Serial_Dependence_U,2023.2.3,Win32,142.85714285714286,,,,,,1169.373,130,3,1169.3730999999643,130,,,,1172.719699999988,1173.2188999999762,1172.212699999988,1172.7195999999642,1170.3793000000119,1172.212699999988,1173.2188999999762,1173.7188999999762,1173.719,1174.9411999999882,763,1174.941300000012,3,1174.9415,3,19,109,5,1,0.8,0.7,Time
,,919598,001,男,20,2025-06-02_16h37.39.946,Serial_Dependence_U,2023.2.3,Win32,142.85714285714286,,,,,,1174.9415999999642,291,3,1174.9418000000119,291,,,,1178.892199999988,1179.3915999999642,1178.385300000012,1178.8920999999643,1175.9483000000118,1178.3851999999881,1179.3915999999642,1179.8915999999642,1179.891699999988,1181.6415999999642,1353,1181.6415999999642,3,1181.641800000012,3,20,110,18,1,1.4,0.7,Time
,,919598,001,男,20,2025-06-02_16h37.39.946,Serial_Dependence_U,2023.2.3,Win32,142.85714285714286,,,,,,1181.642,240,3,1181.6420999999643,240,,,,1185.786699999988,1186.2865,1185.280199999988,1185.7865999999642,1182.6485999999643,1185.2800999999642,1186.2865,1186.786399999976,1186.786399999976,1188.7515,1352,1188.7515,2,1188.7518000000118,3,21,111,29,1,1.6,0.7,Time
,,919598,001,男,20,2025-06-02_16h37.39.946,Serial_Dependence_U,2023.2.3,Win32,142.85714285714286,,,,,,1188.752,346,3,1188.7520999999642,346,,,,1192.526199999988,1193.026199999988,1192.020300000012,1192.526199999988,1189.7588999999762,1192.020199999988,1193.026199999988,1193.5263000000118,1193.526399999976,1195.1998999999762,1000,1195.2,2,1195.2001999999882,3,22,112,22,1,1.2,0.3,Time
,,919598,001,男,20,2025-06-02_16h37.39.946,Serial_Dependence_U,2023.2.3,Win32,142.85714285714286,,,,,,1195.200399999976,237,3,1195.2005,237,,,,1198.7758999999762,1199.2753000000118,1198.269,1198.7758999999762,1196.2065999999643,1198.2688999999762,1199.2753999999761,1199.7753999999761,1199.7753999999761,1201.532300000012,1152,1201.532300000012,4,1201.5325,3,23,113,11,1,1,0.3,Time
,,919598,001,男,20,2025-06-02_16h37.39.946,Serial_Dependence_U,2023.2.3,Win32,142.85714285714286,,,,,,1201.5326999999882,177,3,1201.5326999999882,177,,,,1205.678199999988,1206.176899999976,1205.1711999999882,1205.6780999999642,1202.5380999999643,1205.171,1206.176899999976,1206.676899999976,1206.676899999976,1208.7465999999642,1423,1208.7465999999642,2,1208.746800000012,3,24,114,19,1,1.6,0.7,Time
,,919598,001,男,20,2025-06-02_16h37.39.946,Serial_Dependence_U,2023.2.3,Win32,142.85714285714286,,,,,,1208.7468999999762,278,3,1208.747,278,,,,1212.2945,1212.7940999999641,1211.7878000000119,1212.2945,1209.7533999999762,1211.7878000000119,1212.794199999988,1213.294199999988,1213.2943000000118,1214.7458999999762,840,1214.746,2,1214.7460999999641,3,25,115,6,1,1,0.7,Time
,,919598,001,男,20,2025-06-02_16h37.39.946,Serial_Dependence_U,2023.2.3,Win32,142.85714285714286,,,,,,1214.746199999988,55,3,1214.7463999999761,55,,,,1218.6938000000118,1219.1888999999762,1218.189399999976,1218.6935999999641,1215.7523999999762,1218.189399999976,1219.189,1219.689,1219.689,1221.598899999976,1355,1221.599,3,1221.599199999988,3,26,116,8,1,1.4,0.7,Time
,,919598,001,男,20,2025-06-02_16h37.39.946,Serial_Dependence_U,2023.2.3,Win32,142.85714285714286,,,,,,1221.599300000012,116,3,1221.5993999999762,116,,,,1225.1745999999641,1225.674199999988,1224.667899999976,1225.1745999999641,1222.605699999988,1224.667800000012,1225.674199999988,1226.1738999999761,1226.1738999999761,1227.9523999999763,931,1227.9524999999999,2,1227.9525999999641,3,27,117,21,1,1,0.3,Time
,,919598,001,男,20,2025-06-02_16h37.39.946,Serial_Dependence_U,2023.2.3,Win32,142.85714285714286,,,,,,1227.952699999988,125,3,1227.9528000000118,125,,,,1232.0970999999643,1232.5968000000119,1231.590300000012,1232.0970999999643,1228.958699999988,1231.590300000012,1232.5968000000119,1233.096699999988,1233.096699999988,1235.305199999988,1590,1235.3053000000118,3,1235.305399999976,3,28,118,9,1,1.6,0.7,Time
,,919598,001,男,20,2025-06-02_16h37.39.946,Serial_Dependence_U,2023.2.3,Win32,142.85714285714286,,,,,,1235.3055999999642,45,3,1235.305699999988,45,,,,1239.0498000000118,1239.549199999988,1238.543,1239.049699999988,1236.311899999976,1238.543,1239.549300000012,1240.049300000012,1240.049300000012,1242.23,1305,1242.23,4,1242.2300999999643,3,29,119,7,1,1.2,0.7,Time
,,919598,001,男,20,2025-06-02_16h37.39.946,Serial_Dependence_U,2023.2.3,Win32,142.85714285714286,,,,,,1242.230300000012,81,4,1244.8406999999881,81,s,2.6014999999999873,,1248.4165,1248.9158000000118,1247.909699999988,1248.4163999999762,1245.847300000012,1247.9095999999643,1248.9158000000118,1249.416,1249.416,1250.943300000012,882,1250.943300000012,2,1250.9435,4,0,120,21,1,1,0.3,Time
,,919598,001,男,20,2025-06-02_16h37.39.946,Serial_Dependence_U,2023.2.3,Win32,142.85714285714286,,,,,,1250.9438000000118,247,4,1250.944699999988,247,,,,1254.8945999999642,1255.3938000000119,1254.3876999999882,1254.8945999999642,1251.9505999999642,1254.3875999999643,1255.3938000000119,1255.894,1255.894,1257.7069999999999,1203,1257.7069999999999,2,1257.707199999988,4,1,121,28,1,1.4,0.7,Time
,,919598,001,男,20,2025-06-02_16h37.39.946,Serial_Dependence_U,2023.2.3,Win32,142.85714285714286,,,,,,1257.7073999999761,359,4,1257.7075,359,,,,1261.0533999999761,1261.5530999999642,1260.546699999988,1261.0533000000119,1258.7135,1260.5465999999642,1261.553199999988,1262.052899999976,1262.052899999976,1263.365399999976,798,1263.365399999976,3,1263.3655999999642,4,2,122,5,1,0.8,0.7,Time
,,919598,001,男,20,2025-06-02_16h37.39.946,Serial_Dependence_U,2023.2.3,Win32,142.85714285714286,,,,,,1263.3658000000119,167,4,1263.3658999999761,167,,,,1266.712,1267.2118999999761,1266.2055,1266.7118999999761,1264.372199999988,1266.2055,1267.2118999999761,1267.711699999988,1267.711699999988,1268.9068000000118,758,1268.9068000000118,2,1268.907,4,3,123,15,1,0.8,0.7,Time
,,919598,001,男,20,2025-06-02_16h37.39.946,Serial_Dependence_U,2023.2.3,Win32,142.85714285714286,,,,,,1268.907199999988,284,4,1268.907300000012,284,,,,1272.280899999976,1272.780300000012,1271.7740999999642,1272.280899999976,1269.9130999999643,1271.774,1272.7803999999762,1273.280300000012,1273.2803999999762,1274.551,812,1274.5510999999642,3,1274.551300000012,4,4,124,10,1,0.8,0.3,Time
,,919598,001,男,20,2025-06-02_16h37.39.946,Serial_Dependence_U,2023.2.3,Win32,142.85714285714286,,,,,,1274.5515,14,4,1274.5515999999643,14,,,,1278.731300000012,1279.230699999988,1278.2243999999762,1278.7311999999881,1275.5580999999643,1278.2243999999762,1279.230699999988,1279.7308000000119,1279.7308000000119,1281.4250999999642,1340,1281.4250999999642,2,1281.425300000012,4,5,125,14,1,1.6,0.3,Time
,,919598,001,男,20,2025-06-02_16h37.39.946,Serial_Dependence_U,2023.2.3,Win32,142.85714285714286,,,,,,1281.4255999999643,284,4,1281.4255999999643,284,,,,1285.5635999999643,1286.0628999999763,1285.056800000012,1285.5635,1282.4250999999642,1285.056699999988,1286.0629999999999,1286.5630999999642,1286.5630999999642,1287.8890999999642,818,1287.889199999988,1,1287.8893999999761,4,6,126,29,1,1.6,0.7,Time
,,919598,001,男,20,2025-06-02_16h37.39.946,Serial_Dependence_U,2023.2.3,Win32,142.85714285714286,,,,,,1287.8895999999643,72,4,1287.8896999999881,72,,,,1291.6666999999882,1292.1665,1291.16,1291.6665999999643,1288.8963999999762,1291.1598999999762,1292.1665,1292.666300000012,1292.6663999999762,1294.4160999999642,1382,1294.416199999988,4,1294.4163999999762,4,7,127,22,1,1.2,0.3,Time
,,919598,001,男,20,2025-06-02_16h37.39.946,Serial_Dependence_U,2023.2.3,Win32,142.85714285714286,,,,,,1294.4165,190,4,1294.4165999999643,190,,,,1298.1585999999643,1298.6583999999762,1297.6521999999882,1298.1585,1295.416300000012,1297.6521999999882,1298.6583999999762,1299.1583000000119,1299.1583000000119,1300.3525999999642,694,1300.3525999999642,1,1300.3528999999762,4,8,128,27,1,1.2,0.7,Time
,,919598,001,男,20,2025-06-02_16h37.39.946,Serial_Dependence_U,2023.2.3,Win32,142.85714285714286,,,,,,1300.353,308,4,1300.353199999988,308,,,,1304.1025,1304.602,1303.595699999988,1304.1023999999761,1301.3595,1303.5955,1304.602,1305.1018999999762,1305.1018999999762,1306.442300000012,889,1306.442300000012,2,1306.442399999976,4,9,129,17,1,1.2,0.7,Time
,,919598,001,男,20,2025-06-02_16h37.39.946,Serial_Dependence_U,2023.2.3,Win32,142.85714285714286,,,,,,1306.442699999988,291,4,1306.4428000000119,291,,,,1309.809899999976,1310.309300000012,1309.303199999988,1309.8098000000118,1307.442300000012,1309.3030999999642,1310.309300000012,1310.809300000012,1310.809300000012,1311.8725,509,1311.8725,1,1311.872699999988,4,10,130,0,1,0.8,0.3,Time
,,919598,001,男,20,2025-06-02_16h37.39.946,Serial_Dependence_U,2023.2.3,Win32,142.85714285714286,,,,,,1311.8728999999762,36,4,1311.873,36,,,,1315.6213999999761,1316.1210999999641,1315.1145,1315.621199999988,1312.8786999999882,1315.114399999976,1316.121199999988,1316.6210999999641,1316.6210999999641,1318.086,951,1318.0860999999643,2,1318.0861999999881,4,11,131,7,1,1.2,0.7,Time
,,919598,001,男,20,2025-06-02_16h37.39.946,Serial_Dependence_U,2023.2.3,Win32,142.85714285714286,,,,,,1318.086399999976,185,4,1318.0865,185,,,,1322.266399999976,1322.765800000012,1321.7595999999642,1322.266399999976,1319.093199999988,1321.7595,1322.765800000012,1323.265800000012,1323.2658999999762,1325.0990999999642,1423,1325.099199999988,2,1325.099300000012,4,12,132,4,1,1.6,0.3,Time
,,919598,001,男,20,2025-06-02_16h37.39.946,Serial_Dependence_U,2023.2.3,Win32,142.85714285714286,,,,,,1325.0995,289,4,1325.0995999999643,289,,,,1329.272300000012,1329.7718000000118,1328.7655,1329.272199999988,1326.0990999999642,1328.7653999999761,1329.771899999976,1330.271699999988,1330.271699999988,1332.674,1416,1332.674,2,1332.674199999988,4,13,133,24,1,1.6,0.3,Time
,,919598,001,男,20,2025-06-02_16h37.39.946,Serial_Dependence_U,2023.2.3,Win32,142.85714285714286,,,,,,1332.6745,265,4,1332.6745,265,,,,1336.6528999999762,1337.1525,1336.1463999999762,1336.6528999999762,1333.681300000012,1336.146300000012,1337.1525,1337.6525,1337.6525999999642,1339.4578999999762,1325,1339.458,2,1339.4583000000118,4,14,134,23,1,1.4,0.3,Time
,,919598,001,男,20,2025-06-02_16h37.39.946,Serial_Dependence_U,2023.2.3,Win32,142.85714285714286,,,,,,1339.458399999976,7,4,1339.4585,7,,,,1343.4365999999643,1343.936199999988,1342.9298999999762,1343.4365,1340.465,1342.9298999999762,1343.936199999988,1344.436199999988,1344.436199999988,1346.0543000000118,1166,1346.054399999976,2,1346.0545999999642,4,15,135,3,1,1.4,0.3,Time
,,919598,001,男,20,2025-06-02_16h37.39.946,Serial_Dependence_U,2023.2.3,Win32,142.85714285714286,,,,,,1346.054800000012,177,4,1346.0548999999762,177,,,,1349.6025,1350.102199999988,1349.0958000000119,1349.6025,1347.061199999988,1349.095699999988,1350.102199999988,1350.6018999999762,1350.6018999999762,1352.532300000012,937,1352.5323999999762,2,1352.5325,4,16,136,16,1,1,0.7,Time
,,919598,001,男,20,2025-06-02_16h37.39.946,Serial_Dependence_U,2023.2.3,Win32,142.85714285714286,,,,,,1352.5326999999882,186,4,1352.5326999999882,186,,,,1356.483199999988,1356.982899999976,1355.976699999988,1356.483199999988,1353.5395,1355.9765999999643,1356.983,1357.482699999988,1357.482699999988,1359.163300000012,1118,1359.163300000012,2,1359.1634999999999,4,17,137,18,1,1.4,0.7,Time
,,919598,001,男,20,2025-06-02_16h37.39.946,Serial_Dependence_U,2023.2.3,Win32,142.85714285714286,,,,,,1359.1635999999642,173,4,1359.1638000000119,173,,,,1362.940800000012,1363.440399999976,1362.4335999999641,1362.940699999988,1360.1703000000118,1362.4335999999641,1363.440399999976,1363.9403000000118,1363.9403000000118,1365.8010999999642,1354,1365.801300000012,4,1365.8013999999762,4,18,138,12,1,1.2,0.3,Time
,,919598,001,男,20,2025-06-02_16h37.39.946,Serial_Dependence_U,2023.2.3,Win32,142.85714285714286,,,,,,1365.8015999999643,358,4,1365.8016999999882,358,,,,1369.9466999999881,1370.446199999988,1369.4398999999762,1369.9465999999643,1366.8081999999881,1369.439800000012,1370.446199999988,1370.946,1370.946,1373.008399999976,1451,1373.0085,2,1373.0085999999642,4,19,139,19,1,1.6,0.7,Time
,,919598,001,男,20,2025-06-02_16h37.39.946,Serial_Dependence_U,2023.2.3,Win32,142.85714285714286,,,,,,1373.008800000012,3,4,1373.008800000012,3,,,,1377.1470999999642,1377.6463999999762,1376.640199999988,1377.1470999999642,1374.0085999999642,1376.6400999999641,1377.6463999999762,1378.146599999964,1378.146699999988,1380.1885999999643,1425,1380.1885999999643,2,1380.188800000012,4,20,140,9,1,1.6,0.7,Time
,,919598,001,男,20,2025-06-02_16h37.39.946,Serial_Dependence_U,2023.2.3,Win32,142.85714285714286,,,,,,1380.1888999999762,92,4,1380.189,92,,,,1383.7360999999642,1384.2358999999763,1383.2295,1383.7360999999642,1381.194899999976,1383.229399999976,1384.2358999999763,1384.735800000012,1384.735800000012,1386.0343000000119,910,1386.0343000000119,2,1386.0345,4,21,141,6,1,1,0.7,Time
,,919598,001,男,20,2025-06-02_16h37.39.946,Serial_Dependence_U,2023.2.3,Win32,142.85714285714286,,,,,,1386.034699999988,289,4,1386.034800000012,289,,,,1389.374399999976,1389.873800000012,1388.867599999964,1389.3741999999882,1387.0343000000119,1388.8675,1389.873800000012,1390.373800000012,1390.373800000012,1391.686199999988,749,1391.686199999988,2,1391.6865,4,22,142,25,1,0.8,0.7,Time
,,919598,001,男,20,2025-06-02_16h37.39.946,Serial_Dependence_U,2023.2.3,Win32,142.85714285714286,,,,,,1391.6866999999882,36,4,1391.6866999999882,36,,,,1395.2323999999762,1395.731699999988,1394.7275999999642,1395.2323999999762,1392.693300000012,1394.7275999999642,1395.731699999988,1396.2315999999641,1396.2315999999641,1397.447199999988,812,1397.4473000000119,2,1397.4473999999761,4,23,143,26,1,1,0.7,Time
,,919598,001,男,20,2025-06-02_16h37.39.946,Serial_Dependence_U,2023.2.3,Win32,142.85714285714286,,,,,,1397.4475999999643,224,4,1397.4475999999643,224,,,,1401.226800000012,1401.7260999999642,1400.72,1401.226699999988,1398.4533999999762,1400.72,1401.7260999999642,1402.2260999999642,1402.226199999988,1403.927199999988,1139,1403.927199999988,2,1403.9275,4,24,144,2,1,1.2,0.3,Time
,,919598,001,男,20,2025-06-02_16h37.39.946,Serial_Dependence_U,2023.2.3,Win32,142.85714285714286,,,,,,1403.9275999999643,302,4,1403.9276999999881,302,,,,1407.906199999988,1408.405699999988,1407.3995,1407.9060999999642,1404.9345,1407.3993000000119,1408.405699999988,1408.9058000000118,1408.9058000000118,1410.6068000000118,1340,1410.6068999999761,3,1410.607,4,25,145,13,1,1.4,0.3,Time
,,919598,001,男,20,2025-06-02_16h37.39.946,Serial_Dependence_U,2023.2.3,Win32,142.85714285714286,,,,,,1410.607199999988,101,4,1410.6073999999762,101,,,,1414.1830999999643,1414.6825999999642,1413.676300000012,1414.183,1411.614,1413.676199999988,1414.6825999999642,1415.1825,1415.1825999999642,1416.946300000012,1188,1416.946300000012,4,1416.9465,4,26,146,11,1,1,0.3,Time
,,919598,001,男,20,2025-06-02_16h37.39.946,Serial_Dependence_U,2023.2.3,Win32,142.85714285714286,,,,,,1416.9466999999881,56,4,1416.946800000012,56,,,,1420.3210999999642,1420.8203999999762,1419.814199999988,1420.3210999999642,1417.953300000012,1419.814,1420.8205,1421.3205,1421.3205,1422.841199999988,937,1422.8413999999761,4,1422.8415,4,27,147,20,1,0.8,0.3,Time
,,919598,001,男,20,2025-06-02_16h37.39.946,Serial_Dependence_U,2023.2.3,Win32,142.85714285714286,,,,,,1422.8416999999881,359,4,1422.841800000012,359,,,,1426.4173999999762,1426.916800000012,1425.9105,1426.417300000012,1423.8478000000118,1425.910399999976,1426.916899999976,1427.4166999999882,1427.4166999999882,1429.1458000000118,1160,1429.1458000000118,4,1429.146,4,28,148,1,1,1,0.3,Time
,,919598,001,男,20,2025-06-02_16h37.39.946,Serial_Dependence_U,2023.2.3,Win32,142.85714285714286,,,,,,1429.146199999988,236,4,1429.146300000012,236,,,,1433.0968000000119,1433.5964999999999,1432.5900999999642,1433.0968000000119,1430.1528999999762,1432.59,1433.5964999999999,1434.0964999999999,1434.0964999999999,1435.998800000012,1278,1435.998800000012,2,1435.999,4,29,149,8,1,1.4,0.7,Time
,,919598,001,男,20,2025-06-02_16h37.39.946,Serial_Dependence_U,2023.2.3,Win32,142.85714285714286,,,,,,1435.9991999999882,216,5,1437.685899999976,216,s,1.676699999988159,,1441.4635999999641,1441.963300000012,1440.956800000012,1441.4635999999641,1438.693300000012,1440.9566999999881,1441.963300000012,1442.463,1442.4630999999642,1444.2405999999642,1173,1444.2405999999642,3,1444.2408000000119,5,0,150,2,1,1.2,0.3,Time
,,919598,001,男,20,2025-06-02_16h37.39.946,Serial_Dependence_U,2023.2.3,Win32,142.85714285714286,,,,,,1444.241,337,5,1444.242,337,,,,1447.9901999999881,1448.49,1447.4836999999882,1447.9900999999643,1445.247800000012,1447.4835999999643,1448.49,1448.99,1448.99,1451.177800000012,1167,1451.177899999976,3,1451.1779999999999,5,1,151,7,1,1.2,0.7,Time
,,919598,001,男,20,2025-06-02_16h37.39.946,Serial_Dependence_U,2023.2.3,Win32,142.85714285714286,,,,,,1451.178199999988,13,5,1451.1783999999761,13,,,,1455.1283999999762,1455.627699999988,1454.621199999988,1455.128300000012,1452.1843999999762,1454.621199999988,1455.627699999988,1456.127699999988,1456.127699999988,1458.0165,1194,1458.0165,2,1458.016800000012,5,2,152,8,1,1.4,0.7,Time
,,919598,001,男,20,2025-06-02_16h37.39.946,Serial_Dependence_U,2023.2.3,Win32,142.85714285714286,,,,,,1458.017,12,5,1458.0170999999643,12,,,,1461.391199999988,1461.8905999999643,1460.884399999976,1461.3910999999641,1459.0235,1460.884399999976,1461.8905999999643,1462.3903999999761,1462.3903999999761,1463.7658999999762,701,1463.7658999999762,2,1463.7660999999641,5,3,153,20,1,0.8,0.3,Time
,,919598,001,男,20,2025-06-02_16h37.39.946,Serial_Dependence_U,2023.2.3,Win32,142.85714285714286,,,,,,1463.7663000000118,232,5,1463.766399999976,232,,,,1467.3138999999762,1467.8135,1466.807300000012,1467.3138999999762,1464.7723999999762,1466.8071999999881,1467.8135999999643,1468.3135,1468.3135,1469.9735,1126,1469.9735999999643,4,1469.9738000000118,5,4,154,16,1,1,0.7,Time
,,919598,001,男,20,2025-06-02_16h37.39.946,Serial_Dependence_U,2023.2.3,Win32,142.85714285714286,,,,,,1469.973899999976,276,5,1469.974,276,,,,1473.549,1474.048699999988,1473.041899999976,1473.549,1470.9801999999881,1473.041899999976,1474.048699999988,1474.548699999988,1474.548699999988,1476.1393999999761,1091,1476.1393999999761,4,1476.1396999999881,5,5,155,1,1,1,0.3,Time
,,919598,001,男,20,2025-06-02_16h37.39.946,Serial_Dependence_U,2023.2.3,Win32,142.85714285714286,,,,,,1476.139800000012,127,5,1476.1398999999763,127,,,,1480.0895999999643,1480.589,1479.5825999999643,1480.0895999999643,1477.1455,1479.5825999999643,1480.589,1481.088899999976,1481.089,1483.165300000012,1423,1483.1653999999762,3,1483.1655999999641,5,6,156,28,1,1.4,0.7,Time
,,919598,001,男,20,2025-06-02_16h37.39.946,Serial_Dependence_U,2023.2.3,Win32,142.85714285714286,,,,,,1483.1658000000118,11,5,1483.165899999976,11,,,,1486.713699999988,1487.213300000012,1486.2069999999999,1486.713699999988,1484.172699999988,1486.2069999999999,1487.2133999999762,1487.7130999999642,1487.7130999999642,1489.213699999988,876,1489.213699999988,2,1489.213899999976,5,7,157,26,1,1,0.7,Time
,,919598,001,男,20,2025-06-02_16h37.39.946,Serial_Dependence_U,2023.2.3,Win32,142.85714285714286,,,,,,1489.2140999999642,219,5,1489.2140999999642,219,,,,1492.990399999976,1493.4901999999881,1492.4836999999882,1492.990399999976,1490.220300000012,1492.4836999999882,1493.490300000012,1493.9900999999643,1493.9900999999643,1495.885699999988,1306,1495.8858999999761,4,1495.886,5,8,158,22,1,1.2,0.3,Time
,,919598,001,男,20,2025-06-02_16h37.39.946,Serial_Dependence_U,2023.2.3,Win32,142.85714285714286,,,,,,1495.886199999988,25,5,1495.886300000012,25,,,,1500.0588000000118,1500.5585,1499.5520999999642,1500.0588000000118,1496.8858000000118,1499.5520999999642,1500.5585,1501.0585,1501.0585,1502.7600999999643,1327,1502.7600999999643,2,1502.7601999999881,5,9,159,14,1,1.6,0.3,Time
,,919598,001,男,20,2025-06-02_16h37.39.946,Serial_Dependence_U,2023.2.3,Win32,142.85714285714286,,,,,,1502.7603999999762,336,5,1502.7605,336,,,,1506.1065,1506.606,1505.599899999976,1506.1065,1503.767,1505.599899999976,1506.606,1507.1060999999643,1507.1060999999643,1508.647800000012,834,1508.647899999976,3,1508.648,5,10,160,25,1,0.8,0.7,Time
,,919598,001,男,20,2025-06-02_16h37.39.946,Serial_Dependence_U,2023.2.3,Win32,142.85714285714286,,,,,,1508.648199999988,137,5,1508.648300000012,137,,,,1512.595399999976,1513.091199999988,1512.092,1512.595399999976,1509.6548000000118,1512.0918999999762,1513.0913000000119,1513.5913000000119,1513.5913000000119,1515.3618999999762,1250,1515.362,2,1515.362199999988,5,11,161,18,1,1.4,0.7,Time
,,919598,001,男,20,2025-06-02_16h37.39.946,Serial_Dependence_U,2023.2.3,Win32,142.85714285714286,,,,,,1515.362399999976,349,5,1515.3625,349,,,,1518.7365999999643,1519.236199999988,1518.23,1518.7365,1516.368899999976,1518.2298999999762,1519.236199999988,1519.736199999988,1519.736199999988,1521.0275999999642,805,1521.027699999988,3,1521.0278999999762,5,12,162,10,1,0.8,0.3,Time
,,919598,001,男,20,2025-06-02_16h37.39.946,Serial_Dependence_U,2023.2.3,Win32,142.85714285714286,,,,,,1521.0280999999643,2,5,1521.0280999999643,2,,,,1525.0065999999642,1525.5060999999641,1524.4998000000119,1525.0065999999642,1522.034800000012,1524.4998000000119,1525.5060999999641,1526.005800000012,1526.005800000012,1527.714199999988,1111,1527.714199999988,2,1527.7143999999762,5,13,163,13,1,1.4,0.3,Time
,,919598,001,男,20,2025-06-02_16h37.39.946,Serial_Dependence_U,2023.2.3,Win32,142.85714285714286,,,,,,1527.7145999999643,4,5,1527.7146999999882,4,,,,1531.089,1531.588300000012,1530.5823000000119,1531.088899999976,1528.721300000012,1530.582199999988,1531.588300000012,1532.088199999988,1532.088300000012,1533.1370999999642,611,1533.1370999999642,2,1533.1373999999762,5,14,164,0,1,0.8,0.3,Time
,,919598,001,男,20,2025-06-02_16h37.39.946,Serial_Dependence_U,2023.2.3,Win32,142.85714285714286,,,,,,1533.1375999999643,346,5,1533.1376999999882,346,,,,1537.109,1537.608199999988,1536.602,1537.108899999976,1534.137199999988,1536.6018999999762,1537.608300000012,1538.108300000012,1538.108300000012,1540.0316999999882,1451,1540.0316999999882,3,1540.0320999999642,5,15,165,23,1,1.4,0.3,Time
,,919598,001,男,20,2025-06-02_16h37.39.946,Serial_Dependence_U,2023.2.3,Win32,142.85714285714286,,,,,,1540.032300000012,198,5,1540.0323999999762,198,,,,1544.1773999999762,1544.6766999999882,1543.6703000000118,1544.1773000000119,1541.039,1543.6703000000118,1544.676800000012,1545.176899999976,1545.176899999976,1546.739,1188,1546.739,2,1546.7391999999882,5,16,166,9,1,1.6,0.7,Time
,,919598,001,男,20,2025-06-02_16h37.39.946,Serial_Dependence_U,2023.2.3,Win32,142.85714285714286,,,,,,1546.739399999976,248,5,1546.7395,248,,,,1550.3153000000118,1550.815,1549.8083999999762,1550.3153000000118,1547.7463000000118,1549.808300000012,1550.815,1551.314800000012,1551.3148999999762,1552.863399999976,1201,1552.863399999976,4,1552.8635,5,17,167,11,1,1,0.3,Time
,,919598,001,男,20,2025-06-02_16h37.39.946,Serial_Dependence_U,2023.2.3,Win32,142.85714285714286,,,,,,1552.863699999988,233,5,1552.863800000012,233,,,,1556.612699999988,1557.112399999976,1556.106300000012,1556.6125,1553.8700999999642,1556.1060999999643,1557.112399999976,1557.612199999988,1557.612199999988,1559.306699999988,1249,1559.306699999988,3,1559.3068999999762,5,18,168,17,1,1.2,0.7,Time
,,919598,001,男,20,2025-06-02_16h37.39.946,Serial_Dependence_U,2023.2.3,Win32,142.85714285714286,,,,,,1559.3070999999643,196,5,1559.3071999999881,196,,,,1562.653699999988,1563.1530999999643,1562.146899999976,1562.653699999988,1560.313800000012,1562.146699999988,1563.1530999999643,1563.653,1563.653,1564.646300000012,507,1564.6463999999762,1,1564.6465,5,19,169,5,1,0.8,0.7,Time
,,919598,001,男,20,2025-06-02_16h37.39.946,Serial_Dependence_U,2023.2.3,Win32,142.85714285714286,,,,,,1564.6468000000118,40,5,1564.6468000000118,40,,,,1568.7915,1569.291199999988,1568.285,1568.7913999999762,1565.6530999999643,1568.285,1569.291199999988,1569.7910999999642,1569.7910999999642,1571.7213999999763,1465,1571.7213999999763,2,1571.721699999988,5,20,170,19,1,1.6,0.7,Time
,,919598,001,男,20,2025-06-02_16h37.39.946,Serial_Dependence_U,2023.2.3,Win32,142.85714285714286,,,,,,1571.7218999999761,187,5,1571.7218999999761,187,,,,1575.0685,1575.568199999988,1574.5615999999643,1575.0685,1572.7285,1574.5615999999643,1575.568199999988,1576.0675999999642,1576.0675999999642,1577.4918000000118,911,1577.4918000000118,4,1577.491899999976,5,21,171,15,1,0.8,0.7,Time
,,919598,001,男,20,2025-06-02_16h37.39.946,Serial_Dependence_U,2023.2.3,Win32,142.85714285714286,,,,,,1577.4920999999642,291,5,1577.492300000012,291,,,,1581.04,1581.5390999999643,1580.5330999999642,1581.0398999999761,1578.498399999976,1580.5330999999642,1581.5390999999643,1582.0395,1582.0395,1583.775199999988,1153,1583.775199999988,4,1583.7753999999761,5,22,172,6,1,1,0.7,Time
,,919598,001,男,20,2025-06-02_16h37.39.946,Serial_Dependence_U,2023.2.3,Win32,142.85714285714286,,,,,,1583.7755999999642,159,5,1583.775699999988,159,,,,1587.9483999999761,1588.4475999999643,1587.4418000000119,1587.9483999999761,1584.7755,1587.441699999988,1588.4476999999881,1588.947800000012,1588.947800000012,1590.760300000012,1256,1590.760300000012,2,1590.7605999999641,5,23,173,24,1,1.6,0.3,Time
,,919598,001,男,20,2025-06-02_16h37.39.946,Serial_Dependence_U,2023.2.3,Win32,142.85714285714286,,,,,,1590.7608000000118,139,5,1590.7608999999761,139,,,,1594.336300000012,1594.8360999999643,1593.8295999999643,1594.3361999999881,1591.7673000000118,1593.8295999999643,1594.8360999999643,1595.336300000012,1595.336300000012,1597.1203999999761,1159,1597.1205,4,1597.1205999999643,5,24,174,21,1,1,0.3,Time
,,919598,001,男,20,2025-06-02_16h37.39.946,Serial_Dependence_U,2023.2.3,Win32,142.85714285714286,,,,,,1597.120800000012,315,5,1597.1208999999762,315,,,,1600.8908999999762,1601.3903999999761,1600.3840999999643,1600.890800000012,1598.1206999999881,1600.3840999999643,1601.3905,1601.8903000000118,1601.8903999999761,1603.258399999976,1007,1603.258399999976,2,1603.258699999988,5,25,175,12,1,1.2,0.3,Time
,,919598,001,男,20,2025-06-02_16h37.39.946,Serial_Dependence_U,2023.2.3,Win32,142.85714285714286,,,,,,1603.258800000012,248,5,1603.259,248,,,,1607.4038999999761,1607.903300000012,1606.8970999999642,1607.4038999999761,1604.2653999999761,1606.897,1607.903300000012,1608.403300000012,1608.403399999976,1610.250300000012,1410,1610.250300000012,2,1610.2505999999642,5,26,176,29,1,1.6,0.7,Time
,,919598,001,男,20,2025-06-02_16h37.39.946,Serial_Dependence_U,2023.2.3,Win32,142.85714285714286,,,,,,1610.2508000000118,33,5,1610.2508000000118,33,,,,1614.2255999999643,1614.7218999999761,1613.722300000012,1614.2255999999643,1611.2575,1613.722199999988,1614.7218999999761,1615.221699999988,1615.221699999988,1616.9228000000119,1132,1616.9228000000119,2,1616.9231999999881,5,27,177,3,1,1.4,0.3,Time
,,919598,001,男,20,2025-06-02_16h37.39.946,Serial_Dependence_U,2023.2.3,Win32,142.85714285714286,,,,,,1616.9233999999763,177,5,1616.9233999999763,177,,,,1621.103,1621.602699999988,1620.5961999999881,1621.103,1617.93,1620.596,1621.602699999988,1622.102699999988,1622.102699999988,1624.0398999999761,1480,1624.04,2,1624.040199999988,5,28,178,4,1,1.6,0.3,Time
,,919598,001,男,20,2025-06-02_16h37.39.946,Serial_Dependence_U,2023.2.3,Win32,142.85714285714286,,,,,,1624.0403999999762,310,5,1624.0405,310,,,,1627.7825999999643,1628.282199999988,1627.2758999999762,1627.7825,1625.0400999999642,1627.2758999999762,1628.282199999988,1628.782300000012,1628.782300000012,1630.5458999999762,1319,1630.546,4,1630.5461999999882,5,29,179,27,1,1.2,0.7,Time
,,919598,001,男,20,2025-06-02_16h37.39.946,Serial_Dependence_U,2023.2.3,Win32,142.85714285714286,,,,,,1630.546399999976,216,6,1815.460800000012,216,s,184.90489999997635,,1819.209699999988,1819.71,1818.703300000012,1819.209699999988,1816.4666999999881,1818.703300000012,1819.71,1820.2088999999762,1820.2088999999762,1822.2025999999641,1325,1822.202699999988,4,1822.2030999999643,6,0,180,17,1,1.2,0.7,Time
,,919598,001,男,20,2025-06-02_16h37.39.946,Serial_Dependence_U,2023.2.3,Win32,142.85714285714286,,,,,,1822.204300000012,278,6,1822.2069999999999,278,,,,1826.1531999999881,1826.6525999999642,1825.647,1826.1530999999643,1823.2093000000118,1825.647,1826.6525999999642,1827.1528999999762,1827.1528999999762,1828.819699999988,1118,1828.819699999988,2,1828.819899999976,6,1,181,18,1,1.4,0.7,Time
,,919598,001,男,20,2025-06-02_16h37.39.946,Serial_Dependence_U,2023.2.3,Win32,142.85714285714286,,,,,,1828.820199999988,11,6,1828.820300000012,11,,,,1832.7975,1833.2978000000119,1832.291899999976,1832.797300000012,1829.8261999999881,1832.2916999999882,1833.2978000000119,1833.797699999988,1833.797699999988,1835.798,1299,1835.798,2,1835.7981999999881,6,2,182,13,1,1.4,0.3,Time
,,919598,001,男,20,2025-06-02_16h37.39.946,Serial_Dependence_U,2023.2.3,Win32,142.85714285714286,,,,,,1835.7983999999763,58,6,1835.7985999999642,58,,,,1839.171399999976,1839.6718999999762,1838.665899999976,1839.1713000000118,1836.8045999999642,1838.6658000000118,1839.6718999999762,1840.171699999988,1840.171699999988,1841.5751999999882,750,1841.5751999999882,2,1841.575399999976,6,3,183,0,1,0.8,0.3,Time
,,919598,001,男,20,2025-06-02_16h37.39.946,Serial_Dependence_U,2023.2.3,Win32,142.85714285714286,,,,,,1841.5755999999642,26,6,1841.575699999988,26,,,,1844.921399999976,1845.420800000012,1844.4145,1844.9213000000118,1842.580800000012,1844.4145,1845.420800000012,1845.920800000012,1845.920800000012,1847.2965,845,1847.2965,4,1847.296699999988,6,4,184,15,1,0.8,0.7,Time
,,919598,001,男,20,2025-06-02_16h37.39.946,Serial_Dependence_U,2023.2.3,Win32,142.85714285714286,,,,,,1847.297,298,6,1847.297,298,,,,1850.670699999988,1851.1700999999641,1850.163699999988,1850.6705999999642,1848.301300000012,1850.1635999999642,1851.1700999999641,1851.6695999999642,1851.669699999988,1853.0248999999762,820,1853.0248999999762,3,1853.025,6,5,185,20,1,0.8,0.3,Time
,,919598,001,男,20,2025-06-02_16h37.39.946,Serial_Dependence_U,2023.2.3,Win32,142.85714285714286,,,,,,1853.0253000000118,3,6,1853.0253999999761,3,,,,1856.600199999988,1857.0995,1856.0935,1856.600199999988,1854.031199999988,1856.093399999976,1857.0995,1857.5950999999643,1857.5951999999882,1859.296699999988,814,1859.296800000012,2,1859.297,6,6,186,21,1,1,0.3,Time
,,919598,001,男,20,2025-06-02_16h37.39.946,Serial_Dependence_U,2023.2.3,Win32,142.85714285714286,,,,,,1859.2971999999882,315,6,1859.297300000012,315,,,,1862.643,1863.1425,1862.136300000012,1862.6428999999762,1860.3033000000119,1862.136199999988,1863.1425,1863.6425999999642,1863.642699999988,1865.2465999999642,833,1865.2465999999642,3,1865.246800000012,6,7,187,25,1,0.8,0.7,Time
,,919598,001,男,20,2025-06-02_16h37.39.946,Serial_Dependence_U,2023.2.3,Win32,142.85714285714286,,,,,,1865.2470999999641,275,6,1865.247199999988,275,,,,1868.6213999999761,1869.121,1868.1145,1868.6213999999761,1866.2536999999882,1868.1145,1869.1210999999641,1869.6205999999643,1869.6205999999643,1870.5303999999762,472,1870.5303999999762,1,1870.530699999988,6,8,188,10,1,0.8,0.3,Time
,,919598,001,男,20,2025-06-02_16h37.39.946,Serial_Dependence_U,2023.2.3,Win32,142.85714285714286,,,,,,1870.531,277,6,1870.5310999999642,277,,,,1874.3080999999643,1874.8075999999642,1873.801300000012,1874.308,1871.5375999999642,1873.801199999988,1874.8075999999642,1875.3075,1875.3075999999642,1877.098899999976,1229,1877.098899999976,3,1877.099,6,9,189,2,1,1.2,0.3,Time
,,919598,001,男,20,2025-06-02_16h37.39.946,Serial_Dependence_U,2023.2.3,Win32,142.85714285714286,,,,,,1877.099300000012,286,6,1877.0995,286,,,,1881.078,1881.5773999999763,1880.570800000012,1881.0778999999761,1878.1058000000119,1880.570800000012,1881.5773999999763,1882.077300000012,1882.077300000012,1883.9453999999762,1348,1883.9453999999762,3,1883.9455999999643,6,10,190,3,1,1.4,0.3,Time
,,919598,001,男,20,2025-06-02_16h37.39.946,Serial_Dependence_U,2023.2.3,Win32,142.85714285714286,,,,,,1883.945800000012,56,6,1883.945899999976,56,,,,1887.521,1888.0208000000118,1887.0143000000119,1887.521,1884.9520999999643,1887.0143000000119,1888.0208000000118,1888.5205,1888.5205999999641,1889.992699999988,979,1889.9928000000118,3,1889.992899999976,6,11,191,11,1,1,0.3,Time
,,919598,001,男,20,2025-06-02_16h37.39.946,Serial_Dependence_U,2023.2.3,Win32,142.85714285714286,,,,,,1889.9930999999642,235,6,1889.993199999988,235,,,,1893.7423999999762,1894.241899999976,1893.235800000012,1893.7423999999762,1890.999699999988,1893.235800000012,1894.241899999976,1894.742,1894.742,1896.4293000000118,1340,1896.4295,4,1896.429800000012,6,12,192,7,1,1.2,0.7,Time
,,919598,001,男,20,2025-06-02_16h37.39.946,Serial_Dependence_U,2023.2.3,Win32,142.85714285714286,,,,,,1896.4298999999762,204,6,1896.43,204,,,,1900.0078999999762,1900.5049999999999,1899.4985999999642,1900.007800000012,1897.4363999999762,1899.4985,1900.5049999999999,1901.0049999999999,1901.0050999999642,1902.435199999988,944,1902.4353999999762,2,1902.4355,6,13,193,1,1,1,0.3,Time
,,919598,001,男,20,2025-06-02_16h37.39.946,Serial_Dependence_U,2023.2.3,Win32,142.85714285714286,,,,,,1902.4355999999643,191,6,1902.4358000000118,191,,,,1906.212699999988,1906.7121999999881,1905.7060999999642,1906.2125999999641,1903.442300000012,1905.706,1906.7121999999881,1907.2120999999643,1907.2121999999881,1908.9065,1167,1908.9065999999643,3,1908.9068000000118,6,14,194,12,1,1.2,0.3,Time
,,919598,001,男,20,2025-06-02_16h37.39.946,Serial_Dependence_U,2023.2.3,Win32,142.85714285714286,,,,,,1908.906899999976,133,6,1908.9070999999642,133,,,,1912.4548000000118,1912.9545,1911.948199999988,1912.454699999988,1909.9138000000119,1911.948,1912.9545,1913.454699999988,1913.454699999988,1915.1703000000118,1196,1915.1703000000118,4,1915.1703000000118,6,15,195,16,1,1,0.7,Time
,,919598,001,男,20,2025-06-02_16h37.39.946,Serial_Dependence_U,2023.2.3,Win32,142.85714285714286,,,,,,1915.1705,3,6,1915.170699999988,3,,,,1919.3496999999882,1919.8490999999642,1918.843,1919.3495999999643,1916.1765,1918.8428999999762,1919.8490999999642,1920.349300000012,1920.349300000012,1922.0851999999882,1367,1922.0851999999882,2,1922.085399999976,6,16,196,14,1,1.6,0.3,Time
,,919598,001,男,20,2025-06-02_16h37.39.946,Serial_Dependence_U,2023.2.3,Win32,142.85714285714286,,,,,,1922.0855999999642,59,6,1922.0855999999642,59,,,,1926.2305999999642,1926.730300000012,1925.724,1926.2305999999642,1923.092,1925.724,1926.730300000012,1927.23,1927.23,1929.013,1271,1929.013,2,1929.013199999988,6,17,197,9,1,1.6,0.7,Time
,,919598,001,男,20,2025-06-02_16h37.39.946,Serial_Dependence_U,2023.2.3,Win32,142.85714285714286,,,,,,1929.013300000012,59,6,1929.0133999999762,59,,,,1932.991300000012,1933.491,1932.4843999999762,1932.991199999988,1930.019399999976,1932.484300000012,1933.491,1933.9908999999761,1933.991,1935.7758999999762,1250,1935.7758999999762,2,1935.776,6,18,198,23,1,1.4,0.3,Time
,,919598,001,男,20,2025-06-02_16h37.39.946,Serial_Dependence_U,2023.2.3,Win32,142.85714285714286,,,,,,1935.776199999988,326,6,1935.776399999976,326,,,,1939.323800000012,1939.8233999999761,1938.8170999999643,1939.323800000012,1936.782199999988,1938.817,1939.8233999999761,1940.323,1940.3230999999641,1942.1915,1180,1942.1915,4,1942.1918000000119,6,19,199,6,1,1,0.7,Time
,,919598,001,男,20,2025-06-02_16h37.39.946,Serial_Dependence_U,2023.2.3,Win32,142.85714285714286,,,,,,1942.1918999999762,229,6,1942.192,229,,,,1946.336300000012,1946.8315999999643,1945.829899999976,1946.3361999999881,1943.1980999999641,1945.8298000000118,1946.8315999999643,1947.3315999999643,1947.3316999999881,1949.247699999988,1361,1949.247699999988,2,1949.248,6,20,200,19,1,1.6,0.7,Time
,,919598,001,男,20,2025-06-02_16h37.39.946,Serial_Dependence_U,2023.2.3,Win32,142.85714285714286,,,,,,1949.2481999999882,240,6,1949.2483000000118,240,,,,1953.198800000012,1953.698199999988,1952.692,1953.198699999988,1950.2546999999881,1952.692,1953.698199999988,1954.1983999999761,1954.1983999999761,1956.100800000012,1278,1956.100800000012,2,1956.1009999999999,6,21,201,8,1,1.4,0.7,Time
,,919598,001,男,20,2025-06-02_16h37.39.946,Serial_Dependence_U,2023.2.3,Win32,142.85714285714286,,,,,,1956.101199999988,101,6,1956.1013000000119,101,,,,1959.850800000012,1960.350199999988,1959.3438999999762,1959.8506999999881,1957.1078000000118,1959.343800000012,1960.350199999988,1960.85,1960.85,1962.613800000012,1159,1962.613800000012,3,1962.6141999999882,6,22,202,27,1,1.2,0.7,Time
,,919598,001,男,20,2025-06-02_16h37.39.946,Serial_Dependence_U,2023.2.3,Win32,142.85714285714286,,,,,,1962.614399999976,58,6,1962.6145,58,,,,1966.391199999988,1966.8905999999643,1965.884699999988,1966.3910999999641,1963.620800000012,1965.884699999988,1966.8905999999643,1967.390699999988,1967.390699999988,1969.2723999999762,1298,1969.2723999999762,4,1969.2726999999882,6,23,203,22,1,1.2,0.3,Time
,,919598,001,男,20,2025-06-02_16h37.39.946,Serial_Dependence_U,2023.2.3,Win32,142.85714285714286,,,,,,1969.272899999976,271,6,1969.273,271,,,,1972.6196999999881,1973.118899999976,1972.112800000012,1972.6196999999881,1970.2795,1972.112800000012,1973.118899999976,1973.619,1973.619,1974.9383000000118,714,1974.9383000000118,2,1974.9385,6,24,204,5,1,0.8,0.7,Time
,,919598,001,男,20,2025-06-02_16h37.39.946,Serial_Dependence_U,2023.2.3,Win32,142.85714285714286,,,,,,1974.938699999988,9,6,1974.938800000012,9,,,,1979.1183999999762,1979.617899999976,1978.611800000012,1979.1183999999762,1975.9453999999762,1978.611699999988,1979.618,1980.118,1980.118,1982.0205999999641,1389,1982.0205999999641,2,1982.020899999976,6,25,205,24,1,1.6,0.3,Time
,,919598,001,男,20,2025-06-02_16h37.39.946,Serial_Dependence_U,2023.2.3,Win32,142.85714285714286,,,,,,1982.0210999999642,115,6,1982.021199999988,115,,,,1985.9714999999999,1986.4710999999643,1985.4646999999882,1985.9714999999999,1983.0275999999642,1985.4646999999882,1986.4710999999643,1986.9710999999643,1986.9710999999643,1988.818199999988,1215,1988.818199999988,2,1988.8183999999762,6,26,206,28,1,1.4,0.7,Time
,,919598,001,男,20,2025-06-02_16h37.39.946,Serial_Dependence_U,2023.2.3,Win32,142.85714285714286,,,,,,1988.8185999999641,132,6,1988.8188000000118,132,,,,1992.9633999999762,1993.463199999988,1992.4565999999643,1992.9633999999762,1989.8251999999882,1992.4565999999643,1993.463199999988,1993.963300000012,1993.963300000012,1995.782899999976,1348,1995.782899999976,2,1995.7830999999642,6,27,207,29,1,1.6,0.7,Time
,,919598,001,男,20,2025-06-02_16h37.39.946,Serial_Dependence_U,2023.2.3,Win32,142.85714285714286,,,,,,1995.7833000000119,249,6,1995.7833999999762,249,,,,1999.9625999999641,2000.462,1999.455800000012,1999.9625,1996.789300000012,1999.4556999999882,2000.462,2000.9620999999643,2000.9620999999643,2002.9065,1424,2002.9065999999643,2,2002.9068000000118,6,28,208,4,1,1.6,0.3,Time
,,919598,001,男,20,2025-06-02_16h37.39.946,Serial_Dependence_U,2023.2.3,Win32,142.85714285714286,,,,,,2002.907,127,6,2002.907,127,,,,2006.4545,2006.954199999988,2005.947800000012,2006.4543999999762,2003.9131999999881,2005.9476999999881,2006.954199999988,2007.454199999988,2007.454199999988,2009.196899999976,1228,2009.196899999976,4,2009.197199999988,6,29,209,26,1,1,0.7,Time
,,919598,001,男,20,2025-06-02_16h37.39.946,Serial_Dependence_U,2023.2.3,Win32,142.85714285714286,,,,,,2009.1975,228,7,2010.925699999988,228,s,1.717700000047671,,2014.4743000000117,2014.9738999999763,2013.9676999999879,2014.4741999999883,2011.933,2013.9676999999879,2014.9738999999763,2015.4736999999882,2015.473800000012,2017.1963999999762,1265,2017.1965,4,2017.1966999999881,7,0,210,6,1,1,0.7,Time
,,919598,001,男,20,2025-06-02_16h37.39.946,Serial_Dependence_U,2023.2.3,Win32,142.85714285714286,,,,,,2017.1968999999763,308,7,2017.1978000000117,308,,,,2020.5704999999998,2021.0700999999644,2020.0638000000117,2020.5704999999998,2018.203,2020.0636999999879,2021.0700999999644,2021.5700999999644,2021.5700999999644,2023.097899999976,985,2023.097899999976,4,2023.098199999988,7,1,211,10,1,0.8,0.3,Time
,,919598,001,男,20,2025-06-02_16h37.39.946,Serial_Dependence_U,2023.2.3,Win32,142.85714285714286,,,,,,2023.0983999999762,322,7,2023.0983999999762,322,,,,2026.8473000000117,2027.3468999999764,2026.3401999999883,2026.8473000000117,2024.104699999988,2026.3401999999883,2027.3468999999764,2027.8466999999882,2027.8466999999882,2028.4373000000119,520,2028.4373000000119,1,2028.4375999999643,7,2,212,17,1,1.2,0.7,Time
,,919598,001,男,20,2025-06-02_16h37.39.946,Serial_Dependence_U,2023.2.3,Win32,142.85714285714286,,,,,,2028.4376999999881,218,7,2028.437800000012,218,,,,2031.9854999999998,2032.4850999999644,2031.478899999976,2031.985399999976,2029.444199999988,2031.4788000000117,2032.4850999999644,2032.9850000000001,2032.9850000000001,2034.602800000012,1097,2034.6028999999762,4,2034.6030999999643,7,3,213,26,1,1,0.7,Time
,,919598,001,男,20,2025-06-02_16h37.39.946,Serial_Dependence_U,2023.2.3,Win32,142.85714285714286,,,,,,2034.603300000012,149,7,2034.6033999999763,149,,,,2038.783199999988,2039.2828000000118,2038.276399999976,2038.783199999988,2035.609800000012,2038.2763000000118,2039.2828000000118,2039.7823000000121,2039.782399999976,2041.4420999999643,1180,2041.4421999999881,2,2041.4423999999763,7,4,214,4,1,1.6,0.3,Time
,,919598,001,男,20,2025-06-02_16h37.39.946,Serial_Dependence_U,2023.2.3,Win32,142.85714285714286,,,,,,2041.4425999999644,249,7,2041.4426999999882,249,,,,2045.5875999999644,2046.0870999999643,2045.080800000012,2045.5875999999644,2042.449,2045.0806999999882,2046.0871999999881,2046.5871999999881,2046.5871999999881,2048.413300000012,1305,2048.413300000012,2,2048.4135,7,5,215,9,1,1.6,0.7,Time
,,919598,001,男,20,2025-06-02_16h37.39.946,Serial_Dependence_U,2023.2.3,Win32,142.85714285714286,,,,,,2048.4136999999882,322,7,2048.4136999999882,322,,,,2052.162800000012,2052.6625,2051.656300000012,2052.162800000012,2049.420300000012,2051.656300000012,2052.6625,2053.1625,2053.1625,2054.7525,1083,2054.752699999988,2,2054.752800000012,7,6,216,27,1,1.2,0.7,Time
,,919598,001,男,20,2025-06-02_16h37.39.946,Serial_Dependence_U,2023.2.3,Win32,142.85714285714286,,,,,,2054.753,62,7,2054.7530999999644,62,,,,2058.099399999976,2058.5990999999644,2057.592699999988,2058.099399999976,2055.7596999999882,2057.592699999988,2058.5990999999644,2059.0990999999644,2059.0990999999644,2060.376699999988,743,2060.376800000012,2,2060.376899999976,7,7,217,25,1,0.8,0.7,Time
,,919598,001,男,20,2025-06-02_16h37.39.946,Serial_Dependence_U,2023.2.3,Win32,142.85714285714286,,,,,,2060.377199999988,300,7,2060.377300000012,300,,,,2064.3555,2064.855199999988,2063.848800000012,2064.3555,2061.384,2063.848699999988,2064.855199999988,2065.3550999999643,2065.3550999999643,2067.0915999999643,1215,2067.0915999999643,2,2067.091800000012,7,8,218,13,1,1.4,0.3,Time
,,919598,001,男,20,2025-06-02_16h37.39.946,Serial_Dependence_U,2023.2.3,Win32,142.85714285714286,,,,,,2067.0918999999762,116,7,2067.0920999999644,116,,,,2070.667,2071.1665,2070.160300000012,2070.666899999976,2068.097800000012,2070.160300000012,2071.1665,2071.666599999964,2071.666599999964,2073.166399999976,993,2073.1665,3,2073.166899999976,7,9,219,11,1,1,0.3,Time
,,919598,001,男,20,2025-06-02_16h37.39.946,Serial_Dependence_U,2023.2.3,Win32,142.85714285714286,,,,,,2073.166899999976,238,7,2073.167099999964,238,,,,2077.145300000012,2077.644800000012,2076.6385,2077.145199999988,2074.173800000012,2076.638399999976,2077.644800000012,2078.144899999976,2078.144899999976,2079.887599999964,1278,2079.887699999988,2,2079.888,7,10,220,23,1,1.4,0.3,Time
,,919598,001,男,20,2025-06-02_16h37.39.946,Serial_Dependence_U,2023.2.3,Win32,142.85714285714286,,,,,,2079.888099999964,259,7,2079.888300000012,259,,,,2083.838699999988,2084.338199999988,2083.332099999964,2083.8385,2080.894699999988,2083.332099999964,2084.338199999988,2084.8383000000117,2084.8383000000117,2086.539599999964,1187,2086.539599999964,2,2086.539800000012,7,11,221,18,1,1.4,0.7,Time
,,919598,001,男,20,2025-06-02_16h37.39.946,Serial_Dependence_U,2023.2.3,Win32,142.85714285714286,,,,,,2086.54,170,7,2086.5400999999642,170,,,,2090.7195999999644,2091.219199999988,2090.213099999964,2090.7195999999644,2087.546399999976,2090.213,2091.219199999988,2091.7190999999643,2091.7190999999643,2093.719,1381,2093.7190999999643,2,2093.719199999988,7,12,222,14,1,1.6,0.3,Time
,,919598,001,男,20,2025-06-02_16h37.39.946,Serial_Dependence_U,2023.2.3,Win32,142.85714285714286,,,,,,2093.7193999999763,81,7,2093.7195,81,,,,2097.295,2097.7945,2096.788300000012,2097.295,2094.7258999999763,2096.788300000012,2097.7945999999642,2098.295,2098.2950999999643,2099.995800000012,998,2099.995800000012,3,2099.996,7,13,223,21,1,1,0.3,Time
,,919598,001,男,20,2025-06-02_16h37.39.946,Serial_Dependence_U,2023.2.3,Win32,142.85714285714286,,,,,,2099.996300000012,319,7,2099.9963999999763,319,,,,2104.141199999988,2104.640800000012,2103.6345999999644,2104.1410999999644,2101.002800000012,2103.6345999999644,2104.640800000012,2105.140699999988,2105.140699999988,2107.0225999999643,1326,2107.0225999999643,2,2107.0228999999763,7,14,224,19,1,1.6,0.7,Time
,,919598,001,男,20,2025-06-02_16h37.39.946,Serial_Dependence_U,2023.2.3,Win32,142.85714285714286,,,,,,2107.0230999999644,108,7,2107.0230999999644,108,,,,2111.202699999988,2111.702199999988,2110.696,2111.202599999964,2108.0293999999762,2110.695899999976,2111.702199999988,2112.202199999988,2112.202199999988,2113.8758999999764,1298,2113.8758999999764,2,2113.876099999964,7,15,225,24,1,1.6,0.3,Time
,,919598,001,男,20,2025-06-02_16h37.39.946,Serial_Dependence_U,2023.2.3,Win32,142.85714285714286,,,,,,2113.8763000000117,8,7,2113.876399999976,8,,,,2117.653399999976,2118.1526999999883,2117.1465,2117.6533000000118,2114.8826999999883,2117.146399999976,2118.1526999999883,2118.6525999999644,2118.6525999999644,2120.034300000012,924,2120.034300000012,2,2120.0345,7,16,226,22,1,1.2,0.3,Time
,,919598,001,男,20,2025-06-02_16h37.39.946,Serial_Dependence_U,2023.2.3,Win32,142.85714285714286,,,,,,2120.034699999988,14,7,2120.034699999988,14,,,,2123.4091999999882,2123.9088999999763,2122.9025999999644,2123.4090999999644,2121.041699999988,2122.9025,2123.9088999999763,2124.408699999988,2124.408699999988,2125.741800000012,769,2125.741800000012,3,2125.742099999964,7,17,227,0,1,0.8,0.3,Time
,,919598,001,男,20,2025-06-02_16h37.39.946,Serial_Dependence_U,2023.2.3,Win32,142.85714285714286,,,,,,2125.7423000000117,39,7,2125.7425,39,,,,2129.519399999976,2130.018800000012,2129.0125,2129.519399999976,2126.7485999999644,2129.012399999976,2130.018800000012,2130.518800000012,2130.518800000012,2131.997899999976,972,2131.997899999976,2,2131.998199999988,7,18,228,2,1,1.2,0.3,Time
,,919598,001,男,20,2025-06-02_16h37.39.946,Serial_Dependence_U,2023.2.3,Win32,142.85714285714286,,,,,,2131.9983999999763,295,7,2131.9985,295,,,,2135.7475,2136.247199999988,2135.241,2135.7475,2133.0051999999882,2135.240899999976,2136.247300000012,2136.746899999976,2136.746899999976,2138.337300000012,951,2138.337300000012,2,2138.3375,7,19,229,7,1,1.2,0.7,Time
,,919598,001,男,20,2025-06-02_16h37.39.946,Serial_Dependence_U,2023.2.3,Win32,142.85714285714286,,,,,,2138.337699999988,24,7,2138.337800000012,24,,,,2142.316,2142.8156999999883,2141.8093000000117,2142.315899999976,2139.344199999988,2141.8093000000117,2142.815800000012,2143.3155,2143.3155,2145.1765,1347,2145.1765,3,2145.176800000012,7,20,230,3,1,1.4,0.3,Time
,,919598,001,男,20,2025-06-02_16h37.39.946,Serial_Dependence_U,2023.2.3,Win32,142.85714285714286,,,,,,2145.177,221,7,2145.177,221,,,,2149.127399999976,2149.627,2148.620699999988,2149.127399999976,2146.1833999999762,2148.620699999988,2149.627,2150.126899999976,2150.127,2152.029800000012,1389,2152.029800000012,3,2152.03,7,21,231,8,1,1.4,0.7,Time
,,919598,001,男,20,2025-06-02_16h37.39.946,Serial_Dependence_U,2023.2.3,Win32,142.85714285714286,,,,,,2152.030199999988,118,7,2152.030199999988,118,,,,2155.404300000012,2155.903899999976,2154.897699999988,2155.404300000012,2153.0365999999644,2154.897699999988,2155.903899999976,2156.403699999988,2156.403699999988,2157.508,590,2157.508,2,2157.508300000012,7,22,232,20,1,0.8,0.3,Time
,,919598,001,男,20,2025-06-02_16h37.39.946,Serial_Dependence_U,2023.2.3,Win32,142.85714285714286,,,,,,2157.5085,275,7,2157.508599999964,275,,,,2161.056300000012,2161.5560999999643,2160.5495,2161.056300000012,2158.515099999964,2160.5495,2161.5560999999643,2162.055800000012,2162.055800000012,2163.7486999999883,1151,2163.7486999999883,4,2163.748800000012,7,23,233,16,1,1,0.7,Time
,,919598,001,男,20,2025-06-02_16h37.39.946,Serial_Dependence_U,2023.2.3,Win32,142.85714285714286,,,,,,2163.748899999976,26,7,2163.749,26,,,,2167.097,2167.5965999999644,2166.590399999976,2167.0968999999764,2164.7531999999883,2166.590300000012,2167.5965999999644,2168.0965999999644,2168.0965999999644,2169.200599999964,632,2169.200699999988,2,2169.200800000012,7,24,234,5,1,0.8,0.7,Time
,,919598,001,男,20,2025-06-02_16h37.39.946,Serial_Dependence_U,2023.2.3,Win32,142.85714285714286,,,,,,2169.201,215,7,2169.201199999988,215,,,,2172.5476999999883,2173.0470999999643,2172.0410999999644,2172.5475999999644,2170.2075,2172.041,2173.0470999999643,2173.547300000012,2173.547300000012,2174.859699999988,715,2174.859699999988,2,2174.8598999999763,7,25,235,15,1,0.8,0.7,Time
,,919598,001,男,20,2025-06-02_16h37.39.946,Serial_Dependence_U,2023.2.3,Win32,142.85714285714286,,,,,,2174.8601999999883,201,7,2174.8601999999883,201,,,,2179.0051999999882,2179.5045,2178.4983999999763,2179.005,2175.8665999999644,2178.498300000012,2179.5045,2180.0045,2180.0045,2181.816800000012,1278,2181.816800000012,2,2181.8170999999643,7,26,236,29,1,1.6,0.7,Time
,,919598,001,男,20,2025-06-02_16h37.39.946,Serial_Dependence_U,2023.2.3,Win32,142.85714285714286,,,,,,2181.817300000012,353,7,2181.8175,353,,,,2185.5940999999643,2186.093800000012,2185.0875999999644,2185.5940999999643,2182.823699999988,2185.0875999999644,2186.093800000012,2186.593599999964,2186.593699999988,2188.232399999976,1207,2188.232399999976,3,2188.232699999988,7,27,237,12,1,1.2,0.3,Time
,,919598,001,男,20,2025-06-02_16h37.39.946,Serial_Dependence_U,2023.2.3,Win32,142.85714285714286,,,,,,2188.2328999999763,302,7,2188.233,302,,,,2192.183300000012,2192.683,2191.676699999988,2192.183300000012,2189.2395999999644,2191.6765999999643,2192.683,2193.182899999976,2193.182899999976,2195.0923999999764,1354,2195.0923999999764,3,2195.092699999988,7,28,238,28,1,1.4,0.7,Time
,,919598,001,男,20,2025-06-02_16h37.39.946,Serial_Dependence_U,2023.2.3,Win32,142.85714285714286,,,,,,2195.092899999976,34,7,2195.093,34,,,,2198.667099999964,2199.166199999988,2198.159699999988,2198.667099999964,2196.097099999964,2198.159699999988,2199.166199999988,2199.666199999988,2199.666199999988,2200.780099999964,800,2200.780099999964,2,2200.7803000000117,7,29,239,1,1,1,0.3,Time
,,919598,001,男,20,2025-06-02_16h37.39.946,Serial_Dependence_U,2023.2.3,Win32,142.85714285714286,,,,,,2200.7805,235,8,2327.142099999964,235,s,126.35140000003548,,2330.7178000000117,2331.217599999964,2330.211599999964,2330.7178000000117,2328.149199999988,2330.211599999964,2331.217599999964,2331.718,2331.718,2333.127300000012,1048,2333.127300000012,3,2333.1275999999643,8,0,240,21,1,1,0.3,Time
,,919598,001,男,20,2025-06-02_16h37.39.946,Serial_Dependence_U,2023.2.3,Win32,142.85714285714286,,,,,,2333.127800000012,182,8,2333.128699999988,182,,,,2336.675800000012,2337.175199999988,2336.169099999964,2336.675699999988,2334.134199999988,2336.169099999964,2337.175199999988,2337.6753000000117,2337.6753000000117,2339.4043999999762,1201,2339.4043999999762,4,2339.4045999999644,8,1,241,26,1,1,0.7,Time
,,919598,001,男,20,2025-06-02_16h37.39.946,Serial_Dependence_U,2023.2.3,Win32,142.85714285714286,,,,,,2339.404699999988,185,8,2339.4048999999764,185,,,,2343.5543999999763,2344.054,2343.047800000012,2343.5543999999763,2340.411300000012,2343.0475999999644,2344.054,2344.5538999999762,2344.5538999999762,2346.438300000012,1286,2346.4383999999764,2,2346.4385,8,2,242,19,1,1.6,0.7,Time
,,919598,001,男,20,2025-06-02_16h37.39.946,Serial_Dependence_U,2023.2.3,Win32,142.85714285714286,,,,,,2346.4388000000117,202,8,2346.438899999976,202,,,,2350.416399999976,2350.9163000000117,2349.910099999964,2350.4163000000117,2347.4445999999643,2349.91,2350.9163000000117,2351.416199999988,2351.416199999988,2353.3395999999643,1347,2353.339699999988,3,2353.339800000012,8,3,243,13,1,1.4,0.3,Time
,,919598,001,男,20,2025-06-02_16h37.39.946,Serial_Dependence_U,2023.2.3,Win32,142.85714285714286,,,,,,2353.34,17,8,2353.3401999999883,17,,,,2356.887599999964,2357.3875,2356.381099999964,2356.887599999964,2354.346300000012,2356.381099999964,2357.3875,2357.887399999976,2357.887399999976,2359.713599999964,1269,2359.713599999964,4,2359.713800000012,8,4,244,16,1,1,0.7,Time
,,919598,001,男,20,2025-06-02_16h37.39.946,Serial_Dependence_U,2023.2.3,Win32,142.85714285714286,,,,,,2359.714099999964,5,8,2359.714199999988,5,,,,2363.4565,2363.9560999999644,2362.9495999999644,2363.456399999976,2360.713800000012,2362.9495999999644,2363.9560999999644,2364.4555999999643,2364.455699999988,2365.997199999988,1118,2365.997199999988,2,2365.997599999964,8,5,245,7,1,1.2,0.7,Time
,,919598,001,男,20,2025-06-02_16h37.39.946,Serial_Dependence_U,2023.2.3,Win32,142.85714285714286,,,,,,2365.997699999988,303,8,2365.997800000012,303,,,,2369.3445,2369.8440999999643,2368.837699999988,2369.3443999999763,2367.0045,2368.8375999999644,2369.8440999999643,2370.343899999976,2370.343899999976,2371.8020999999644,742,2371.8021999999883,2,2371.802399999976,8,6,246,15,1,0.8,0.7,Time
,,919598,001,男,20,2025-06-02_16h37.39.946,Serial_Dependence_U,2023.2.3,Win32,142.85714285714286,,,,,,2371.802599999964,189,8,2371.802699999988,189,,,,2375.1703999999763,2375.6695,2374.663199999988,2375.1703999999763,2372.8021999999883,2374.663199999988,2375.6695,2376.1695,2376.1695,2377.523300000012,840,2377.523399999976,3,2377.523699999988,8,7,247,10,1,0.8,0.3,Time
,,919598,001,男,20,2025-06-02_16h37.39.946,Serial_Dependence_U,2023.2.3,Win32,142.85714285714286,,,,,,2377.5238000000118,197,8,2377.523899999976,197,,,,2381.495300000012,2381.995,2380.9885,2381.495300000012,2378.5238000000118,2380.9885,2381.995,2382.494899999976,2382.494899999976,2384.140399999976,930,2384.1405,1,2384.1405999999643,8,8,248,23,1,1.4,0.3,Time
,,919598,001,男,20,2025-06-02_16h37.39.946,Serial_Dependence_U,2023.2.3,Win32,142.85714285714286,,,,,,2384.140899999976,295,8,2384.140899999976,295,,,,2387.4875,2387.987,2386.9806999999882,2387.4873999999763,2385.147300000012,2386.9805999999644,2387.987,2388.4870999999644,2388.4870999999644,2389.855,875,2389.855,4,2389.855199999988,8,9,249,5,1,0.8,0.7,Time
,,919598,001,男,20,2025-06-02_16h37.39.946,Serial_Dependence_U,2023.2.3,Win32,142.85714285714286,,,,,,2389.8553999999763,345,8,2389.8555,345,,,,2394.000199999988,2394.5000999999643,2393.493800000012,2394.0000999999643,2390.8620999999644,2393.493800000012,2394.5000999999643,2394.999899999976,2394.999899999976,2396.923099999964,1430,2396.923099999964,2,2396.923399999976,8,10,250,9,1,1.6,0.7,Time
,,919598,001,男,20,2025-06-02_16h37.39.946,Serial_Dependence_U,2023.2.3,Win32,142.85714285714286,,,,,,2396.923599999964,39,8,2396.923699999988,39,,,,2401.1035999999644,2401.6030999999643,2400.5966999999882,2401.1035,2397.930099999964,2400.5966999999882,2401.6030999999643,2402.102800000012,2402.102800000012,2403.8525,1159,2403.852699999988,2,2403.852800000012,8,11,251,4,1,1.6,0.3,Time
,,919598,001,男,20,2025-06-02_16h37.39.946,Serial_Dependence_U,2023.2.3,Win32,142.85714285714286,,,,,,2403.853,57,8,2403.8530999999643,57,,,,2407.199699999988,2407.6993999999763,2406.693099999964,2407.199699999988,2404.8598999999763,2406.693,2407.6995,2408.199199999988,2408.199199999988,2409.449300000012,764,2409.4493999999763,3,2409.4495999999644,8,12,252,25,1,0.8,0.7,Time
,,919598,001,男,20,2025-06-02_16h37.39.946,Serial_Dependence_U,2023.2.3,Win32,142.85714285714286,,,,,,2409.4498000000117,318,8,2409.449899999976,318,,,,2413.629300000012,2414.128699999988,2413.122699999988,2413.629199999988,2410.456300000012,2413.122699999988,2414.128699999988,2414.628800000012,2414.628800000012,2416.343800000012,1291,2416.343899999976,2,2416.3440999999643,8,13,253,14,1,1.6,0.3,Time
,,919598,001,男,20,2025-06-02_16h37.39.946,Serial_Dependence_U,2023.2.3,Win32,142.85714285714286,,,,,,2416.344300000012,183,8,2416.3443999999763,183,,,,2419.919899999976,2420.419699999988,2419.413,2419.919899999976,2417.351,2419.412899999976,2420.419699999988,2420.9195999999642,2420.9195999999642,2422.301199999988,895,2422.301300000012,2,2422.3015,8,14,254,11,1,1,0.3,Time
,,919598,001,男,20,2025-06-02_16h37.39.946,Serial_Dependence_U,2023.2.3,Win32,142.85714285714286,,,,,,2422.301800000012,222,8,2422.301800000012,222,,,,2425.843,2426.342,2425.336099999964,2425.842899999976,2423.3015,2425.336,2426.342,2426.8423999999764,2426.8423999999764,2428.189399999976,979,2428.1895,3,2428.1895999999642,8,15,255,6,1,1,0.7,Time
,,919598,001,男,20,2025-06-02_16h37.39.946,Serial_Dependence_U,2023.2.3,Win32,142.85714285714286,,,,,,2428.189800000012,134,8,2428.189899999976,134,,,,2432.140399999976,2432.640099999964,2431.633699999988,2432.140300000012,2429.196199999988,2431.633699999988,2432.640099999964,2433.14,2433.140099999964,2434.9175,1326,2434.9175,2,2434.917699999988,8,16,256,18,1,1.4,0.7,Time
,,919598,001,男,20,2025-06-02_16h37.39.946,Serial_Dependence_U,2023.2.3,Win32,142.85714285714286,,,,,,2434.918,214,8,2434.918,214,,,,2438.292,2438.792,2437.785300000012,2438.292,2435.9245999999644,2437.785199999988,2438.792,2439.291699999988,2439.291699999988,2440.3200999999644,578,2440.3200999999644,2,2440.3201999999883,8,17,257,0,1,0.8,0.3,Time
,,919598,001,男,20,2025-06-02_16h37.39.946,Serial_Dependence_U,2023.2.3,Win32,142.85714285714286,,,,,,2440.320399999976,206,8,2440.3205,206,,,,2444.270699999988,2444.770199999988,2443.763699999988,2444.2705999999644,2441.3263999999763,2443.763699999988,2444.770300000012,2445.270199999988,2445.270199999988,2447.026800000012,1305,2447.026899999976,2,2447.0270999999643,8,18,258,28,1,1.4,0.7,Time
,,919598,001,男,20,2025-06-02_16h37.39.946,Serial_Dependence_U,2023.2.3,Win32,142.85714285714286,,,,,,2447.027300000012,299,8,2447.0273999999763,299,,,,2450.8045,2451.3038999999762,2450.2975,2450.8043999999763,2448.034,2450.2975,2451.3038999999762,2451.803699999988,2451.803699999988,2453.234099999964,972,2453.234099999964,2,2453.234399999976,8,19,259,2,1,1.2,0.3,Time
