Scale_setup.started,Scale_setup.stopped,participant,session,sex,age,date,expName,psychopyVersion,OS,frameRate,Intro.started,Intro.stopped,key_resp_2.keys,key_resp_2.rt,key_resp_2.duration,block.started,direction,Block_id,block.stopped,trial_direction,Block_resp_2.keys,Block_resp_2.rt,Block_resp_2.duration,ITI.started,ITI.stopped,Mask_2.started,Mask_2.stopped,encoding.started,encoding.stopped,Cue.started,Cue.stopped,Response.started,Response.stopped,keyDuration,Feedback_Time.started,FeedbackID_T,Feedback_Time.stopped,trials.thisRepN,trials.thisTrialN,trials.thisN,trials.thisIndex,trials.ran,TimeDur,Coherence1,TrialType
0.00019999980929696903,0.0004999999999881766,920169,001,女,27,2025-06-04_19h02.09.402,Serial_Dependence_U,2023.2.3,Win32,59.52380952364454,,,,,,,,,,,,,,,,,,,,,,,,,,,,,,,,,,,
,,920169,001,女,27,2025-06-04_19h02.09.402,Serial_Dependence_U,2023.2.3,Win32,59.52380952364454,229.09029999995232,306.2090999999046,space,77.0591000001429,,,,,,,,,,,,,,,,,,,,,,,,,,,,,,,
,,920169,001,女,27,2025-06-04_19h02.09.402,Serial_Dependence_U,2023.2.3,Win32,59.52380952364454,,,,,,306.22029999995226,18,0,318.84039999985686,18,s,12.598300000190875,,322.42319999980924,322.92249999999996,321.90739999985686,322.42300000000006,319.85989999985696,321.9065999999046,322.92289999985684,323.42289999985684,323.42309999990454,336.854399999857,3250,336.8564999999999,5,337.8535999999047,0,0,0,26,1,1,0.7,Time
,,920169,001,女,27,2025-06-04_19h02.09.402,Serial_Dependence_U,2023.2.3,Win32,59.52380952364454,,,,,,337.8545,208,0,337.86019999980914,208,,,,342.0388999998568,342.53729999995227,341.52359999990455,342.03879999995235,338.85600000000005,341.52350000000007,342.537399999857,343.0371999998093,343.03729999995227,350.10679999995233,5484,350.10679999995233,5,351.1022999999523,0,1,1,14,1,1.6,0.3,Time
,,920169,001,女,27,2025-06-04_19h02.09.402,Serial_Dependence_U,2023.2.3,Win32,59.52380952364454,,,,,,351.1035,354,0,351.1037999999522,354,,,,354.68619999980916,355.1852999999522,354.17189999985686,354.68619999980916,352.1050000000001,354.17169999980916,355.1852999999522,355.6852999999522,355.6853999998569,362.0875999999046,4614,362.08769999980933,5,363.0841999998093,0,2,2,11,1,1,0.3,Time
,,920169,001,女,27,2025-06-04_19h02.09.402,Serial_Dependence_U,2023.2.3,Win32,59.52380952364454,,,,,,363.0847999999524,249,0,363.08499999999987,249,,,,366.88400000000007,367.38329999995227,366.36979999995225,366.8837999999524,364.1019999999999,366.36969999980926,367.38329999995227,367.88329999995227,367.883399999857,373.05329999995234,2669,373.0533999998568,5,374.0501999998092,0,3,3,2,1,1.2,0.3,Time
,,920169,001,女,27,2025-06-04_19h02.09.402,Serial_Dependence_U,2023.2.3,Win32,59.52380952364454,,,,,,374.0505999999046,106,0,374.0507999999523,106,,,,377.64889999985695,378.14850000000007,377.1348999998568,377.64879999995225,375.06679999995237,377.13479999995235,378.14850000000007,378.64819999980915,378.64829999995237,383.1510999999046,2550,383.1512999999523,5,384.14749999999987,0,4,4,21,1,1,0.3,Time
,,920169,001,女,27,2025-06-04_19h02.09.402,Serial_Dependence_U,2023.2.3,Win32,59.52380952364454,,,,,,384.14829999995237,164,0,384.14869999980925,164,,,,388.0977999999523,388.59629999995224,387.5825999999045,388.0975999999046,385.1497999999522,387.58250000000004,388.59639999985694,389.0966999998091,389.09679999995234,394.0830999999046,3828,394.0832999999523,5,395.08079999995226,0,5,5,18,1,1.4,0.7,Time
,,920169,001,女,27,2025-06-04_19h02.09.402,Serial_Dependence_U,2023.2.3,Win32,59.52380952364454,,,,,,395.08109999990467,85,0,395.08159999990454,85,,,,398.445899999857,398.9442999999522,397.93079999995217,398.44579999995227,396.09600000000006,397.9306999998092,398.9447999999523,399.4447999999523,399.444899999857,405.23029999995225,3616,405.23039999985696,5,406.2268999998569,0,6,6,15,1,0.8,0.7,Time
,,920169,001,女,27,2025-06-04_19h02.09.402,Serial_Dependence_U,2023.2.3,Win32,59.52380952364454,,,,,,406.2277999999522,148,0,406.2280999999046,148,,,,409.6272999999522,410.12579999995233,409.1131999998093,409.6270999999045,407.2465999999045,409.1129999999999,410.1264999999999,410.627899999857,410.627899999857,414.81179999995226,3164,414.81189999985696,5,415.8107999999523,0,7,7,0,1,0.8,0.3,Time
,,920169,001,女,27,2025-06-04_19h02.09.402,Serial_Dependence_U,2023.2.3,Win32,59.52380952364454,,,,,,415.8110999999047,263,0,415.81139999985686,263,,,,420.00919999980925,420.5078999998569,419.49439999985685,420.00900000000007,416.8257999999524,419.4942999999524,420.5078999998569,421.0078999998569,421.00799999999987,425.3440999999046,3516,425.3440999999046,5,426.34,0,8,8,4,1,1.6,0.3,Time
,,920169,001,女,27,2025-06-04_19h02.09.402,Serial_Dependence_U,2023.2.3,Win32,59.52380952364454,,,,,,426.34089999985696,122,0,426.34119999980913,122,,,,430.50849999999997,431.0058999998569,429.9925999999046,430.50849999999997,427.3577999999523,429.9925999999046,431.0060999999046,431.506399999857,431.5065999999045,435.80869999980933,3567,435.8087999999523,5,436.8055999999047,0,9,9,19,1,1.6,0.7,Time
,,920169,001,女,27,2025-06-04_19h02.09.402,Serial_Dependence_U,2023.2.3,Win32,59.52380952364454,,,,,,436.8060999999046,308,0,436.806399999857,308,,,,440.7555999999045,441.25450000000006,440.24059999990465,440.7553999998568,437.80769999980913,440.24049999999994,441.25459999990454,441.75459999990454,441.75469999980925,445.15769999980927,3063,445.15779999995226,5,446.15400000000005,0,10,10,28,1,1.4,0.7,Time
,,920169,001,女,27,2025-06-04_19h02.09.402,Serial_Dependence_U,2023.2.3,Win32,59.52380952364454,,,,,,446.1544999999999,311,0,446.15469999980934,311,,,,449.5542999999523,450.05259999990454,449.0390999999045,449.5541999998093,447.1708999998569,449.03900000000004,450.05269999980925,450.55289999985695,450.55299999999994,453.589899999857,2152,453.59,5,454.5851999998093,0,11,11,10,1,0.8,0.3,Time
,,920169,001,女,27,2025-06-04_19h02.09.402,Serial_Dependence_U,2023.2.3,Win32,59.52380952364454,,,,,,454.58619999980925,46,0,454.58659999990465,46,,,,457.9357999999523,458.435,457.4208999998569,457.9356999998093,455.588899999857,457.4207999999522,458.435,458.93729999995236,458.93739999985684,462.3040999999046,2832,462.3040999999046,5,463.30219999980915,0,12,12,25,1,0.8,0.7,Time
,,920169,001,女,27,2025-06-04_19h02.09.402,Serial_Dependence_U,2023.2.3,Win32,59.52380952364454,,,,,,463.30259999990454,321,0,463.30279999995224,321,,,,467.2843999998568,467.7851999998093,466.76929999995224,467.2843999998568,464.3037999999522,466.76919999980925,467.7851999998093,468.28279999995226,468.28329999995236,472.57029999995217,3546,472.57029999995217,5,473.56629999995226,0,13,13,13,1,1.4,0.3,Time
,,920169,001,女,27,2025-06-04_19h02.09.402,Serial_Dependence_U,2023.2.3,Win32,59.52380952364454,,,,,,473.56679999995237,38,0,473.56700000000006,38,,,,477.7675999999047,478.26450000000006,477.2510999999045,477.7675999999047,474.5845999999047,477.25100000000003,478.26469999980924,478.76489999985694,478.76489999985694,484.6172999999522,5127,484.6172999999522,5,485.6137999999524,0,14,14,24,1,1.6,0.3,Time
,,920169,001,女,27,2025-06-04_19h02.09.402,Serial_Dependence_U,2023.2.3,Win32,59.52380952364454,,,,,,485.61449999999996,354,0,485.61479999995237,354,,,,489.39749999999987,489.896,488.8825,489.3973999998569,486.6162999999522,488.8825,489.8962999999522,490.3963999998569,490.3964999999999,496.58209999990464,2073,496.58209999990464,5,497.5785999999046,0,15,15,12,1,1.2,0.3,Time
,,920169,001,女,27,2025-06-04_19h02.09.402,Serial_Dependence_U,2023.2.3,Win32,59.52380952364454,,,,,,497.5794999999999,258,0,497.5796999998093,258,,,,501.5787999999523,502.07749999999993,501.0636999998092,501.5786999998093,498.59589999985684,501.0636999998092,502.07800000000003,502.57800000000003,502.5780999999045,508.54749999999996,4068,508.54749999999996,5,509.54389999985693,0,16,16,3,1,1.4,0.3,Time
,,920169,001,女,27,2025-06-04_19h02.09.402,Serial_Dependence_U,2023.2.3,Win32,59.52380952364454,,,,,,509.5443999998568,326,0,509.5446999998092,326,,,,513.3104999999998,513.8096999998093,512.7955999999047,513.3104999999998,510.5610999999047,512.7955,513.8096999998093,514.3092999999521,514.3092999999521,516.9287999999522,2483,516.9287999999522,5,517.9254999999998,0,17,17,17,1,1.2,0.7,Time
,,920169,001,女,27,2025-06-04_19h02.09.402,Serial_Dependence_U,2023.2.3,Win32,59.52380952364454,,,,,,517.9259999999999,68,0,517.9261999998091,68,,,,521.5086999998091,522.0095999999046,520.9942999999523,521.5083999998569,518.9275,520.9941999998091,522.0095999999046,522.5079999999998,522.5080999999045,526.3104999999998,2801,526.3104999999998,5,527.3091999998092,0,18,18,1,1,1,0.3,Time
,,920169,001,女,27,2025-06-04_19h02.09.402,Serial_Dependence_U,2023.2.3,Win32,59.52380952364454,,,,,,527.3095999999045,207,0,527.3097999999522,207,,,,531.0756999998091,531.5729999999999,530.5595999999045,531.0756999998091,528.3263999998569,530.5594999999998,531.5729999999999,532.0727999999522,532.0728999998569,536.7251999998091,3278,536.7252999999523,5,537.7220999999045,0,19,19,7,1,1.2,0.7,Time
,,920169,001,女,27,2025-06-04_19h02.09.402,Serial_Dependence_U,2023.2.3,Win32,59.52380952364454,,,,,,537.7227999999523,192,0,537.723,192,,,,541.6745999999046,542.1708999998568,541.1578999998569,541.6744999999999,538.7243999998568,541.1578999998569,542.1711999998092,542.6714999999999,542.6714999999999,547.1570999999046,3774,547.1570999999046,5,548.1542999999522,0,20,20,8,1,1.4,0.7,Time
,,920169,001,女,27,2025-06-04_19h02.09.402,Serial_Dependence_U,2023.2.3,Win32,59.52380952364454,,,,,,548.1547999999523,358,0,548.155,358,,,,551.703899999857,552.2023999998569,551.1890999999046,551.7036999998093,549.1563999998568,551.1888999998569,552.2025999999046,552.7031999998092,552.7032999999522,555.8556999998091,2472,555.8556999998091,5,556.8546999998091,0,21,21,16,1,1,0.7,Time
,,920169,001,女,27,2025-06-04_19h02.09.402,Serial_Dependence_U,2023.2.3,Win32,59.52380952364454,,,,,,556.8551999998092,219,0,556.8553999998569,219,,,,560.4188999998569,560.9181999998091,559.9045999999046,560.4187999999522,557.8697999999522,559.9044999999999,560.9181999998091,561.4181999998091,561.4182999999523,565.8544999999999,3529,565.8544999999999,5,566.8498999998569,0,22,22,6,1,1,0.7,Time
,,920169,001,女,27,2025-06-04_19h02.09.402,Serial_Dependence_U,2023.2.3,Win32,59.52380952364454,,,,,,566.8513999998568,269,0,566.8515999999045,269,,,,570.6172999999521,571.116899999857,570.1032999999522,570.6172999999521,567.8695999999045,570.1030999999045,571.117,571.6167999999523,571.616899999857,576.4187999999522,3601,576.4188999998569,5,577.4154999999998,0,23,23,27,1,1.2,0.7,Time
,,920169,001,女,27,2025-06-04_19h02.09.402,Serial_Dependence_U,2023.2.3,Win32,59.52380952364454,,,,,,577.4160999999046,65,0,577.4164999999998,65,,,,581.3852999999522,581.8806999998092,580.8841999998092,581.3850999999045,578.4170999999046,580.8840999999045,581.8810999999046,582.3810999999046,582.3815,586.8840999999045,3150,586.8841999998092,5,587.882399999857,0,24,24,23,1,1.4,0.3,Time
,,920169,001,女,27,2025-06-04_19h02.09.402,Serial_Dependence_U,2023.2.3,Win32,59.52380952364454,,,,,,587.8826999998091,249,0,587.8829999999998,249,,,,591.247399999857,591.7460999999046,590.7325999999046,591.2472999999522,588.8977999999522,590.7324999999998,591.7467999999521,592.2465,592.2465999999044,598.1320999999045,3523,598.1320999999045,5,599.1289999999999,0,25,25,5,1,0.8,0.7,Time
,,920169,001,女,27,2025-06-04_19h02.09.402,Serial_Dependence_U,2023.2.3,Win32,59.52380952364454,,,,,,599.1295,70,0,599.1297999999522,70,,,,603.2810999999047,603.7800999999045,602.7645,603.281,600.1315999999044,602.7642999999523,603.7800999999045,604.2775999999046,604.2775999999046,616.1621999998092,3424,616.1622999999522,5,617.1583999998568,0,26,26,9,1,1.6,0.7,Time
,,920169,001,女,27,2025-06-04_19h02.09.402,Serial_Dependence_U,2023.2.3,Win32,59.52380952364454,,,,,,617.1599999999999,164,0,617.160399999857,164,,,,620.5592999999521,621.0578999998568,620.0442999999523,620.5590999999044,618.1764999999998,620.0441999998093,621.0583999998569,621.5581999998092,621.5582999999522,625.4445999999045,3333,625.4446999998092,5,626.4426999998091,0,27,27,20,1,0.8,0.3,Time
,,920169,001,女,27,2025-06-04_19h02.09.402,Serial_Dependence_U,2023.2.3,Win32,59.52380952364454,,,,,,626.4430999999045,158,0,626.4433999998569,158,,,,630.6090999999046,631.1060999999045,630.0932999999523,630.6088999998569,627.4597999999523,630.0930999999046,631.1065999999046,631.6065999999046,631.6066999998093,636.1754999999998,3266,636.1754999999998,5,637.1742999999522,0,28,28,29,1,1.6,0.7,Time
,,920169,001,女,27,2025-06-04_19h02.09.402,Serial_Dependence_U,2023.2.3,Win32,59.52380952364454,,,,,,637.1745999999046,272,0,637.174899999857,272,,,,640.9748999998569,641.4737999999522,640.4585,640.9747999999522,638.1895,640.4585,641.4737999999522,641.9711999998092,641.9715999999046,646.9921999998091,3066,646.9922999999521,5,647.9875,0,29,29,22,1,1.2,0.3,Time
,,920169,001,女,27,2025-06-04_19h02.09.402,Serial_Dependence_U,2023.2.3,Win32,59.52380952364454,,,,,,647.9882999999522,37,1,1081.6981999998093,37,s,433.68590000009544,,1085.665,1086.164,1085.147899999857,1085.664899999857,1082.715,1085.1476999998092,1086.1640999999045,1086.663699999809,1086.663699999809,1093.0800999999046,3266,1093.0800999999046,5,1093.0822999999523,1,0,30,18,1,1.4,0.7,Time
,,920169,001,女,27,2025-06-04_19h02.09.402,Serial_Dependence_U,2023.2.3,Win32,59.52380952364454,,,,,,1093.0835,332,1,1093.085699999809,332,,,,1096.4626999998093,1096.9625999999046,1095.946,1096.4624999999999,1094.079899999857,1095.945899999857,1096.9625999999046,1097.461699999809,1097.461699999809,1111.8101999998091,3196,1111.8102999999521,5,1111.8113999998568,1,1,31,20,1,0.8,0.3,Time
,,920169,001,女,27,2025-06-04_19h02.09.402,Serial_Dependence_U,2023.2.3,Win32,59.52380952364454,,,,,,1111.8126999998092,199,1,1111.8131999998093,199,,,,1115.4095,1115.9088999998569,1114.8930999999045,1115.4095,1112.8265999999046,1114.8929999999998,1115.9089999999999,1116.4090999999046,1116.409199999809,1125.4080999999046,4363,1125.4080999999046,5,1125.4093999998568,1,2,32,1,1,1,0.3,Time
,,920169,001,女,27,2025-06-04_19h02.09.402,Serial_Dependence_U,2023.2.3,Win32,59.52380952364454,,,,,,1125.4105999999044,207,1,1125.4109999999998,207,,,,1128.7740999999046,1129.273199999809,1128.2570999999045,1128.774,1126.4243999998569,1128.2569999999998,1129.273199999809,1129.7733999998568,1129.7733999998568,1134.556399999857,2593,1134.5565999999046,5,1134.557699999809,1,3,33,5,1,0.8,0.7,Time
,,920169,001,女,27,2025-06-04_19h02.09.402,Serial_Dependence_U,2023.2.3,Win32,59.52380952364454,,,,,,1134.5588999998567,341,1,1134.5593999998569,341,,,,1138.7224999999999,1139.222,1138.205899999857,1138.7224999999999,1135.5727999999522,1138.2057999999522,1139.2220999999045,1139.7237999999522,1139.7240999999046,1159.301899999857,1416,1159.302,2,1159.3038999998569,1,4,34,9,1,1.6,0.7,Time
,,920169,001,女,27,2025-06-04_19h02.09.402,Serial_Dependence_U,2023.2.3,Win32,59.52380952364454,,,,,,1159.3047999999521,274,1,1159.3051999998092,274,,,,1162.8684999999998,1163.367899999857,1162.3518999998569,1162.8682999999521,1160.318899999857,1162.3518999998569,1163.367899999857,1163.8673999998568,1163.8675999999045,1170.8165999999046,2124,1170.816699999809,5,1170.8177999999523,1,5,35,26,1,1,0.7,Time
,,920169,001,女,27,2025-06-04_19h02.09.402,Serial_Dependence_U,2023.2.3,Win32,59.52380952364454,,,,,,1170.8191999998091,211,1,1170.8195999999045,211,,,,1175.0158999998569,1175.5156999998092,1174.4998999998568,1175.0157999999522,1171.8329999999999,1174.4997999999523,1175.5157999999522,1176.0158999998569,1176.0158999998569,1184.7982999999522,2312,1184.7983999998569,5,1184.8,1,6,36,4,1,1.6,0.3,Time
,,920169,001,女,27,2025-06-04_19h02.09.402,Serial_Dependence_U,2023.2.3,Win32,59.52380952364454,,,,,,1184.8007999999522,76,1,1184.8010999999046,76,,,,1188.9975,1189.4966999998092,1188.4808999998568,1188.997399999857,1185.8149999999998,1188.4807999999523,1189.4967999999521,1189.9966999998092,1189.9966999998092,1198.1792999999523,4850,1198.179399999857,5,1198.1807999999521,1,7,37,24,1,1.6,0.3,Time
,,920169,001,女,27,2025-06-04_19h02.09.402,Serial_Dependence_U,2023.2.3,Win32,59.52380952364454,,,,,,1198.1820999999045,32,1,1198.182399999857,32,,,,1202.1447999999523,1202.6445999999046,1201.628899999857,1202.1445999999046,1199.1957999999522,1201.6287999999522,1202.644699999809,1203.1447999999523,1203.1448999998568,1208.5437999999522,3865,1208.5438999998569,5,1208.5455,1,8,38,8,1,1.4,0.7,Time
,,920169,001,女,27,2025-06-04_19h02.09.402,Serial_Dependence_U,2023.2.3,Win32,59.52380952364454,,,,,,1208.546699999809,329,1,1208.547399999857,329,,,,1212.5436999998092,1213.043199999809,1212.0270999999045,1212.5435999999045,1209.5613999998568,1212.0270999999045,1213.0432999999523,1213.543,1213.5430999999046,1218.6592999999523,3626,1218.6592999999523,5,1218.660399999857,1,9,39,13,1,1.4,0.3,Time
,,920169,001,女,27,2025-06-04_19h02.09.402,Serial_Dependence_U,2023.2.3,Win32,59.52380952364454,,,,,,1218.6616999998091,50,1,1218.6621999998092,50,,,,1222.0582999999522,1222.558,1221.5420999999046,1222.0580999999045,1219.6752999999521,1221.542,1222.5580999999045,1223.058,1223.0580999999045,1227.7247999999522,3052,1227.724899999857,5,1227.7269999999999,1,10,40,10,1,0.8,0.3,Time
,,920169,001,女,27,2025-06-04_19h02.09.402,Serial_Dependence_U,2023.2.3,Win32,59.52380952364454,,,,,,1227.727399999857,296,1,1227.7276999998091,296,,,,1231.0738999998568,1231.5733999998567,1230.5570999999045,1231.0738999998568,1228.7243999998568,1230.5568999998568,1231.5735,1232.0728999998569,1232.0728999998569,1235.9897999999523,3769,1235.9898999998568,5,1235.9907999999523,1,11,41,25,1,0.8,0.7,Time
,,920169,001,女,27,2025-06-04_19h02.09.402,Serial_Dependence_U,2023.2.3,Win32,59.52380952364454,,,,,,1235.9923999998568,89,1,1235.9926999998092,89,,,,1239.388899999857,1239.8885999999045,1238.8727999999521,1239.388899999857,1237.0062999999523,1238.8726999998091,1239.8886999998092,1240.3885999999045,1240.3886999998092,1245.221699999809,2867,1245.221699999809,5,1245.222899999857,1,12,42,0,1,0.8,0.3,Time
,,920169,001,女,27,2025-06-04_19h02.09.402,Serial_Dependence_U,2023.2.3,Win32,59.52380952364454,,,,,,1245.2240999999046,138,1,1245.2244999999998,138,,,,1249.0207999999523,1249.5198999998568,1248.504199999809,1249.0207999999523,1246.2380999999045,1248.5040999999046,1249.5200999999045,1250.0203999998569,1250.0203999998569,1253.5368999998568,3243,1253.5369999999998,5,1253.538,1,13,43,2,1,1.2,0.3,Time
,,920169,001,女,27,2025-06-04_19h02.09.402,Serial_Dependence_U,2023.2.3,Win32,59.52380952364454,,,,,,1253.5393999998569,134,1,1253.539899999857,134,,,,1257.1362999999521,1257.6354999999999,1256.6197999999522,1257.1361999998092,1254.5535999999045,1256.6196999998092,1257.6355999999046,1258.1356999998093,1258.1356999998093,1261.5523999998568,2928,1261.5529999999999,5,1261.554399999857,1,14,44,11,1,1,0.3,Time
,,920169,001,女,27,2025-06-04_19h02.09.402,Serial_Dependence_U,2023.2.3,Win32,59.52380952364454,,,,,,1261.5547999999521,14,1,1261.5551999998092,14,,,,1265.3182999999522,1265.8174999999999,1264.8029999999999,1265.3181999998092,1262.5686999998093,1264.8020999999046,1265.8177999999523,1266.3174999999999,1266.3175999999046,1272.1005,3441,1272.1005999999045,5,1272.1021999998093,1,15,45,27,1,1.2,0.7,Time
,,920169,001,女,27,2025-06-04_19h02.09.402,Serial_Dependence_U,2023.2.3,Win32,59.52380952364454,,,,,,1272.1030999999045,1,1,1272.103399999857,1,,,,1276.2665,1276.7657999999522,1275.7498999998568,1276.266399999857,1273.1173999998568,1275.7498999998568,1276.7658999998569,1277.2655999999045,1277.2657999999522,1281.5322999999523,3780,1281.5322999999523,5,1281.5343999998568,1,16,46,19,1,1.6,0.7,Time
,,920169,001,女,27,2025-06-04_19h02.09.402,Serial_Dependence_U,2023.2.3,Win32,59.52380952364454,,,,,,1281.5350999999046,132,1,1281.5352999999523,132,,,,1285.0982999999521,1285.5976999998093,1284.581899999857,1285.0981999998091,1282.5487999999523,1284.5817999999522,1285.5977999999523,1286.0973999998569,1286.0974999999999,1289.6805,3374,1289.6805999999046,5,1289.682,1,17,47,6,1,1,0.7,Time
,,920169,001,女,27,2025-06-04_19h02.09.402,Serial_Dependence_U,2023.2.3,Win32,59.52380952364454,,,,,,1289.6831999998092,358,1,1289.6835999999046,358,,,,1293.2805999999046,1293.7795999999046,1292.7637999999522,1293.2804999999998,1290.6991999998093,1292.7637999999522,1293.7798999998568,1294.2795999999046,1294.2796999998093,1298.213,3012,1298.2130999999044,5,1298.2145999999045,1,18,48,21,1,1,0.3,Time
,,920169,001,女,27,2025-06-04_19h02.09.402,Serial_Dependence_U,2023.2.3,Win32,59.52380952364454,,,,,,1298.2156999998092,12,1,1298.216,12,,,,1302.378899999857,1302.8784999999998,1301.862399999857,1302.3787999999522,1299.2289999999998,1301.8622999999523,1302.8785999999045,1303.3780999999046,1303.378199999809,1307.9112999999522,3648,1307.9112999999522,5,1307.9131999998092,1,19,49,29,1,1.6,0.7,Time
,,920169,001,女,27,2025-06-04_19h02.09.402,Serial_Dependence_U,2023.2.3,Win32,59.52380952364454,,,,,,1307.9140999999045,355,1,1307.9143999998569,355,,,,1311.6770000000001,1312.1765,1311.1605999999044,1311.6770000000001,1308.9276999998092,1311.1605,1312.1765999999047,1312.6765999999047,1312.6765999999047,1317.0265,3400,1317.0265999999046,5,1317.026899999857,1,20,50,17,1,1.2,0.7,Time
,,920169,001,女,27,2025-06-04_19h02.09.402,Serial_Dependence_U,2023.2.3,Win32,59.52380952364454,,,,,,1317.0285999999046,317,1,1317.029799999952,317,,,,1320.9935999999047,1321.4913999998566,1320.476,1320.9931999998093,1318.042699999809,1320.4758999998567,1321.4915999999043,1321.991699999809,1321.991799999952,1327.4249999999997,3595,1327.4250999999044,5,1327.4265,1,21,51,28,1,1.4,0.7,Time
,,920169,001,女,27,2025-06-04_19h02.09.402,Serial_Dependence_U,2023.2.3,Win32,59.52380952364454,,,,,,1327.4276999998092,308,1,1327.4279999999999,308,,,,1331.2240999999044,1331.7235999999048,1330.7075999999047,1331.2239999999997,1328.4411999998092,1330.7075,1331.723699999809,1332.2235,1332.2235999999048,1338.5562999999524,3599,1338.556799999952,5,1338.5583999998566,1,22,52,12,1,1.2,0.3,Time
,,920169,001,女,27,2025-06-04_19h02.09.402,Serial_Dependence_U,2023.2.3,Win32,59.52380952364454,,,,,,1338.558799999952,72,1,1338.5591999998092,72,,,,1342.355799999952,1342.8547999999523,1341.840199999809,1342.355799999952,1339.5726999998092,1341.8395999999047,1342.854899999857,1343.354899999857,1343.354899999857,1347.0547999999521,3387,1347.0556999998093,5,1347.0570999999045,1,23,53,22,1,1.2,0.3,Time
,,920169,001,女,27,2025-06-04_19h02.09.402,Serial_Dependence_U,2023.2.3,Win32,59.52380952364454,,,,,,1347.057399999857,74,1,1347.057899999857,74,,,,1351.2537999999522,1351.753299999952,1350.7373999998567,1351.2535999999045,1348.0715,1350.737299999952,1351.753299999952,1352.2535999999045,1352.2535999999045,1356.8534999999997,3646,1356.8535999999044,5,1356.855799999952,1,24,54,14,1,1.6,0.3,Time
,,920169,001,女,27,2025-06-04_19h02.09.402,Serial_Dependence_U,2023.2.3,Win32,59.52380952364454,,,,,,1356.8562999999522,326,1,1356.8566999998093,326,,,,1360.619299999952,1361.118699999809,1360.103299999952,1360.619199999809,1357.8697999999522,1360.1030999999043,1361.118699999809,1361.6185999999047,1361.618699999809,1366.0185000000001,3692,1366.0185999999044,5,1366.0195999999046,1,25,55,7,1,1.2,0.7,Time
,,920169,001,女,27,2025-06-04_19h02.09.402,Serial_Dependence_U,2023.2.3,Win32,59.52380952364454,,,,,,1366.020799999952,225,1,1366.0211999998091,225,,,,1370.0177999999523,1370.5170999999045,1369.5011999998092,1370.0176999998093,1367.0348999998569,1369.5010999999045,1370.5170999999045,1371.0170999999045,1371.0170999999045,1375.900299999952,3445,1375.9004999999997,5,1375.9023999998567,1,26,56,23,1,1.4,0.3,Time
,,920169,001,女,27,2025-06-04_19h02.09.402,Serial_Dependence_U,2023.2.3,Win32,59.52380952364454,,,,,,1375.9029999999998,298,1,1375.903399999857,298,,,,1379.2495999999046,1379.7489999999998,1378.7331999998091,1379.2495,1376.9,1378.7329999999997,1379.7490999999045,1380.2489999999998,1380.2490999999045,1384.8321999998093,2940,1384.8322999999523,5,1384.8334999999997,1,27,57,15,1,0.8,0.7,Time
,,920169,001,女,27,2025-06-04_19h02.09.402,Serial_Dependence_U,2023.2.3,Win32,59.52380952364454,,,,,,1384.834899999857,97,1,1384.835199999809,97,,,,1388.8307999999524,1389.3308999998567,1388.3147999999524,1388.8307999999524,1385.848399999857,1388.3146999998094,1389.3310000000001,1389.8308999998567,1389.8310000000001,1394.0307999999523,3576,1394.0315,5,1394.033,1,28,58,3,1,1.4,0.3,Time
,,920169,001,女,27,2025-06-04_19h02.09.402,Serial_Dependence_U,2023.2.3,Win32,59.52380952364454,,,,,,1394.0332999999523,107,1,1394.0335999999047,107,,,,1397.5960999999047,1398.095899999857,1397.0800999999046,1397.596,1395.046899999857,1397.08,1398.096,1398.595899999857,1398.596,1403.9955999999047,3333,1403.9955999999047,5,1403.9965999999044,1,29,59,16,1,1,0.7,Time
,,920169,001,女,27,2025-06-04_19h02.09.402,Serial_Dependence_U,2023.2.3,Win32,59.52380952364454,,,,,,1403.998,199,2,1412.4101999998093,199,s,8.386200000047666,,1416.1770000000001,1416.676,1415.660399999857,1416.1770000000001,1413.4268999998567,1415.6601999998093,1416.6760999999046,1417.1762999999523,1417.1762999999523,1421.0756999998093,3540,1421.0757999999523,5,1421.077899999857,2,0,60,27,1,1.2,0.7,Time
,,920169,001,女,27,2025-06-04_19h02.09.402,Serial_Dependence_U,2023.2.3,Win32,59.52380952364454,,,,,,1421.0785999999043,5,2,1421.0802999999523,5,,,,1425.042,1425.5414999999998,1424.5278999998568,1425.041899999857,1422.092,1424.527799999952,1425.5415999999045,1426.0412999999521,1426.0413999998568,1430.1407999999524,3586,1430.140899999857,5,1430.1418999998568,2,1,61,28,1,1.4,0.7,Time
,,920169,001,女,27,2025-06-04_19h02.09.402,Serial_Dependence_U,2023.2.3,Win32,59.52380952364454,,,,,,1430.1432999999524,87,2,1430.143699999809,87,,,,1433.7072999999523,1434.2065999999045,1433.190699999809,1433.7070999999046,1431.1575999999045,1433.190699999809,1434.2065999999045,1434.7067999999522,1434.706899999857,1439.2733999998568,3464,1439.2736999998092,5,1439.2759999999998,2,2,62,6,1,1,0.7,Time
,,920169,001,女,27,2025-06-04_19h02.09.402,Serial_Dependence_U,2023.2.3,Win32,59.52380952364454,,,,,,1439.276399999857,84,2,1439.2767999999523,84,,,,1443.2725,1443.7715999999045,1442.7558999998569,1443.2725,1440.2894999999999,1442.7557999999522,1443.7716999998092,1444.2713999998568,1444.2714999999998,1448.7215999999044,3803,1448.7215999999044,5,1448.7226999998093,2,3,63,23,1,1.4,0.3,Time
,,920169,001,女,27,2025-06-04_19h02.09.402,Serial_Dependence_U,2023.2.3,Win32,59.52380952364454,,,,,,1448.7240999999044,225,2,1448.7243999998568,225,,,,1452.321,1452.820299999952,1451.804199999809,1452.320899999857,1449.7378999998568,1451.804199999809,1452.8203999998568,1453.3201999998091,1453.320299999952,1457.1709999999998,3176,1457.1715999999046,5,1457.1725999999044,2,4,64,21,1,1,0.3,Time
,,920169,001,女,27,2025-06-04_19h02.09.402,Serial_Dependence_U,2023.2.3,Win32,59.52380952364454,,,,,,1457.1729999999998,284,2,1457.1732999999522,284,,,,1461.3360999999045,1461.835199999809,1460.8191999998094,1461.3359999999998,1458.1866999998092,1460.8190999999047,1461.835199999809,1462.3352999999524,1462.3353999998567,1466.2520999999047,3709,1466.2520999999047,5,1466.254699999809,2,5,65,9,1,1.6,0.7,Time
,,920169,001,女,27,2025-06-04_19h02.09.402,Serial_Dependence_U,2023.2.3,Win32,59.52380952364454,,,,,,1466.2550999999044,311,2,1466.2553999998568,311,,,,1469.8179999999998,1470.3172999999524,1469.3012999999523,1469.8178999998568,1467.2683999998567,1469.3012999999523,1470.3173999998567,1470.8172999999524,1470.8173999998567,1477.716699999809,3374,1477.7167999999524,5,1477.7182999999523,2,6,66,16,1,1,0.7,Time
,,920169,001,女,27,2025-06-04_19h02.09.402,Serial_Dependence_U,2023.2.3,Win32,59.52380952364454,,,,,,1477.7190999999048,219,2,1477.7194999999997,219,,,,1481.5160999999043,1482.0155,1480.9995999999046,1481.516,1478.7331999998091,1480.9995,1482.0155999999047,1482.516199999809,1482.516299999952,1486.5486999998093,3502,1486.5487999999523,5,1486.5498999998567,2,7,67,22,1,1.2,0.3,Time
,,920169,001,女,27,2025-06-04_19h02.09.402,Serial_Dependence_U,2023.2.3,Win32,59.52380952364454,,,,,,1486.5511999998093,90,2,1486.5515999999047,90,,,,1490.5146999998092,1491.013699999809,1489.997899999857,1490.5145999999045,1487.565,1489.9977999999523,1491.013699999809,1491.5140999999044,1491.514199999809,1496.3136999998092,3728,1496.3136999998092,5,1496.3146999998094,2,8,68,18,1,1.4,0.7,Time
,,920169,001,女,27,2025-06-04_19h02.09.402,Serial_Dependence_U,2023.2.3,Win32,59.52380952364454,,,,,,1496.3160999999045,344,2,1496.3165999999046,344,,,,1500.1130999999045,1500.612,1499.5965999999044,1500.1128999998568,1497.3295999999045,1499.5965,1500.612,1501.1125999999044,1501.1126999998091,1505.3455,3474,1505.3455999999046,5,1505.3474999999999,2,9,69,2,1,1.2,0.3,Time
,,920169,001,女,27,2025-06-04_19h02.09.402,Serial_Dependence_U,2023.2.3,Win32,59.52380952364454,,,,,,1505.3480999999047,215,2,1505.348399999857,215,,,,1509.5124999999998,1510.011,1508.9950999999046,1509.5118999998567,1506.362,1508.995,1510.011,1510.511,1510.5110999999047,1516.0937999999524,3530,1516.093899999857,5,1516.094699999809,2,10,70,19,1,1.6,0.7,Time
,,920169,001,女,27,2025-06-04_19h02.09.402,Serial_Dependence_U,2023.2.3,Win32,59.52380952364454,,,,,,1516.096199999809,172,2,1516.096699999809,172,,,,1519.4765999999045,1519.9757999999524,1518.96,1519.4764999999998,1517.0935999999047,1518.96,1519.9757999999524,1520.4757999999524,1520.4757999999524,1524.3424999999997,3129,1524.3425999999045,5,1524.3440999999048,2,11,71,20,1,0.8,0.3,Time
,,920169,001,女,27,2025-06-04_19h02.09.402,Serial_Dependence_U,2023.2.3,Win32,59.52380952364454,,,,,,1524.3450999999045,137,2,1524.3455,137,,,,1528.5415999999045,1529.0409999999997,1528.0253999998567,1528.5414999999998,1525.3590999999046,1528.025299999952,1529.0409999999997,1529.5409999999997,1529.5410999999044,1534.2574999999997,3511,1534.2575999999044,5,1534.2595000000001,2,12,72,24,1,1.6,0.3,Time
,,920169,001,女,27,2025-06-04_19h02.09.402,Serial_Dependence_U,2023.2.3,Win32,59.52380952364454,,,,,,1534.2603999998569,339,2,1534.2606999998093,339,,,,1537.656399999857,1538.156,1537.1399999999999,1537.6562999999524,1535.273899999857,1537.1398999998569,1538.156,1538.6560999999047,1538.6561999998094,1543.0225,3099,1543.0225999999047,5,1543.023199999809,2,13,73,0,1,0.8,0.3,Time
,,920169,001,女,27,2025-06-04_19h02.09.402,Serial_Dependence_U,2023.2.3,Win32,59.52380952364454,,,,,,1543.0248999998566,175,2,1543.0253999998567,175,,,,1546.8215999999047,1547.3215,1546.3050999999045,1546.8215,1544.0391999998092,1546.3050999999045,1547.3215999999047,1547.8211999998093,1547.8212999999523,1551.9712999999524,3502,1551.9713999998567,5,1551.9723999998569,2,14,74,12,1,1.2,0.3,Time
,,920169,001,女,27,2025-06-04_19h02.09.402,Serial_Dependence_U,2023.2.3,Win32,59.52380952364454,,,,,,1551.973799999952,91,2,1551.974299999952,91,,,,1555.5371999998092,1556.036799999952,1555.020799999952,1555.5370999999045,1552.9876999998091,1555.020699999809,1556.036799999952,1556.5366999998091,1556.536799999952,1560.7366999998094,2910,1560.7368999998566,5,1560.7381999998092,2,15,75,26,1,1,0.7,Time
,,920169,001,女,27,2025-06-04_19h02.09.402,Serial_Dependence_U,2023.2.3,Win32,59.52380952364454,,,,,,1560.739199999809,39,2,1560.7395000000001,39,,,,1564.7024999999999,1565.201799999952,1564.1858999998567,1564.7023999998569,1561.7529999999997,1564.1857999999525,1565.201799999952,1565.701799999952,1565.7018999998568,1569.6851999998094,3346,1569.6852999999523,5,1569.686899999857,2,16,76,8,1,1.4,0.7,Time
,,920169,001,女,27,2025-06-04_19h02.09.402,Serial_Dependence_U,2023.2.3,Win32,59.52380952364454,,,,,,1569.6877999999524,257,2,1569.6880999999044,257,,,,1573.451,1573.950399999857,1572.9345999999045,1573.450899999857,1570.7021999998092,1572.9344999999998,1573.9505,1574.4502999999522,1574.4502999999522,1578.4668999998567,3317,1578.467,5,1578.4680999999046,2,17,77,7,1,1.2,0.7,Time
,,920169,001,女,27,2025-06-04_19h02.09.402,Serial_Dependence_U,2023.2.3,Win32,59.52380952364454,,,,,,1578.4693999998567,89,2,1578.4695999999044,89,,,,1581.8330999999043,1582.3320999999046,1581.3159999999998,1581.833,1579.4833999998568,1581.3159999999998,1582.3320999999046,1582.831899999857,1582.8319999999999,1586.698899999857,3054,1586.699,5,1586.6997999999521,2,18,78,5,1,0.8,0.7,Time
,,920169,001,女,27,2025-06-04_19h02.09.402,Serial_Dependence_U,2023.2.3,Win32,59.52380952364454,,,,,,1586.701199999809,224,2,1586.7015999999044,224,,,,1590.2978999998568,1590.797699999809,1589.7820999999044,1590.297799999952,1587.7155999999045,1589.7819999999997,1590.797799999952,1591.2973999998567,1591.2975000000001,1599.079899999857,2918,1599.08,5,1599.081899999857,2,19,79,11,1,1,0.3,Time
,,920169,001,女,27,2025-06-04_19h02.09.402,Serial_Dependence_U,2023.2.3,Win32,59.52380952364454,,,,,,1599.0825999999047,10,2,1599.0828999998566,10,,,,1603.0795999999045,1603.5793999998568,1602.563,1603.0795999999045,1600.096199999809,1602.5628999998567,1603.5793999998568,1604.0790999999044,1604.0791999998091,1609.278399999857,4065,1609.2785999999046,5,1609.2795,2,20,80,3,1,1.4,0.3,Time
,,920169,001,女,27,2025-06-04_19h02.09.402,Serial_Dependence_U,2023.2.3,Win32,59.52380952364454,,,,,,1609.280899999857,39,2,1609.2812999999524,39,,,,1612.8778999998567,1613.3771999998094,1612.3615,1612.877799999952,1610.2953999998567,1612.3612999999523,1613.377399999857,1613.8771999998094,1613.8771999998094,1617.810399999857,3883,1617.8105,5,1617.8115999999045,2,21,81,1,1,1,0.3,Time
,,920169,001,女,27,2025-06-04_19h02.09.402,Serial_Dependence_U,2023.2.3,Win32,59.52380952364454,,,,,,1617.8128999998567,101,2,1617.813199999809,101,,,,1622.0095999999044,1622.509,1621.4930999999046,1622.0095999999044,1618.8273999998569,1621.493,1622.509199999809,1623.009,1623.0090999999047,1627.3255999999046,3820,1627.3255999999046,5,1627.326799999952,2,22,82,14,1,1.6,0.3,Time
,,920169,001,女,27,2025-06-04_19h02.09.402,Serial_Dependence_U,2023.2.3,Win32,59.52380952364454,,,,,,1627.328,80,2,1627.328399999857,80,,,,1630.6748999998567,1631.1743999998566,1630.1585,1630.6748999998567,1628.325399999857,1630.158399999857,1631.1745,1631.674799999952,1631.674799999952,1636.007299999952,3649,1636.0074999999997,5,1636.0100999999045,2,23,83,15,1,0.8,0.7,Time
,,920169,001,女,27,2025-06-04_19h02.09.402,Serial_Dependence_U,2023.2.3,Win32,59.52380952364454,,,,,,1636.0103999998569,270,2,1636.0106999998093,270,,,,1640.1734999999999,1640.6729999999998,1639.6569999999997,1640.1732999999522,1637.023899999857,1639.6568999998567,1640.6730999999045,1641.172799999952,1641.1730999999045,1646.1723999998567,4167,1646.1723999998567,5,1646.1733999998569,2,24,84,29,1,1.6,0.7,Time
,,920169,001,女,27,2025-06-04_19h02.09.402,Serial_Dependence_U,2023.2.3,Win32,59.52380952364454,,,,,,1646.1748999998567,6,2,1646.1753999998568,6,,,,1650.3718999998569,1650.8713999998567,1649.8552999999524,1650.3717999999521,1647.1890999999046,1649.8550999999047,1650.8713999998567,1651.371199999809,1651.371299999952,1656.154199999809,4102,1656.154199999809,5,1656.1550999999045,2,25,85,4,1,1.6,0.3,Time
,,920169,001,女,27,2025-06-04_19h02.09.402,Serial_Dependence_U,2023.2.3,Win32,59.52380952364454,,,,,,1656.1565999999048,222,2,1656.1569999999997,222,,,,1659.9200999999043,1660.4195,1659.4036999998093,1659.9200999999043,1657.1565,1659.4035999999046,1660.4195999999047,1660.9197999999524,1660.919899999857,1665.3693999998568,3713,1665.3693999998568,5,1665.3714999999997,2,26,86,17,1,1.2,0.7,Time
,,920169,001,女,27,2025-06-04_19h02.09.402,Serial_Dependence_U,2023.2.3,Win32,59.52380952364454,,,,,,1665.3719999999998,331,2,1665.3722999999522,331,,,,1668.768199999809,1669.267899999857,1668.2516999998093,1668.7680999999047,1666.386,1668.2514999999999,1669.268,1669.7680999999047,1669.768199999809,1673.7848999998569,3319,1673.7851999998093,5,1673.7870999999045,2,27,87,10,1,0.8,0.3,Time
,,920169,001,女,27,2025-06-04_19h02.09.402,Serial_Dependence_U,2023.2.3,Win32,59.52380952364454,,,,,,1673.7875999999046,213,2,1673.7877999999523,213,,,,1677.1506999998091,1677.6498999998566,1676.6342999999524,1677.1505999999044,1674.8012999999523,1676.634199999809,1677.6498999998566,1678.1500999999043,1678.1500999999043,1687.3489999999997,3431,1687.3489999999997,5,1687.35,2,28,88,25,1,0.8,0.7,Time
,,920169,001,女,27,2025-06-04_19h02.09.402,Serial_Dependence_U,2023.2.3,Win32,59.52380952364454,,,,,,1687.3513999998568,210,2,1687.3517999999522,210,,,,1691.3316999998092,1691.831199999809,1690.815199999809,1691.3316999998092,1688.351199999809,1690.8150999999048,1691.831299999952,1692.3310999999044,1692.331199999809,1696.5475000000001,3920,1696.5475999999044,5,1696.5485999999046,2,29,89,13,1,1.4,0.3,Time
,,920169,001,女,27,2025-06-04_19h02.09.402,Serial_Dependence_U,2023.2.3,Win32,59.52380952364454,,,,,,1696.5498999998567,26,3,1735.290699999809,26,s,38.72109999990471,,1739.4904999999999,1739.989799999952,1738.9735,1739.4904999999999,1736.3075,1738.973399999857,1739.9898999998568,1740.4893999998567,1740.4893999998567,1745.1395999999045,3946,1745.1396999998092,5,1745.1406999998094,3,0,90,24,1,1.6,0.3,Time
,,920169,001,女,27,2025-06-04_19h02.09.402,Serial_Dependence_U,2023.2.3,Win32,59.52380952364454,,,,,,1745.1487999999522,186,3,1745.150199999809,186,,,,1749.3049999999998,1749.8044999999997,1748.7885999999044,1749.3049999999998,1746.1556999998093,1748.7885,1749.8045999999044,1750.3044999999997,1750.3044999999997,1756.4540999999044,4118,1756.4547999999522,5,1756.4566999998092,3,1,91,9,1,1.6,0.7,Time
,,920169,001,女,27,2025-06-04_19h02.09.402,Serial_Dependence_U,2023.2.3,Win32,59.52380952364454,,,,,,1756.4569999999999,197,3,1756.4576999998094,197,,,,1760.2198999998568,1760.7194999999997,1759.703399999857,1760.219799999952,1757.470399999857,1759.7032999999524,1760.7194999999997,1761.2194999999997,1761.2194999999997,1768.7357999999522,3798,1768.7357999999522,5,1768.7368999998566,3,2,92,7,1,1.2,0.7,Time
,,920169,001,女,27,2025-06-04_19h02.09.402,Serial_Dependence_U,2023.2.3,Win32,59.52380952364454,,,,,,1768.7380999999045,167,3,1768.7385,167,,,,1772.1016999998092,1772.601199999809,1771.5850999999047,1772.1015999999045,1769.7520999999047,1771.584899999857,1772.601199999809,1773.101,1773.101199999809,1781.0504999999998,3035,1781.0504999999998,5,1781.0517999999524,3,3,93,15,1,0.8,0.7,Time
,,920169,001,女,27,2025-06-04_19h02.09.402,Serial_Dependence_U,2023.2.3,Win32,59.52380952364454,,,,,,1781.0532999999523,159,3,1781.0535999999047,159,,,,1785.016299999952,1785.515399999857,1784.4997999999523,1785.016299999952,1782.066399999857,1784.4996999998093,1785.515399999857,1786.0152999999523,1786.0152999999523,1790.933,3552,1790.9335,5,1790.9342999999521,3,4,94,18,1,1.4,0.7,Time
,,920169,001,女,27,2025-06-04_19h02.09.402,Serial_Dependence_U,2023.2.3,Win32,59.52380952364454,,,,,,1790.9346999998093,216,3,1790.935,216,,,,1794.3315999999045,1794.8308999998567,1793.8162999999522,1794.3313999998568,1791.9486999998094,1793.815799999952,1794.8310000000001,1795.3308999998567,1795.3310000000001,1800.0304999999998,3266,1800.0304999999998,5,1800.031399999857,3,5,95,10,1,0.8,0.3,Time
,,920169,001,女,27,2025-06-04_19h02.09.402,Serial_Dependence_U,2023.2.3,Win32,59.52380952364454,,,,,,1800.032899999857,156,3,1800.0332999999523,156,,,,1804.1965,1804.6956999998092,1803.6798999998568,1804.196399999857,1801.046899999857,1803.6797999999521,1804.6956999998092,1805.1955999999045,1805.1957999999522,1810.4449999999997,4024,1810.4450999999044,5,1810.446399999857,3,6,96,29,1,1.6,0.7,Time
,,920169,001,女,27,2025-06-04_19h02.09.402,Serial_Dependence_U,2023.2.3,Win32,59.52380952364454,,,,,,1810.4475999999045,196,3,1810.4478999998569,196,,,,1814.044399999857,1814.5437999999522,1813.527799999952,1814.0442999999523,1811.461399999857,1813.527699999809,1814.5437999999522,1815.0437999999522,1815.0438999998569,1821.745399999857,3343,1821.7455999999047,5,1821.746,3,7,97,1,1,1,0.3,Time
,,920169,001,女,27,2025-06-04_19h02.09.402,Serial_Dependence_U,2023.2.3,Win32,59.52380952364454,,,,,,1821.7464999999997,333,3,1821.7467999999521,333,,,,1825.542399999857,1826.0422999999523,1825.026399999857,1825.5422999999523,1822.7600999999045,1825.0262999999522,1826.042399999857,1826.5422999999523,1826.542399999857,1830.6086999998092,3425,1830.609399999857,5,1830.6110999999046,3,8,98,2,1,1.2,0.3,Time
,,920169,001,女,27,2025-06-04_19h02.09.402,Serial_Dependence_U,2023.2.3,Win32,59.52380952364454,,,,,,1830.6115,38,3,1830.6117999999524,38,,,,1834.1748999998567,1834.6742999999524,1833.658399999857,1834.174699999809,1831.6252999999524,1833.6582999999523,1834.6742999999524,1835.173899999857,1835.173899999857,1841.1736999998093,3226,1841.1737999999523,5,1841.1745999999043,3,9,99,26,1,1,0.7,Time
,,920169,001,女,27,2025-06-04_19h02.09.402,Serial_Dependence_U,2023.2.3,Win32,59.52380952364454,,,,,,1841.1760999999046,111,3,1841.1765999999047,111,,,,1845.3732999999525,1845.8734999999997,1844.856899999857,1845.3730999999048,1842.190199999809,1844.8562999999522,1845.8734999999997,1846.372899999857,1846.373,1853.5385,4270,1853.5385,5,1853.5395999999046,3,10,100,4,1,1.6,0.3,Time
,,920169,001,女,27,2025-06-04_19h02.09.402,Serial_Dependence_U,2023.2.3,Win32,59.52380952364454,,,,,,1853.5408999998567,302,3,1853.5412999999521,302,,,,1857.4870999999043,1857.9870999999043,1856.971199999809,1857.4870999999043,1854.538199999809,1856.971199999809,1857.9870999999043,1858.487,1858.4870999999043,1867.769399999857,3996,1867.7694999999999,5,1867.7702999999524,3,11,101,8,1,1.4,0.7,Time
,,920169,001,女,27,2025-06-04_19h02.09.402,Serial_Dependence_U,2023.2.3,Win32,59.52380952364454,,,,,,1867.772,243,3,1867.7722999999523,243,,,,1871.752,1872.2510999999045,1871.2354999999998,1871.751899999857,1868.7691999998092,1871.2353999998568,1872.2510999999045,1872.7513999998569,1872.7514999999999,1878.134,3855,1878.1340999999047,5,1878.136,3,12,102,13,1,1.4,0.3,Time
,,920169,001,女,27,2025-06-04_19h02.09.402,Serial_Dependence_U,2023.2.3,Win32,59.52380952364454,,,,,,1878.136699999809,157,3,1878.1369999999997,157,,,,1881.533699999809,1882.033,1881.0172999999522,1881.533699999809,1879.1509999999998,1881.0170999999045,1882.0331999998093,1882.533,1882.5330999999046,1886.5330999999046,3233,1886.5330999999046,5,1886.534299999952,3,13,103,0,1,0.8,0.3,Time
,,920169,001,女,27,2025-06-04_19h02.09.402,Serial_Dependence_U,2023.2.3,Win32,59.52380952364454,,,,,,1886.536,86,3,1886.536299999952,86,,,,1890.5155,1891.0151999998093,1889.9990999999045,1890.515399999857,1887.533,1889.9989999999998,1891.0151999998093,1891.5148999998569,1891.5149999999999,1895.5814999999998,3859,1895.5815999999045,5,1895.5825999999047,3,14,104,23,1,1.4,0.3,Time
,,920169,001,女,27,2025-06-04_19h02.09.402,Serial_Dependence_U,2023.2.3,Win32,59.52380952364454,,,,,,1895.5838999998568,66,3,1895.5842999999522,66,,,,1899.3473999998569,1899.8465999999044,1898.8308999998567,1899.3473999998569,1896.598,1898.8307999999524,1899.846699999809,1900.3470999999045,1900.3471999998092,1904.2134999999998,3624,1904.2134999999998,5,1904.214699999809,3,15,105,27,1,1.2,0.7,Time
,,920169,001,女,27,2025-06-04_19h02.09.402,Serial_Dependence_U,2023.2.3,Win32,59.52380952364454,,,,,,1904.2157999999522,130,3,1904.2162999999523,130,,,,1907.995699999809,1908.495699999809,1907.4790999999045,1907.9955,1905.2134999999998,1907.4789999999998,1908.495699999809,1908.9960999999043,1908.996199999809,1912.9786999998091,3816,1912.9786999998091,5,1912.9797999999523,3,16,106,22,1,1.2,0.3,Time
,,920169,001,女,27,2025-06-04_19h02.09.402,Serial_Dependence_U,2023.2.3,Win32,59.52380952364454,,,,,,1912.9810999999045,324,3,1912.9816999998093,324,,,,1916.544899999857,1917.0437999999522,1916.0282999999522,1916.5447999999524,1913.9946999998092,1916.0280999999045,1917.0438999998569,1917.5441999998093,1917.5442999999523,1921.5106999998093,3234,1921.5106999998093,5,1921.5118999998567,3,17,107,6,1,1,0.7,Time
,,920169,001,女,27,2025-06-04_19h02.09.402,Serial_Dependence_U,2023.2.3,Win32,59.52380952364454,,,,,,1921.513399999857,18,3,1921.5137999999524,18,,,,1925.2930999999044,1925.792699999809,1924.777,1925.2930000000001,1922.5103999998569,1924.776899999857,1925.792699999809,1926.292699999809,1926.2927999999524,1931.8420999999043,3749,1931.8420999999043,5,1931.8430999999046,3,18,108,12,1,1.2,0.3,Time
,,920169,001,女,27,2025-06-04_19h02.09.402,Serial_Dependence_U,2023.2.3,Win32,59.52380952364454,,,,,,1931.8444999999997,343,3,1931.8448999998568,343,,,,1935.241799999952,1935.740899999857,1934.7266999998092,1935.241799999952,1932.8586999998092,1934.7260999999044,1935.740899999857,1936.2411999998094,1936.2412999999524,1939.8407999999522,3362,1939.840899999857,5,1939.842,3,19,109,20,1,0.8,0.3,Time
,,920169,001,女,27,2025-06-04_19h02.09.402,Serial_Dependence_U,2023.2.3,Win32,59.52380952364454,,,,,,1939.8435,329,3,1939.8437999999524,329,,,,1943.4068999998567,1943.906399999857,1942.8898999998569,1943.406799999952,1940.857399999857,1942.8898999998569,1943.9065,1944.4062999999524,1944.406399999857,1949.0393999998569,3275,1949.0394999999999,5,1949.0405999999043,3,20,110,16,1,1,0.7,Time
,,920169,001,女,27,2025-06-04_19h02.09.402,Serial_Dependence_U,2023.2.3,Win32,59.52380952364454,,,,,,1949.041899999857,144,3,1949.0422999999523,144,,,,1953.2052999999523,1953.7046999998092,1952.6885999999045,1953.2052999999523,1950.055399999857,1952.6885999999045,1953.7047999999522,1954.2046999998092,1954.2046999998092,1958.4045999999043,3878,1958.4045999999043,5,1958.405899999857,3,21,111,19,1,1.6,0.7,Time
,,920169,001,女,27,2025-06-04_19h02.09.402,Serial_Dependence_U,2023.2.3,Win32,59.52380952364454,,,,,,1958.4070999999044,155,3,1958.4074999999998,155,,,,1961.770699999809,1962.2700999999047,1961.2536999998092,1961.770699999809,1959.4209999999998,1961.2534999999998,1962.2701999998094,1962.77,1962.77,1966.4527999999523,3317,1966.4527999999523,5,1966.4540999999044,3,22,112,5,1,0.8,0.7,Time
,,920169,001,女,27,2025-06-04_19h02.09.402,Serial_Dependence_U,2023.2.3,Win32,59.52380952364454,,,,,,1966.4555,172,3,1966.4558999998567,172,,,,1970.4190999999046,1970.9186999998092,1969.9028999998568,1970.4189999999999,1967.469699999809,1969.902799999952,1970.9187999999522,1971.4186999998092,1971.4187999999522,1975.7702999999524,3776,1975.7703999998566,5,1975.770799999952,3,23,113,28,1,1.4,0.7,Time
,,920169,001,女,27,2025-06-04_19h02.09.402,Serial_Dependence_U,2023.2.3,Win32,59.52380952364454,,,,,,1975.7710999999044,277,3,1975.7713999998568,277,,,,1979.534299999952,1980.0338999998567,1979.0175,1979.534199999809,1976.7849999999999,1979.017399999857,1980.0338999998567,1980.533699999809,1980.5337999999524,1984.3335999999044,3505,1984.3336999998091,5,1984.3354999999997,3,24,114,17,1,1.2,0.7,Time
,,920169,001,女,27,2025-06-04_19h02.09.402,Serial_Dependence_U,2023.2.3,Win32,59.52380952364454,,,,,,1984.3361999998092,116,3,1984.3366999998093,116,,,,1988.3328999998566,1988.8322999999523,1987.816399999857,1988.3327999999524,1985.350399999857,1987.8161999998092,1988.832399999857,1989.3326999998094,1989.3326999998094,1996.0981999998094,3816,1996.0982999999524,5,1996.099299999952,3,25,115,3,1,1.4,0.3,Time
,,920169,001,女,27,2025-06-04_19h02.09.402,Serial_Dependence_U,2023.2.3,Win32,59.52380952364454,,,,,,1996.1008999998567,56,3,1996.101299999952,56,,,,1999.4642999999523,1999.9635999999045,1998.9478999998569,1999.4642999999523,1997.114799999952,1998.9477999999522,1999.9635999999045,2000.4636999998093,2000.463899999857,2007.9297999999521,3255,2007.9298999998568,5,2007.931699999809,3,26,116,25,1,0.8,0.7,Time
,,920169,001,女,27,2025-06-04_19h02.09.402,Serial_Dependence_U,2023.2.3,Win32,59.52380952364454,,,,,,2007.932399999857,158,3,2007.9327999999523,158,,,,2011.529199999809,2012.0285999999046,2011.0125999999045,2011.529199999809,2008.9460999999046,2011.0123999998568,2012.0285999999046,2012.5285999999046,2012.5285999999046,2017.0111999998094,3641,2017.0112999999524,5,2017.0131999998093,3,27,117,21,1,1,0.3,Time
,,920169,001,女,27,2025-06-04_19h02.09.402,Serial_Dependence_U,2023.2.3,Win32,59.52380952364454,,,,,,2017.013699999809,162,3,2017.0140999999044,162,,,,2020.6108999998569,2021.1104999999998,2020.094299999952,2020.6108999998569,2018.0278999998568,2020.094199999809,2021.1104999999998,2021.6100999999044,2021.610199999809,2025.6601999998093,3478,2025.6601999998093,5,2025.6610999999048,3,28,118,11,1,1,0.3,Time
,,920169,001,女,27,2025-06-04_19h02.09.402,Serial_Dependence_U,2023.2.3,Win32,59.52380952364454,,,,,,2025.6625,15,3,2025.662899999857,15,,,,2029.8590999999046,2030.358899999857,2029.3428999998569,2029.859,2026.677199999809,2029.3428999998569,2030.359,2030.8586999998092,2030.8587999999522,2035.4082999999523,4023,2035.4085,5,2035.4107999999524,3,29,119,14,1,1.6,0.3,Time
,,920169,001,女,27,2025-06-04_19h02.09.402,Serial_Dependence_U,2023.2.3,Win32,59.52380952364454,,,,,,2035.4110999999048,38,4,2322.9945,38,s,287.565299999952,,2326.360299999952,2326.8605,2325.844299999952,2326.360199999809,2324.0110999999047,2325.844199999809,2326.8605,2327.360299999952,2327.360399999857,2332.0098999998568,3231,2332.0099999999998,5,2332.0115,4,0,120,25,1,0.8,0.7,Time
,,920169,001,女,27,2025-06-04_19h02.09.402,Serial_Dependence_U,2023.2.3,Win32,59.52380952364454,,,,,,2332.0125,269,4,2332.0140999999044,269,,,,2335.576,2336.0751999998092,2335.059299999952,2335.5757999999523,2333.0262999999522,2335.059199999809,2336.075299999952,2336.5751999998092,2336.575399999857,2340.8415999999047,3533,2340.841699999809,5,2340.843399999857,4,1,121,26,1,1,0.7,Time
,,920169,001,女,27,2025-06-04_19h02.09.402,Serial_Dependence_U,2023.2.3,Win32,59.52380952364454,,,,,,2340.8440999999048,94,4,2340.8443999998567,94,,,,2345.0073999998567,2345.5067999999524,2344.4911999998094,2345.007299999952,2341.858199999809,2344.4911999998094,2345.5067999999524,2346.0066999998094,2346.0066999998094,2351.1900999999048,3982,2351.1900999999048,5,2351.191,4,2,122,9,1,1.6,0.7,Time
,,920169,001,女,27,2025-06-04_19h02.09.402,Serial_Dependence_U,2023.2.3,Win32,59.52380952364454,,,,,,2351.1925,75,4,2351.192799999952,75,,,,2355.1892999999523,2355.6885999999045,2354.672899999857,2355.1891999998093,2352.206699999809,2354.672799999952,2355.688799999952,2356.188699999809,2356.188899999857,2368.170899999857,4049,2368.171299999952,5,2368.173,4,3,123,3,1,1.4,0.3,Time
,,920169,001,女,27,2025-06-04_19h02.09.402,Serial_Dependence_U,2023.2.3,Win32,59.52380952364454,,,,,,2368.173399999857,302,4,2368.1736999998093,302,,,,2371.769899999857,2372.269399999857,2371.253399999857,2371.769899999857,2369.1871999998093,2371.253399999857,2372.269399999857,2372.769299999952,2372.769399999857,2394.285,3503,2394.2851999998093,5,2394.2856999998094,4,4,124,1,1,1,0.3,Time
,,920169,001,女,27,2025-06-04_19h02.09.402,Serial_Dependence_U,2023.2.3,Win32,59.52380952364454,,,,,,2394.286,258,4,2394.286299999952,258,,,,2398.049,2398.548299999952,2397.5325,2398.048899999857,2395.2995,2397.532399999857,2398.548399999857,2399.048199999809,2399.048299999952,2402.814899999857,3499,2402.815,5,2402.815899999857,4,5,125,7,1,1.2,0.7,Time
,,920169,001,女,27,2025-06-04_19h02.09.402,Serial_Dependence_U,2023.2.3,Win32,59.52380952364454,,,,,,2402.8173999998567,123,4,2402.817699999809,123,,,,2407.0138999998567,2407.5135,2406.4975,2407.013699999809,2403.831199999809,2406.497399999857,2407.5135,2408.0131999998093,2408.0132999999523,2412.6968999998567,4207,2412.6968999998567,5,2412.699,4,6,126,4,1,1.6,0.3,Time
,,920169,001,女,27,2025-06-04_19h02.09.402,Serial_Dependence_U,2023.2.3,Win32,59.52380952364454,,,,,,2412.6993999998567,215,4,2412.6995999999044,215,,,,2416.062699999809,2416.561899999857,2415.545699999809,2416.0625999999047,2413.712799999952,2415.545699999809,2416.561899999857,2417.061699999809,2417.061699999809,2420.945299999952,3052,2420.945299999952,5,2420.9461999998093,4,7,127,15,1,0.8,0.7,Time
,,920169,001,女,27,2025-06-04_19h02.09.402,Serial_Dependence_U,2023.2.3,Win32,59.52380952364454,,,,,,2420.947899999857,149,4,2420.9481999998093,149,,,,2424.5446999998094,2425.0441999998093,2424.028399999857,2424.5445999999047,2421.9616999998093,2424.028299999952,2425.0441999998093,2425.543899999857,2425.543899999857,2430.327399999857,3364,2430.3277999999523,5,2430.3295999999045,4,8,128,21,1,1,0.3,Time
,,920169,001,女,27,2025-06-04_19h02.09.402,Serial_Dependence_U,2023.2.3,Win32,59.52380952364454,,,,,,2430.329899999857,180,4,2430.3301999998093,180,,,,2434.109699999809,2434.6091999998093,2433.5931999998093,2434.1095999999047,2431.3269999999998,2433.593,2434.6091999998093,2435.1091999998093,2435.1091999998093,2440.3920999999045,3693,2440.3921999998092,5,2440.3935999999044,4,9,129,2,1,1.2,0.3,Time
,,920169,001,女,27,2025-06-04_19h02.09.402,Serial_Dependence_U,2023.2.3,Win32,59.52380952364454,,,,,,2440.394899999857,81,4,2440.3951999998094,81,,,,2444.5911999998093,2445.090699999809,2444.0743999998567,2444.5911999998093,2441.408,2444.074299999952,2445.090699999809,2445.590799999952,2445.590799999952,2450.1575,3995,2450.1580999999046,5,2450.1593999998568,4,10,130,24,1,1.6,0.3,Time
,,920169,001,女,27,2025-06-04_19h02.09.402,Serial_Dependence_U,2023.2.3,Win32,59.52380952364454,,,,,,2450.159699999809,269,4,2450.1600999999046,269,,,,2453.906,2454.4057999999523,2453.389899999857,2453.906,2451.1568999998567,2453.389899999857,2454.4057999999523,2454.9057999999523,2454.906,2461.5048999998567,3671,2461.5048999998567,5,2461.5061999998093,4,11,131,27,1,1.2,0.7,Time
,,920169,001,女,27,2025-06-04_19h02.09.402,Serial_Dependence_U,2023.2.3,Win32,59.52380952364454,,,,,,2461.5074999999997,107,4,2461.507799999952,107,,,,2465.2554999999998,2465.754,2464.737899999857,2465.255,2462.505199999809,2464.737899999857,2465.7540999999046,2466.253799999952,2466.253899999857,2472.5200999999047,3532,2472.5200999999047,5,2472.5209999999997,4,12,132,17,1,1.2,0.7,Time
,,920169,001,女,27,2025-06-04_19h02.09.402,Serial_Dependence_U,2023.2.3,Win32,59.52380952364454,,,,,,2472.5230999999044,44,4,2472.523399999857,44,,,,2476.120699999809,2476.618699999809,2475.6025,2476.1200999999046,2473.5363999998567,2475.6025,2476.6187999999524,2477.1188999998567,2477.1188999998567,2480.8185,3258,2480.8185,5,2480.8205,4,13,133,11,1,1,0.3,Time
,,920169,001,女,27,2025-06-04_19h02.09.402,Serial_Dependence_U,2023.2.3,Win32,59.52380952364454,,,,,,2480.8210999999046,302,4,2480.821399999857,302,,,,2484.6181999998093,2485.117399999857,2484.1015999999045,2484.617899999857,2481.835199999809,2484.1014999999998,2485.1175,2485.617399999857,2485.617399999857,2490.450299999952,3518,2490.4505999999046,5,2490.452899999857,4,14,134,22,1,1.2,0.3,Time
,,920169,001,女,27,2025-06-04_19h02.09.402,Serial_Dependence_U,2023.2.3,Win32,59.52380952364454,,,,,,2490.453399999857,63,4,2490.453699999809,63,,,,2494.433199999809,2494.9325999999046,2493.9165999999045,2494.433199999809,2491.450299999952,2493.9165999999045,2494.9326999998093,2495.4325999999046,2495.4326999998093,2501.932,4281,2501.9320999999045,5,2501.933199999809,4,15,135,23,1,1.4,0.3,Time
,,920169,001,女,27,2025-06-04_19h02.09.402,Serial_Dependence_U,2023.2.3,Win32,59.52380952364454,,,,,,2501.934299999952,286,4,2501.9347999999522,286,,,,2505.9313999998567,2506.4305,2505.416699999809,2505.931199999809,2502.9482999999523,2505.4159999999997,2506.4305,2506.931,2506.9310999999047,2512.314399999857,3792,2512.315,5,2512.315899999857,4,16,136,13,1,1.4,0.3,Time
,,920169,001,女,27,2025-06-04_19h02.09.402,Serial_Dependence_U,2023.2.3,Win32,59.52380952364454,,,,,,2512.316199999809,29,4,2512.316399999857,29,,,,2516.512899999857,2517.0119999999997,2515.9964999999997,2516.512799999952,2513.3300999999046,2515.996299999952,2517.0119999999997,2517.5120999999044,2517.512399999857,2522.363899999857,4326,2522.363899999857,5,2522.3642999999524,4,17,137,14,1,1.6,0.3,Time
,,920169,001,女,27,2025-06-04_19h02.09.402,Serial_Dependence_U,2023.2.3,Win32,59.52380952364454,,,,,,2522.3645999999044,158,4,2522.365,158,,,,2525.7612999999524,2526.2605999999046,2525.244799999952,2525.7612999999524,2523.3785,2525.244699999809,2526.2606999998093,2526.760399999857,2526.760399999857,2530.2605999999046,3365,2530.2606999998093,5,2530.2615,4,18,138,20,1,0.8,0.3,Time
,,920169,001,女,27,2025-06-04_19h02.09.402,Serial_Dependence_U,2023.2.3,Win32,59.52380952364454,,,,,,2530.2630999999046,109,4,2530.2635,109,,,,2534.4262999999523,2534.926399999857,2533.9095999999045,2534.4261999998093,2531.277,2533.9095999999045,2534.926399999857,2535.425899999857,2535.426,2558.2055999999047,3216,2558.2055999999047,5,2558.206899999857,4,19,139,29,1,1.6,0.7,Time
,,920169,001,女,27,2025-06-04_19h02.09.402,Serial_Dependence_U,2023.2.3,Win32,59.52380952364454,,,,,,2558.2084999999997,27,4,2558.208899999857,27,,,,2562.1725999999044,2562.6715,2561.655199999809,2562.172199999809,2559.2219999999998,2561.6550999999045,2562.6715,2563.171299999952,2563.171399999857,2568.055,4137,2568.0555999999046,5,2568.056699999809,4,20,140,18,1,1.4,0.7,Time
,,920169,001,女,27,2025-06-04_19h02.09.402,Serial_Dependence_U,2023.2.3,Win32,59.52380952364454,,,,,,2568.0570999999045,359,4,2568.057399999857,359,,,,2572.019899999857,2572.5195,2571.505299999952,2572.0197999999523,2569.0705999999045,2571.504699999809,2572.5196999998093,2573.0196999998093,2573.0197999999523,2577.103,3832,2577.1030999999043,5,2577.104299999952,4,21,141,8,1,1.4,0.7,Time
,,920169,001,女,27,2025-06-04_19h02.09.402,Serial_Dependence_U,2023.2.3,Win32,59.52380952364454,,,,,,2577.1052999999524,59,4,2577.1085999999045,59,,,,2580.485199999809,2580.9848999998567,2579.9686999998094,2580.4850999999044,2578.1027999999524,2579.9685999999047,2580.9850999999044,2581.4848999998567,2581.485,2585.4061999998094,3275,2585.4062999999524,5,2585.4065999999048,4,22,142,0,1,0.8,0.3,Time
,,920169,001,女,27,2025-06-04_19h02.09.402,Serial_Dependence_U,2023.2.3,Win32,59.52380952364454,,,,,,2585.4069999999997,120,4,2585.4075999999045,120,,,,2588.804699999809,2589.3020999999044,2588.2876999998093,2588.8045999999044,2586.4195999999047,2588.2876999998093,2589.3020999999044,2589.801,2589.8011999998093,2593.472399999857,3081,2593.4725,5,2593.4730999999047,4,23,143,10,1,0.8,0.3,Time
,,920169,001,女,27,2025-06-04_19h02.09.402,Serial_Dependence_U,2023.2.3,Win32,59.52380952364454,,,,,,2593.473399999857,281,4,2593.473699999809,281,,,,2597.619699999809,2598.1155999999046,2597.1035999999044,2597.6195999999045,2594.4713999998567,2597.1035999999044,2598.1155999999046,2598.6162999999524,2598.6165999999043,2608.819399999857,4013,2608.8195,5,2608.8198999998567,4,24,144,19,1,1.6,0.7,Time
,,920169,001,女,27,2025-06-04_19h02.09.402,Serial_Dependence_U,2023.2.3,Win32,59.52380952364454,,,,,,2608.820199999809,251,4,2608.821,251,,,,2612.3702999999523,2612.8635,2611.8676999998092,2612.3701999998093,2609.8333999998567,2611.8675999999045,2612.863899999857,2613.3792999999523,2613.379399999857,2618.332,3739,2618.3320999999046,5,2618.332399999857,4,25,145,16,1,1,0.7,Time
,,920169,001,女,27,2025-06-04_19h02.09.402,Serial_Dependence_U,2023.2.3,Win32,59.52380952364454,,,,,,2618.3326999998094,168,4,2618.3328999998566,168,,,,2622.128899999857,2622.627799999952,2621.6124999999997,2622.128799999952,2619.346199999809,2621.6123999998567,2622.6278999998567,2623.128299999952,2623.128399999857,2627.394299999952,3837,2627.394399999857,5,2627.3955999999043,4,26,146,12,1,1.2,0.3,Time
,,920169,001,女,27,2025-06-04_19h02.09.402,Serial_Dependence_U,2023.2.3,Win32,59.52380952364454,,,,,,2627.397399999857,29,4,2627.397699999809,29,,,,2630.961,2631.4600999999047,2630.4442999999524,2630.960899999857,2628.4110999999048,2630.4441999998094,2631.460199999809,2631.9603999998567,2631.9604999999997,2635.8432999999523,3402,2635.843399999857,5,2635.844299999952,4,27,147,6,1,1,0.7,Time
,,920169,001,女,27,2025-06-04_19h02.09.402,Serial_Dependence_U,2023.2.3,Win32,59.52380952364454,,,,,,2635.8455999999046,237,4,2635.846,237,,,,2639.809299999952,2640.308699999809,2639.292699999809,2639.809199999809,2636.86,2639.292699999809,2640.308699999809,2640.808699999809,2640.8088999998567,2645.0917999999524,3516,2645.0918999998567,5,2645.093899999857,4,28,148,28,1,1.4,0.7,Time
,,920169,001,女,27,2025-06-04_19h02.09.402,Serial_Dependence_U,2023.2.3,Win32,59.52380952364454,,,,,,2645.0943999998567,276,4,2645.094799999952,276,,,,2648.4578999998566,2648.9570999999046,2647.941399999857,2648.4577999999524,2646.108299999952,2647.941299999952,2648.9571999998093,2649.457,2649.4570999999046,2652.873899999857,3080,2652.873899999857,5,2652.8747999999523,4,29,149,5,1,0.8,0.7,Time
,,920169,001,女,27,2025-06-04_19h02.09.402,Serial_Dependence_U,2023.2.3,Win32,59.52380952364454,,,,,,2652.8765,84,5,2680.652699999809,84,s,27.766399999857185,,2684.0520999999044,2684.5515,2683.5364999999997,2684.052,2681.669,2683.535899999857,2684.5515,2685.0512999999523,2685.051399999857,2695.3875,10145,2695.3875999999045,5,2695.388,5,0,150,0,1,0.8,0.3,Time
,,920169,001,女,27,2025-06-04_19h02.09.402,Serial_Dependence_U,2023.2.3,Win32,59.52380952364454,,,,,,2695.3882999999523,301,5,2695.390399999857,301,,,,2699.552899999857,2700.0495,2699.0363999998567,2699.552899999857,2696.403899999857,2699.036299999952,2700.049799999952,2700.552,2700.5520999999044,2708.1855,3766,2708.1855,5,2708.1858999998567,5,1,151,29,1,1.6,0.7,Time
,,920169,001,女,27,2025-06-04_19h02.09.402,Serial_Dependence_U,2023.2.3,Win32,59.52380952364454,,,,,,2708.1860999999044,88,5,2708.1865,88,,,,2711.948899999857,2712.4470999999044,2711.434399999857,2711.9486999998094,2709.201699999809,2711.434399999857,2712.4473999998568,2712.948399999857,2712.948399999857,2717.0679999999998,3650,2717.0679999999998,5,2717.0685,5,2,152,7,1,1.2,0.7,Time
,,920169,001,女,27,2025-06-04_19h02.09.402,Serial_Dependence_U,2023.2.3,Win32,59.52380952364454,,,,,,2717.0690999999047,159,5,2717.0692999999524,159,,,,2720.614199999809,2721.112799999952,2720.099799999952,2720.6140999999047,2718.0650999999048,2720.099699999809,2721.1130999999045,2721.613,2721.6132999999522,2724.782799999952,2751,2724.782899999857,5,2724.7831999998093,5,3,153,16,1,1,0.7,Time
,,920169,001,女,27,2025-06-04_19h02.09.402,Serial_Dependence_U,2023.2.3,Win32,59.52380952364454,,,,,,2724.7835999999047,96,5,2724.7840999999044,96,,,,2728.1793999998567,2728.6805999999046,2727.6655999999043,2728.1793999998567,2725.7965999999046,2727.6655,2728.6805999999046,2729.1790999999043,2729.179199999809,2732.7986999998093,3446,2732.7986999998093,5,2732.7990999999047,5,4,154,10,1,0.8,0.3,Time
,,920169,001,女,27,2025-06-04_19h02.09.402,Serial_Dependence_U,2023.2.3,Win32,59.52380952364454,,,,,,2732.7993999998566,142,5,2732.8000999999044,142,,,,2736.9805,2737.4765999999045,2736.4635999999045,2736.9805,2733.7973999998567,2736.4635,2737.476799999952,2737.9765999999045,2737.977,2742.342699999809,3669,2742.342799999952,5,2742.3440999999048,5,5,155,24,1,1.6,0.3,Time
,,920169,001,女,27,2025-06-04_19h02.09.402,Serial_Dependence_U,2023.2.3,Win32,59.52380952364454,,,,,,2742.3450999999045,204,5,2742.345399999857,204,,,,2745.925299999952,2746.4245999999043,2745.4093999998568,2745.9250999999044,2743.3424999999997,2745.4088999998567,2746.424699999809,2746.9245999999043,2746.924699999809,2750.657799999952,3536,2750.657899999857,5,2750.6594999999998,5,6,156,21,1,1,0.3,Time
,,920169,001,女,27,2025-06-04_19h02.09.402,Serial_Dependence_U,2023.2.3,Win32,59.52380952364454,,,,,,2750.6605999999047,292,5,2750.660899999857,292,,,,2754.8235999999047,2755.3230999999046,2754.307199999809,2754.8235999999047,2751.6740999999047,2754.3070999999045,2755.3230999999046,2755.823,2755.823,2759.9065999999048,3968,2759.9069999999997,5,2759.9085,5,7,157,19,1,1.6,0.7,Time
,,920169,001,女,27,2025-06-04_19h02.09.402,Serial_Dependence_U,2023.2.3,Win32,59.52380952364454,,,,,,2759.909,66,5,2759.909299999952,66,,,,2763.505699999809,2764.005,2762.989,2763.5055999999045,2760.922799999952,2762.989,2764.0050999999044,2764.5050999999044,2764.5050999999044,2768.224899999857,3705,2768.225,5,2768.225399999857,5,8,158,1,1,1,0.3,Time
,,920169,001,女,27,2025-06-04_19h02.09.402,Serial_Dependence_U,2023.2.3,Win32,59.52380952364454,,,,,,2768.2255999999047,270,5,2768.2257999999524,270,,,,2772.187399999857,2772.6870999999046,2771.671,2772.1872999999523,2769.238,2771.670899999857,2772.6870999999046,2773.186899999857,2773.1870999999046,2777.5201999998094,4084,2777.5202999999524,5,2777.521899999857,5,9,159,8,1,1.4,0.7,Time
,,920169,001,女,27,2025-06-04_19h02.09.402,Serial_Dependence_U,2023.2.3,Win32,59.52380952364454,,,,,,2777.522699999809,153,5,2777.5229999999997,153,,,,2781.519,2782.0185,2781.0035999999045,2781.519,2778.5364999999997,2781.0028999998567,2782.0185,2782.5185999999044,2782.518799999952,2788.485,4184,2788.4850999999044,5,2788.487,5,10,160,13,1,1.4,0.3,Time
,,920169,001,女,27,2025-06-04_19h02.09.402,Serial_Dependence_U,2023.2.3,Win32,59.52380952364454,,,,,,2788.4875999999044,269,5,2788.487799999952,269,,,,2792.650799999952,2793.1497999999524,2792.134199999809,2792.650799999952,2789.501299999952,2792.1340999999047,2793.1498999998566,2793.650299999952,2793.6503999998567,2802.9494999999997,3919,2802.9494999999997,5,2802.9512999999524,5,11,161,9,1,1.6,0.7,Time
,,920169,001,女,27,2025-06-04_19h02.09.402,Serial_Dependence_U,2023.2.3,Win32,59.52380952364454,,,,,,2802.951899999857,263,5,2802.9520999999045,263,,,,2806.5155,2807.0145999999045,2805.998799999952,2806.5152999999523,2803.965699999809,2805.998699999809,2807.0145999999045,2807.514699999809,2807.514799999952,2811.114199999809,3540,2811.1142999999524,5,2811.1155,5,12,162,6,1,1,0.7,Time
,,920169,001,女,27,2025-06-04_19h02.09.402,Serial_Dependence_U,2023.2.3,Win32,59.52380952364454,,,,,,2811.116699999809,275,5,2811.1170999999044,275,,,,2815.313799999952,2815.813299999952,2814.7970999999047,2815.313699999809,2812.130899999857,2814.797,2815.8133999998568,2816.313,2816.3130999999044,2825.811899999857,3568,2825.811899999857,5,2825.813699999809,5,13,163,14,1,1.6,0.3,Time
,,920169,001,女,27,2025-06-04_19h02.09.402,Serial_Dependence_U,2023.2.3,Win32,59.52380952364454,,,,,,2825.8142999999523,16,5,2825.8146999998094,16,,,,2829.611399999857,2830.110799999952,2829.094899999857,2829.611399999857,2826.8285,2829.094799999952,2830.110899999857,2830.610699999809,2830.610799999952,2834.460899999857,3599,2834.460899999857,5,2834.4625999999043,5,14,164,12,1,1.2,0.3,Time
,,920169,001,女,27,2025-06-04_19h02.09.402,Serial_Dependence_U,2023.2.3,Win32,59.52380952364454,,,,,,2834.463199999809,21,5,2834.4635,21,,,,2838.4267999999524,2838.9261999998093,2837.9100999999046,2838.426699999809,2835.4770999999046,2837.91,2838.9262999999523,2839.426,2839.4261999998093,2843.3090999999044,3557,2843.3095999999045,5,2843.3110999999044,5,15,165,18,1,1.4,0.7,Time
,,920169,001,女,27,2025-06-04_19h02.09.402,Serial_Dependence_U,2023.2.3,Win32,59.52380952364454,,,,,,2843.3115,234,5,2843.311799999952,234,,,,2846.6585999999047,2847.1587999999524,2846.1420999999045,2846.6585999999047,2844.309199999809,2846.142,2847.1587999999524,2847.6581999998093,2847.6582999999523,2852.4245999999043,3550,2852.424699999809,5,2852.4262999999523,5,16,166,25,1,0.8,0.7,Time
,,920169,001,女,27,2025-06-04_19h02.09.402,Serial_Dependence_U,2023.2.3,Win32,59.52380952364454,,,,,,2852.427,301,5,2852.427299999952,301,,,,2856.623699999809,2857.123199999809,2856.107,2856.6235999999044,2853.440799999952,2856.1067999999523,2857.123199999809,2857.624,2857.624,2862.923,3951,2862.923299999952,5,2862.924799999952,5,17,167,4,1,1.6,0.3,Time
,,920169,001,女,27,2025-06-04_19h02.09.402,Serial_Dependence_U,2023.2.3,Win32,59.52380952364454,,,,,,2862.925299999952,177,5,2862.9256999998092,177,,,,2866.922,2867.4215,2866.4050999999045,2866.9217999999523,2863.9390999999046,2866.4048999998568,2867.4215,2867.9210999999045,2867.9211999998092,2873.2545,4074,2873.2545999999047,5,2873.256399999857,5,18,168,23,1,1.4,0.3,Time
,,920169,001,女,27,2025-06-04_19h02.09.402,Serial_Dependence_U,2023.2.3,Win32,59.52380952364454,,,,,,2873.257,65,5,2873.2573999998567,65,,,,2877.0035999999045,2877.5030999999044,2876.4870999999043,2877.0035,2874.2540999999046,2876.4868999998566,2877.5030999999044,2878.0028999998567,2878.003199999809,2882.2696999998093,3525,2882.2697999999523,5,2882.2715,5,19,169,27,1,1.2,0.7,Time
,,920169,001,女,27,2025-06-04_19h02.09.402,Serial_Dependence_U,2023.2.3,Win32,59.52380952364454,,,,,,2882.2721999998093,128,5,2882.2725,128,,,,2886.0355999999047,2886.534799999952,2885.518799999952,2886.0355999999047,2883.285899999857,2885.518699999809,2886.534899999857,2887.034799999952,2887.034899999857,2890.8350999999047,3588,2890.835699999809,5,2890.8370999999047,5,20,170,17,1,1.2,0.7,Time
,,920169,001,女,27,2025-06-04_19h02.09.402,Serial_Dependence_U,2023.2.3,Win32,59.52380952364454,,,,,,2890.8373999998566,257,5,2890.837699999809,257,,,,2894.4015,2894.900299999952,2893.8842999999524,2894.4010999999045,2891.851,2893.884199999809,2894.900299999952,2895.4000999999043,2895.4000999999043,2906.8657999999523,3410,2906.8657999999523,5,2906.8675999999045,5,21,171,26,1,1,0.7,Time
,,920169,001,女,27,2025-06-04_19h02.09.402,Serial_Dependence_U,2023.2.3,Win32,59.52380952364454,,,,,,2906.8681999998093,104,5,2906.8685,104,,,,2910.2315,2910.730699999809,2909.7148999998567,2910.231399999857,2907.881399999857,2909.7147999999524,2910.730699999809,2911.230799999952,2911.230799999952,2915.831,3079,2915.8315999999045,5,2915.8328999998566,5,22,172,15,1,0.8,0.7,Time
,,920169,001,女,27,2025-06-04_19h02.09.402,Serial_Dependence_U,2023.2.3,Win32,59.52380952364454,,,,,,2915.833299999952,263,5,2915.8335999999044,263,,,,2919.63,2920.129399999857,2919.1135,2919.6298999998567,2916.8469999999998,2919.113399999857,2920.1295999999047,2920.629399999857,2920.629399999857,2927.1451999998094,3439,2927.1452999999524,5,2927.1471999998093,5,23,173,22,1,1.2,0.3,Time
,,920169,001,女,27,2025-06-04_19h02.09.402,Serial_Dependence_U,2023.2.3,Win32,59.52380952364454,,,,,,2927.1477999999524,352,5,2927.1480999999044,352,,,,2930.728299999952,2931.2272999999523,2930.2115,2930.728299999952,2928.1452999999524,2930.211399999857,2931.2272999999523,2931.727399999857,2931.7275,2935.3105999999048,3390,2935.3105999999048,5,2935.3122999999523,5,24,174,11,1,1,0.3,Time
,,920169,001,女,27,2025-06-04_19h02.09.402,Serial_Dependence_U,2023.2.3,Win32,59.52380952364454,,,,,,2935.3128999998567,214,5,2935.313299999952,214,,,,2939.2600999999045,2939.7593999998567,2938.7435,2939.2600999999045,2936.3105999999048,2938.7435,2939.7595,2940.2599999999998,2940.2599999999998,2944.745,3794,2944.7451999998093,5,2944.7455999999047,5,25,175,28,1,1.4,0.7,Time
,,920169,001,女,27,2025-06-04_19h02.09.402,Serial_Dependence_U,2023.2.3,Win32,59.52380952364454,,,,,,2944.7458999998566,257,5,2944.7460999999043,257,,,,2948.7418999998567,2949.2410999999047,2948.225399999857,2948.741799999952,2945.759,2948.2251999998093,2949.2411999998094,2949.741799999952,2949.741799999952,2953.791199999809,3898,2953.791299999952,5,2953.791699999809,5,26,176,3,1,1.4,0.3,Time
,,920169,001,女,27,2025-06-04_19h02.09.402,Serial_Dependence_U,2023.2.3,Win32,59.52380952364454,,,,,,2953.794,217,5,2953.794399999857,217,,,,2957.590399999857,2958.0898999998567,2957.074,2957.590299999952,2954.807399999857,2957.074,2958.0899999999997,2958.5897999999524,2958.5898999998567,2962.54,3363,2962.540699999809,5,2962.542,5,27,177,2,1,1.2,0.3,Time
,,920169,001,女,27,2025-06-04_19h02.09.402,Serial_Dependence_U,2023.2.3,Win32,59.52380952364454,,,,,,2962.542399999857,211,5,2962.542699999809,211,,,,2965.888699999809,2966.3885,2965.3725,2965.8885999999047,2963.539399999857,2965.3725,2966.3885,2966.8880999999046,2966.8880999999046,2970.6715,3173,2970.672,5,2970.6735999999046,5,28,178,5,1,0.8,0.7,Time
,,920169,001,女,27,2025-06-04_19h02.09.402,Serial_Dependence_U,2023.2.3,Win32,59.52380952364454,,,,,,2970.6740999999047,234,5,2970.6743999998566,234,,,,2974.0538999998566,2974.5537999999524,2973.5376999998093,2974.0537999999524,2971.6715,2973.5375999999046,2974.5537999999524,2975.0538999998566,2975.0538999998566,2980.454399999857,3340,2980.4545999999045,5,2980.456299999952,5,29,179,20,1,0.8,0.3,Time
,,920169,001,女,27,2025-06-04_19h02.09.402,Serial_Dependence_U,2023.2.3,Win32,59.52380952364454,,,,,,2980.4565999999045,244,6,2986.018899999857,244,s,5.5382999999524145,,2989.585199999809,2990.0845999999046,2989.0680999999045,2989.5850999999047,2987.035899999857,2989.0679999999998,2990.0846999998093,2990.584399999857,2990.5845,2993.884199999809,3276,2993.8842999999524,5,2993.8856999998093,6,0,180,6,1,1,0.7,Time
,,920169,001,女,27,2025-06-04_19h02.09.402,Serial_Dependence_U,2023.2.3,Win32,59.52380952364454,,,,,,2993.886699999809,47,6,2993.888,47,,,,2997.2502999999524,2997.749899999857,2996.7340999999046,2997.2500999999047,2994.901,2996.734,2997.749899999857,2998.25,2998.2500999999047,3001.583299999952,3249,3001.5835999999044,5,3001.5855999999044,6,1,181,5,1,0.8,0.7,Time
,,920169,001,女,27,2025-06-04_19h02.09.402,Serial_Dependence_U,2023.2.3,Win32,59.52380952364454,,,,,,3001.586,343,6,3001.586199999809,343,,,,3005.382,3005.882,3004.866,3005.382,3002.5995999999045,3004.865899999857,3005.882199999809,3006.3815999999047,3006.3816999998094,3010.1987999999524,3637,3010.1987999999524,5,3010.200399999857,6,2,182,22,1,1.2,0.3,Time
,,920169,001,女,27,2025-06-04_19h02.09.402,Serial_Dependence_U,2023.2.3,Win32,59.52380952364454,,,,,,3010.201,154,6,3010.2013999998567,154,,,,3013.5641999998093,3014.0642999999523,3013.048,3013.5640999999046,3011.2148999998567,3013.047899999857,3014.0642999999523,3014.5635999999045,3014.563699999809,3019.4305,3034,3019.4305,5,3019.4314999999997,6,3,183,15,1,0.8,0.7,Time
,,920169,001,女,27,2025-06-04_19h02.09.402,Serial_Dependence_U,2023.2.3,Win32,59.52380952364454,,,,,,3019.4327999999523,307,6,3019.433199999809,307,,,,3023.596199999809,3024.0955999999046,3023.0797999999522,3023.5960999999047,3020.4467999999524,3023.0796999998092,3024.0955999999046,3024.5956999998093,3024.5956999998093,3029.5475,3709,3029.5475999999044,5,3029.547899999857,6,4,184,9,1,1.6,0.7,Time
,,920169,001,女,27,2025-06-04_19h02.09.402,Serial_Dependence_U,2023.2.3,Win32,59.52380952364454,,,,,,3029.548299999952,175,6,3029.5485,175,,,,3033.6945,3034.1940999999047,3033.1780999999046,3033.6945,3030.5450999999043,3033.177899999857,3034.1941999998094,3034.6937999999523,3034.693899999857,3041.027899999857,3969,3041.0285,5,3041.0295,6,5,185,29,1,1.6,0.7,Time
,,920169,001,女,27,2025-06-04_19h02.09.402,Serial_Dependence_U,2023.2.3,Win32,59.52380952364454,,,,,,3041.0298999998568,227,6,3041.0300999999045,227,,,,3044.626299999952,3045.1253999998567,3044.1095,3044.626199999809,3042.043199999809,3044.1095,3045.1253999998567,3045.6255999999044,3045.625699999809,3050.2437999999524,3472,3050.2439999999997,5,3050.244399999857,6,6,186,21,1,1,0.3,Time
,,920169,001,女,27,2025-06-04_19h02.09.402,Serial_Dependence_U,2023.2.3,Win32,59.52380952364454,,,,,,3050.244799999952,103,6,3050.244899999857,103,,,,3054.008,3054.507299999952,3053.4913999998566,3054.007899999857,3051.258399999857,3053.4912999999524,3054.5073999998567,3055.0070999999048,3055.007199999809,3059.9905,3661,3059.9905,5,3059.992199999809,6,7,187,17,1,1.2,0.7,Time
,,920169,001,女,27,2025-06-04_19h02.09.402,Serial_Dependence_U,2023.2.3,Win32,59.52380952364454,,,,,,3059.9927999999522,336,6,3059.9931999998093,336,,,,3063.7896999998093,3064.2889999999998,3063.273199999809,3063.7895999999046,3061.0067999999524,3063.2730999999044,3064.2890999999045,3064.7889999999998,3064.789199999809,3068.7725,3532,3068.7725,5,3068.7742999999523,6,8,188,12,1,1.2,0.3,Time
,,920169,001,女,27,2025-06-04_19h02.09.402,Serial_Dependence_U,2023.2.3,Win32,59.52380952364454,,,,,,3068.7748999998566,318,6,3068.775199999809,318,,,,3072.7382999999522,3073.2374999999997,3072.2215999999044,3072.7381999998092,3069.7885999999044,3072.2215999999044,3073.2375999999044,3073.737299999952,3073.737299999952,3082.3705,3733,3082.370699999809,5,3082.373,6,9,189,18,1,1.4,0.7,Time
,,920169,001,女,27,2025-06-04_19h02.09.402,Serial_Dependence_U,2023.2.3,Win32,59.52380952364454,,,,,,3082.3733999998567,67,6,3082.3735999999044,67,,,,3086.336,3086.835199999809,3085.819399999857,3086.335899999857,3083.386399999857,3085.8192999999524,3086.835199999809,3087.335199999809,3087.3352999999524,3092.2680999999047,3851,3092.268199999809,5,3092.2701999998094,6,10,190,28,1,1.4,0.7,Time
,,920169,001,女,27,2025-06-04_19h02.09.402,Serial_Dependence_U,2023.2.3,Win32,59.52380952364454,,,,,,3092.270699999809,100,6,3092.2710999999044,100,,,,3096.0343999998568,3096.533699999809,3095.5177999999523,3096.034299999952,3093.284899999857,3095.5177999999523,3096.5337999999524,3097.0337999999524,3097.0338999998567,3101.5170999999045,3725,3101.517399999857,5,3101.5190999999045,6,11,191,27,1,1.2,0.7,Time
,,920169,001,女,27,2025-06-04_19h02.09.402,Serial_Dependence_U,2023.2.3,Win32,59.52380952364454,,,,,,3101.519399999857,57,6,3101.5196999998093,57,,,,3104.916299999952,3105.4155,3104.3996999998094,3104.916199999809,3102.5331999998093,3104.3995999999047,3105.415699999809,3105.9155,3105.915699999809,3109.2837999999524,3085,3109.284699999809,5,3109.285399999857,6,12,192,0,1,0.8,0.3,Time
,,920169,001,女,27,2025-06-04_19h02.09.402,Serial_Dependence_U,2023.2.3,Win32,59.52380952364454,,,,,,3109.2855999999047,267,6,3109.285899999857,267,,,,3112.849799999952,3113.347899999857,3112.331799999952,3112.849399999857,3110.2985999999046,3112.331699999809,3113.347899999857,3113.8476999998093,3113.8476999998093,3120.464,3271,3120.464,5,3120.465899999857,6,13,193,16,1,1,0.7,Time
,,920169,001,女,27,2025-06-04_19h02.09.402,Serial_Dependence_U,2023.2.3,Win32,59.52380952364454,,,,,,3120.4665,311,6,3120.4667999999524,311,,,,3124.0295999999043,3124.529199999809,3123.5132999999523,3124.0295999999043,3121.4800999999047,3123.5131999998093,3124.529199999809,3125.029199999809,3125.029199999809,3129.6290999999046,3362,3129.6291999998093,5,3129.630899999857,6,14,194,26,1,1,0.7,Time
,,920169,001,女,27,2025-06-04_19h02.09.402,Serial_Dependence_U,2023.2.3,Win32,59.52380952364454,,,,,,3129.631399999857,125,6,3129.6316999998094,125,,,,3133.228199999809,3133.7276999998094,3132.7115999999046,3133.2280999999043,3130.6452999999524,3132.7115999999046,3133.7276999998094,3134.2276999998094,3134.2277999999524,3138.8275999999046,3466,3138.8276999998093,5,3138.828,6,15,195,11,1,1,0.3,Time
,,920169,001,女,27,2025-06-04_19h02.09.402,Serial_Dependence_U,2023.2.3,Win32,59.52380952364454,,,,,,3138.8305,283,6,3138.830699999809,283,,,,3142.4267999999524,3142.9261999998093,3141.9102999999523,3142.426699999809,3139.8437999999524,3141.9101999998093,3142.9261999998093,3143.4256999998092,3143.4256999998092,3147.2095,3541,3147.2095999999046,5,3147.211399999857,6,16,196,1,1,1,0.3,Time
,,920169,001,女,27,2025-06-04_19h02.09.402,Serial_Dependence_U,2023.2.3,Win32,59.52380952364454,,,,,,3147.211899999857,14,6,3147.2121999998094,14,,,,3151.208799999952,3151.7076999998094,3150.6920999999047,3151.208699999809,3148.2257999999524,3150.692,3151.7076999998094,3152.2078999998566,3152.2078999998566,3161.4571999998093,3729,3161.457399999857,5,3161.459,6,17,197,13,1,1.4,0.3,Time
,,920169,001,女,27,2025-06-04_19h02.09.402,Serial_Dependence_U,2023.2.3,Win32,59.52380952364454,,,,,,3161.4595999999046,226,6,3161.46,226,,,,3165.456299999952,3165.9558999998567,3164.9397999999524,3165.456199999809,3162.4735,3164.9397999999524,3165.9558999998567,3166.455699999809,3166.4557999999524,3171.1055,3906,3171.1055999999044,5,3171.1071999998094,6,18,198,23,1,1.4,0.3,Time
,,920169,001,女,27,2025-06-04_19h02.09.402,Serial_Dependence_U,2023.2.3,Win32,59.52380952364454,,,,,,3171.1078999998567,212,6,3171.108199999809,212,,,,3174.8547999999523,3175.3540999999045,3174.3385,3174.8546999998093,3172.105199999809,3174.338199999809,3175.3540999999045,3175.8540999999045,3175.8540999999045,3180.287299999952,3850,3180.287299999952,5,3180.289199999809,6,19,199,7,1,1.2,0.7,Time
,,920169,001,女,27,2025-06-04_19h02.09.402,Serial_Dependence_U,2023.2.3,Win32,59.52380952364454,,,,,,3180.2897999999523,200,6,3180.2901999998094,200,,,,3184.4866999998094,3184.985799999952,3183.969699999809,3184.486399999857,3181.3036999998094,3183.9694999999997,3184.985799999952,3185.4870999999043,3185.4873999998567,3189.7322999999524,4059,3189.732399999857,5,3189.732799999952,6,20,200,4,1,1.6,0.3,Time
,,920169,001,女,27,2025-06-04_19h02.09.402,Serial_Dependence_U,2023.2.3,Win32,59.52380952364454,,,,,,3189.7330999999044,112,6,3189.733399999857,112,,,,3193.9351999998094,3194.4352999999523,3193.4180999999044,3193.9350999999047,3190.7521999998094,3193.418,3194.435399999857,3194.9339999999997,3194.9340999999044,3203.6503999998567,3950,3203.6504999999997,5,3203.652199999809,6,21,201,14,1,1.6,0.3,Time
,,920169,001,女,27,2025-06-04_19h02.09.402,Serial_Dependence_U,2023.2.3,Win32,59.52380952364454,,,,,,3203.6525999999044,320,6,3203.652899999857,320,,,,3207.032399999857,3207.532299999952,3206.516299999952,3207.032299999952,3204.6684999999998,3206.516299999952,3207.532399999857,3208.0320999999044,3208.032199999809,3211.2655999999047,2759,3211.2656999998094,5,3211.2675,6,22,202,25,1,0.8,0.7,Time
,,920169,001,女,27,2025-06-04_19h02.09.402,Serial_Dependence_U,2023.2.3,Win32,59.52380952364454,,,,,,3211.2680999999047,99,6,3211.2682999999524,99,,,,3215.447699999809,3215.9470999999044,3214.9314999999997,3215.4475999999045,3212.265399999857,3214.9314999999997,3215.9470999999044,3216.4470999999044,3216.447199999809,3220.847299999952,4083,3220.847399999857,5,3220.8488999998567,6,23,203,24,1,1.6,0.3,Time
,,920169,001,女,27,2025-06-04_19h02.09.402,Serial_Dependence_U,2023.2.3,Win32,59.52380952364454,,,,,,3220.849699999809,236,6,3220.85,236,,,,3224.831399999857,3225.329199999809,3224.33,3224.8308999998567,3221.8636999998093,3224.33,3225.329399999857,3225.8290999999044,3225.8290999999044,3229.8625999999044,3750,3229.8625999999044,5,3229.8640999999047,6,24,204,3,1,1.4,0.3,Time
,,920169,001,女,27,2025-06-04_19h02.09.402,Serial_Dependence_U,2023.2.3,Win32,59.52380952364454,,,,,,3229.8650999999045,75,6,3229.865399999857,75,,,,3234.028899999857,3234.5275999999044,3233.511799999952,3234.0286999998093,3230.878899999857,3233.511799999952,3234.527699999809,3235.0292999999524,3235.0295999999043,3240.594199999809,4066,3240.5943999998567,5,3240.5962999999524,6,25,205,19,1,1.6,0.7,Time
,,920169,001,女,27,2025-06-04_19h02.09.402,Serial_Dependence_U,2023.2.3,Win32,59.52380952364454,,,,,,3240.5968999998568,107,6,3240.5970999999045,107,,,,3244.3930999999047,3244.8925999999046,3243.876899999857,3244.3930999999047,3241.610399999857,3243.8767999999523,3244.8926999998093,3245.3925999999046,3245.3926999998093,3249.459399999857,3809,3249.4595999999046,5,3249.461199999809,6,26,206,2,1,1.2,0.3,Time
,,920169,001,女,27,2025-06-04_19h02.09.402,Serial_Dependence_U,2023.2.3,Win32,59.52380952364454,,,,,,3249.461899999857,62,6,3249.4622999999524,62,,,,3252.8586999998092,3253.3580999999044,3252.3420999999043,3252.8585999999045,3250.4755999999047,3252.3420999999043,3253.358199999809,3253.858199999809,3253.858299999952,3257.124899999857,3111,3257.124899999857,5,3257.126299999952,6,27,207,20,1,0.8,0.3,Time
,,920169,001,女,27,2025-06-04_19h02.09.402,Serial_Dependence_U,2023.2.3,Win32,59.52380952364454,,,,,,3257.127399999857,358,6,3257.1275999999048,358,,,,3260.523899999857,3261.0235999999045,3260.008,3260.523799999952,3258.1406999998094,3260.007699999809,3261.0235999999045,3261.523399999857,3261.5235,3265.0570999999045,3366,3265.0576999998093,5,3265.059299999952,6,28,208,10,1,0.8,0.3,Time
,,920169,001,女,27,2025-06-04_19h02.09.402,Serial_Dependence_U,2023.2.3,Win32,59.52380952364454,,,,,,3265.0653999998567,249,6,3265.065699999809,249,,,,3269.006,3269.505299999952,3268.4890999999047,3269.005899999857,3266.0563999998567,3268.488899999857,3269.5054999999998,3270.0054999999998,3270.0054999999998,3277.1545,3517,3277.1550999999045,5,3277.1570999999044,6,29,209,8,1,1.4,0.7,Time
,,920169,001,女,27,2025-06-04_19h02.09.402,Serial_Dependence_U,2023.2.3,Win32,59.52380952364454,,,,,,3277.1575,151,7,3326.746199999809,151,s,49.57179999995242,,3330.7120999999047,3331.2120999999047,3330.1960999999046,3330.712,3327.763,3330.195899999857,3331.2120999999047,3331.7117999999523,3331.7117999999523,3336.1117999999524,3576,3336.112,5,3336.1135999999046,7,0,210,8,1,1.4,0.7,Time
,,920169,001,女,27,2025-06-04_19h02.09.402,Serial_Dependence_U,2023.2.3,Win32,59.52380952364454,,,,,,3336.1145,108,7,3336.1155999999046,108,,,,3339.9105999999047,3340.410399999857,3339.3960999999044,3339.9105,3337.1279999999997,3339.3955999999043,3340.4105,3340.9102999999523,3340.910399999857,3344.646299999952,3486,3344.646399999857,5,3344.6465999999045,7,1,211,2,1,1.2,0.3,Time
,,920169,001,女,27,2025-06-04_19h02.09.402,Serial_Dependence_U,2023.2.3,Win32,59.52380952364454,,,,,,3344.647,117,7,3344.6471999998093,117,,,,3348.0265,3348.5255999999044,3347.5098999998568,3348.026399999857,3345.6432999999524,3347.509799999952,3348.525699999809,3349.025299999952,3349.0253999998567,3355.875199999809,3599,3355.8752999999524,5,3355.8771999998094,7,2,212,0,1,0.8,0.3,Time
,,920169,001,女,27,2025-06-04_19h02.09.402,Serial_Dependence_U,2023.2.3,Win32,59.52380952364454,,,,,,3355.877699999809,95,7,3355.8778999998567,95,,,,3359.441199999809,3359.940599999905,3358.9245999999043,3359.4410999999045,3356.8913999998567,3358.9245,3359.940599999905,3360.4405,3360.4405,3363.7572999999525,3154,3363.757399999857,5,3363.758799999952,7,3,213,6,1,1,0.7,Time
,,920169,001,女,27,2025-06-04_19h02.09.402,Serial_Dependence_U,2023.2.3,Win32,59.52380952364454,,,,,,3363.759799999952,61,7,3363.7599999999998,61,,,,3367.7565,3368.255699999809,3367.240699999809,3367.756399999857,3364.7735999999045,3367.2401999998087,3368.255799999952,3368.7560999999046,3368.7560999999046,3373.3890999999044,4062,3373.389199999809,5,3373.390899999857,7,4,214,3,1,1.4,0.3,Time
,,920169,001,女,27,2025-06-04_19h02.09.402,Serial_Dependence_U,2023.2.3,Win32,59.52380952364454,,,,,,3373.391399999857,144,7,3373.3917999999526,144,,,,3377.1880999999044,3377.6875999999043,3376.6715999999046,3377.1880999999044,3374.4052999999526,3376.6715,3377.687699999809,3378.187799999952,3378.1878999998567,3384.687099999904,3607,3384.687699999809,5,3384.688899999857,7,5,215,22,1,1.2,0.3,Time
,,920169,001,女,27,2025-06-04_19h02.09.402,Serial_Dependence_U,2023.2.3,Win32,59.52380952364454,,,,,,3384.6891999998093,182,7,3384.6895999999047,182,,,,3388.6862999999526,3389.1855,3388.171399999857,3388.6861999998096,3385.703399999857,3388.171,3389.1855,3389.685399999857,3389.685399999857,3402.5516999998094,4009,3402.552099999905,5,3402.5528999998564,7,6,216,23,1,1.4,0.3,Time
,,920169,001,女,27,2025-06-04_19h02.09.402,Serial_Dependence_U,2023.2.3,Win32,59.52380952364454,,,,,,3402.553199999809,207,7,3402.5535999999042,207,,,,3406.5167999999526,3407.0161999998095,3406.000199999809,3406.5166999998096,3403.567299999952,3406.0000999999043,3407.0162999999525,3407.516,3407.516,3411.965699999809,3892,3411.9660999999046,5,3411.9680000000003,7,7,217,18,1,1.4,0.7,Time
,,920169,001,女,27,2025-06-04_19h02.09.402,Serial_Dependence_U,2023.2.3,Win32,59.52380952364454,,,,,,3411.968299999952,116,7,3411.968599999904,116,,,,3415.3648999998572,3415.8646999998095,3414.849899999857,3415.3647999999525,3412.9818999998565,3414.849299999952,3415.8646999998095,3416.364599999905,3416.3646999998095,3426.963799999952,3336,3426.964199999809,5,3426.965399999857,7,8,218,20,1,0.8,0.3,Time
,,920169,001,女,27,2025-06-04_19h02.09.402,Serial_Dependence_U,2023.2.3,Win32,59.52380952364454,,,,,,3426.965899999857,72,7,3426.9660999999046,72,,,,3431.1626999998093,3431.6620999999045,3430.646099999905,3431.1625999999046,3427.9797999999523,3430.646099999905,3431.662199999809,3432.163,3432.163,3437.4785999999044,4099,3437.4785999999044,5,3437.480399999857,7,9,219,4,1,1.6,0.3,Time
,,920169,001,女,27,2025-06-04_19h02.09.402,Serial_Dependence_U,2023.2.3,Win32,59.52380952364454,,,,,,3437.481099999905,257,7,3437.4812999999526,257,,,,3440.8444999999997,3441.343799999952,3440.3276999998093,3440.8443999998567,3438.4948999998564,3440.3275999999046,3441.343799999952,3441.8439999999996,3441.8439999999996,3445.9272999999525,3316,3445.927599999905,5,3445.9295999999044,7,10,220,15,1,0.8,0.7,Time
,,920169,001,女,27,2025-06-04_19h02.09.402,Serial_Dependence_U,2023.2.3,Win32,59.52380952364454,,,,,,3445.93,285,7,3445.9301999998092,285,,,,3449.526299999952,3450.0257999999526,3449.0098999998568,3449.526299999952,3446.9435,3449.009799999952,3450.0258999998573,3450.5255,3450.5255,3455.5921999998095,3467,3455.5922999999525,5,3455.5939999999996,7,11,221,21,1,1,0.3,Time
,,920169,001,女,27,2025-06-04_19h02.09.402,Serial_Dependence_U,2023.2.3,Win32,59.52380952364454,,,,,,3455.594699999809,346,7,3455.5950999999045,346,,,,3459.357799999952,3459.857099999904,3458.8415,3459.357799999952,3456.6085999999045,3458.8415,3459.857199999809,3460.3574999999996,3460.3574999999996,3464.8236999998094,3583,3464.8241999998095,5,3464.8258999998566,7,12,222,27,1,1.2,0.7,Time
,,920169,001,女,27,2025-06-04_19h02.09.402,Serial_Dependence_U,2023.2.3,Win32,59.52380952364454,,,,,,3464.8263999998567,131,7,3464.826699999809,131,,,,3468.9897999999525,3469.4891999998094,3468.473199999809,3468.9897999999525,3465.840299999952,3468.473199999809,3469.4891999998094,3469.989,3469.9890999999047,3480.7715000000003,3728,3480.7715000000003,5,3480.7729999999997,7,13,223,9,1,1.6,0.7,Time
,,920169,001,女,27,2025-06-04_19h02.09.402,Serial_Dependence_U,2023.2.3,Win32,59.52380952364454,,,,,,3480.773699999809,308,7,3480.7740999999046,308,,,,3484.9373999998566,3485.4366999998088,3484.420699999809,3484.937299999952,3481.7876999998093,3484.4205999999044,3485.4366999998088,3485.9362999999526,3485.9363999998573,3501.4176999998094,3716,3501.4176999998094,5,3501.419599999904,7,14,224,19,1,1.6,0.7,Time
,,920169,001,女,27,2025-06-04_19h02.09.402,Serial_Dependence_U,2023.2.3,Win32,59.52380952364454,,,,,,3501.4200999999043,355,7,3501.4203999998567,355,,,,3505.017299999952,3505.516599999905,3504.5008999998568,3505.017199999809,3502.434299999952,3504.5008999998568,3505.5166999998096,3506.0166999998096,3506.0167999999526,3509.7347999999524,3375,3509.7352999999525,5,3509.735599999905,7,15,225,1,1,1,0.3,Time
,,920169,001,女,27,2025-06-04_19h02.09.402,Serial_Dependence_U,2023.2.3,Win32,59.52380952364454,,,,,,3509.7358999998564,177,7,3509.736199999809,177,,,,3513.6987999999524,3514.1986999998094,3513.182699999809,3513.6987999999524,3510.7495000000004,3513.182599999904,3514.1986999998094,3514.6981999998093,3514.6981999998093,3520.348299999952,3979,3520.348299999952,5,3520.350399999857,7,16,226,28,1,1.4,0.7,Time
,,920169,001,女,27,2025-06-04_19h02.09.402,Serial_Dependence_U,2023.2.3,Win32,59.52380952364454,,,,,,3520.350899999857,357,7,3520.3512999999525,357,,,,3523.9141999998096,3524.413399999857,3523.397299999952,3523.914099999905,3521.364599999905,3523.397199999809,3524.4135,3524.913599999905,3524.913599999905,3529.3965000000003,3301,3529.396599999905,5,3529.399,7,17,227,26,1,1,0.7,Time
,,920169,001,女,27,2025-06-04_19h02.09.402,Serial_Dependence_U,2023.2.3,Win32,59.52380952364454,,,,,,3529.399399999857,15,7,3529.3995999999047,15,,,,3533.5956999998093,3534.095399999857,3533.0787999999525,3533.5956999998093,3530.4130999999047,3533.0787999999525,3534.095399999857,3534.595299999952,3534.5955,3538.811599999905,4001,3538.812099999904,5,3538.813799999952,7,18,228,24,1,1.6,0.3,Time
,,920169,001,女,27,2025-06-04_19h02.09.402,Serial_Dependence_U,2023.2.3,Win32,59.52380952364454,,,,,,3538.814399999857,162,7,3538.8145999999047,162,,,,3542.577899999857,3543.076899999857,3542.0611999998096,3542.5775999999046,3539.828,3542.061099999905,3543.0769999999998,3543.576799999952,3543.576799999952,3548.9784999999997,3793,3548.9784999999997,5,3548.979,7,19,229,7,1,1.2,0.7,Time
,,920169,001,女,27,2025-06-04_19h02.09.402,Serial_Dependence_U,2023.2.3,Win32,59.52380952364454,,,,,,3548.979299999952,90,7,3548.9795,90,,,,3552.3427999999526,3552.842399999857,3551.826199999809,3552.3427999999526,3549.992899999857,3551.826199999809,3552.842399999857,3553.3426999998096,3553.3426999998096,3556.8422999999525,3441,3556.842399999857,5,3556.8439999999996,7,20,230,5,1,0.8,0.7,Time
,,920169,001,女,27,2025-06-04_19h02.09.402,Serial_Dependence_U,2023.2.3,Win32,59.52380952364454,,,,,,3556.844799999952,213,7,3556.8450999999045,213,,,,3560.6080999999044,3561.1074999999996,3560.0912999999523,3560.6079999999997,3557.8585,3560.0910999999046,3561.1075999999043,3561.6073999998566,3561.6074999999996,3565.308299999952,3674,3565.3088999998567,5,3565.3101999998094,7,21,231,17,1,1.2,0.7,Time
,,920169,001,女,27,2025-06-04_19h02.09.402,Serial_Dependence_U,2023.2.3,Win32,59.52380952364454,,,,,,3565.310399999857,272,7,3565.3107999999525,272,,,,3569.1061999998087,3569.606,3568.5900999999044,3569.1061999998087,3566.3232999999523,3568.5900999999044,3569.6061999998087,3570.1057999999525,3570.1058999998572,3576.6390999999044,4049,3576.639299999952,5,3576.6412999999525,7,22,232,12,1,1.2,0.3,Time
,,920169,001,女,27,2025-06-04_19h02.09.402,Serial_Dependence_U,2023.2.3,Win32,59.52380952364454,,,,,,3576.6418999998573,352,7,3576.642199999809,352,,,,3580.638099999904,3581.1373999998573,3580.1215999999044,3580.6379999999995,3577.6551999998096,3580.1213999998567,3581.1375000000003,3581.6373999998573,3581.6375000000003,3585.9041999998094,4135,3585.9042999999524,5,3585.905799999952,7,23,233,13,1,1.4,0.3,Time
,,920169,001,女,27,2025-06-04_19h02.09.402,Serial_Dependence_U,2023.2.3,Win32,59.52380952364454,,,,,,3585.9065999999043,74,7,3585.906799999952,74,,,,3589.3028999998564,3589.8028999998564,3588.7863999998567,3589.3028999998564,3586.920299999952,3588.7863999998567,3589.8028999998564,3590.3027999999526,3590.3028999998564,3594.8027999999526,3389,3594.8027999999526,5,3594.8043999998567,7,24,234,10,1,0.8,0.3,Time
,,920169,001,女,27,2025-06-04_19h02.09.402,Serial_Dependence_U,2023.2.3,Win32,59.52380952364454,,,,,,3594.8051999998092,265,7,3594.8055,265,,,,3599.0016999998093,3599.501199999809,3598.4852999999525,3599.0016999998093,3595.8187999999523,3598.4852999999525,3599.501299999952,3600.001199999809,3600.001199999809,3604.167399999857,3759,3604.167399999857,5,3604.169099999904,7,25,235,14,1,1.6,0.3,Time
,,920169,001,女,27,2025-06-04_19h02.09.402,Serial_Dependence_U,2023.2.3,Win32,59.52380952364454,,,,,,3604.1698999998566,239,7,3604.170199999809,239,,,,3608.333599999905,3608.832899999857,3607.817199999809,3608.3335,3605.1839999999997,3607.8170999999043,3608.833099999905,3609.332899999857,3609.333,3613.099699999809,3753,3613.099699999809,5,3613.101599999905,7,26,236,29,1,1.6,0.7,Time
,,920169,001,女,27,2025-06-04_19h02.09.402,Serial_Dependence_U,2023.2.3,Win32,59.52380952364454,,,,,,3613.102099999904,282,7,3613.1023999998565,282,,,,3616.6653999998566,3617.1648999998565,3616.148699999809,3616.6653999998566,3614.1158999998565,3616.1485999999045,3617.165199999809,3617.6649999999995,3617.6649999999995,3621.266,3440,3621.2665,5,3621.267599999904,7,27,237,16,1,1,0.7,Time
,,920169,001,女,27,2025-06-04_19h02.09.402,Serial_Dependence_U,2023.2.3,Win32,59.52380952364454,,,,,,3621.2678999998566,241,7,3621.268199999809,241,,,,3624.8640999999047,3625.3635999999046,3624.3473999998564,3624.8640999999047,3622.281299999952,3624.3472999999526,3625.3635999999046,3625.8635,3625.8635,3630.197199999809,3648,3630.197699999809,5,3630.198899999857,7,28,238,11,1,1,0.3,Time
,,920169,001,女,27,2025-06-04_19h02.09.402,Serial_Dependence_U,2023.2.3,Win32,59.52380952364454,,,,,,3630.1992999999525,176,7,3630.199599999905,176,,,,3633.562799999952,3634.062199999809,3633.0461999998092,3633.562699999809,3631.213099999905,3633.0461999998092,3634.062199999809,3634.562199999809,3634.562299999952,3639.5121999998096,3456,3639.5125000000003,5,3639.514399999857,7,29,239,25,1,0.8,0.7,Time
,,920169,001,女,27,2025-06-04_19h02.09.402,Serial_Dependence_U,2023.2.3,Win32,59.52380952364454,,,,,,3639.514699999809,65,8,3710.1164999999996,65,s,70.58679999995275,,3713.7162999999523,3714.2155999999045,3713.199399999857,3713.7161999998093,3711.1332999999527,3713.1992999999525,3714.215699999809,3714.715299999952,3714.715399999857,3719.0318999998567,3353,3719.032199999809,5,3719.034,8,0,240,11,1,1,0.3,Time
,,920169,001,女,27,2025-06-04_19h02.09.402,Serial_Dependence_U,2023.2.3,Win32,59.52380952364454,,,,,,3719.0345,12,8,3719.0359999999996,12,,,,3723.1975999999045,3723.6973999998568,3722.681599999905,3723.1974999999998,3720.0482999999526,3722.6815,3723.6973999998568,3724.197299999952,3724.1973999998568,3728.2308999998572,3959,3728.231099999905,5,3728.232699999809,8,1,241,9,1,1.6,0.7,Time
,,920169,001,女,27,2025-06-04_19h02.09.402,Serial_Dependence_U,2023.2.3,Win32,59.52380952364454,,,,,,3728.233299999952,279,8,3728.2335,279,,,,3731.8299999999995,3732.3292999999526,3731.3134999999997,3731.8299999999995,3729.2470999999045,3731.3133999998568,3732.3293999998573,3732.8292999999526,3732.8295000000003,3736.529399999857,3666,3736.5295,5,3736.531199999809,8,2,242,1,1,1,0.3,Time
,,920169,001,女,27,2025-06-04_19h02.09.402,Serial_Dependence_U,2023.2.3,Win32,59.52380952364454,,,,,,3736.5318999998567,347,8,3736.5320999999044,347,,,,3739.928199999809,3740.428099999904,3739.4120999999045,3739.928099999904,3737.545699999809,3739.4120999999045,3740.428099999904,3740.928099999904,3740.928199999809,3744.378099999905,3344,3744.3781999998096,5,3744.3794999999996,8,3,243,0,1,0.8,0.3,Time
,,920169,001,女,27,2025-06-04_19h02.09.402,Serial_Dependence_U,2023.2.3,Win32,59.52380952364454,,,,,,3744.3803999998568,243,8,3744.380699999809,243,,,,3748.5769999999998,3749.076699999809,3748.0607999999525,3748.5769999999998,3745.394399999857,3748.0605999999048,3749.076699999809,3749.576699999809,3749.576699999809,3755.959599999904,4313,3755.959699999809,5,3755.961399999857,8,4,244,14,1,1.6,0.3,Time
,,920169,001,女,27,2025-06-04_19h02.09.402,Serial_Dependence_U,2023.2.3,Win32,59.52380952364454,,,,,,3755.9620999999047,42,8,3755.9622999999524,42,,,,3759.525399999857,3760.0246999998094,3759.0088999998566,3759.5252999999525,3756.975899999857,3759.008799999952,3760.0247999999524,3760.5246999998094,3760.5247999999524,3764.041699999809,3110,3764.041899999857,5,3764.043599999905,8,5,245,26,1,1,0.7,Time
,,920169,001,女,27,2025-06-04_19h02.09.402,Serial_Dependence_U,2023.2.3,Win32,59.52380952364454,,,,,,3764.044099999904,127,8,3764.044299999952,127,,,,3767.840699999809,3768.3399999999997,3767.324,3767.8405999999045,3765.057799999952,3767.323899999857,3768.3399999999997,3768.8399999999997,3768.8400999999044,3776.006399999857,3530,3776.0065,5,3776.0083999998565,8,6,246,22,1,1.2,0.3,Time
,,920169,001,女,27,2025-06-04_19h02.09.402,Serial_Dependence_U,2023.2.3,Win32,59.52380952364454,,,,,,3776.0090999999043,9,8,3776.009299999952,9,,,,3780.2049999999995,3780.7048999998565,3779.688799999952,3780.2048999998565,3777.0225999999043,3779.688699999809,3780.7049999999995,3781.2065999999045,3781.206899999857,3785.621299999952,3917,3785.6214999999997,5,3785.6231999998095,8,7,247,24,1,1.6,0.3,Time
,,920169,001,女,27,2025-06-04_19h02.09.402,Serial_Dependence_U,2023.2.3,Win32,59.52380952364454,,,,,,3785.6237999999526,247,8,3785.624099999905,247,,,,3788.9875999999044,3789.4863999998565,3788.470899999857,3788.9875999999044,3786.6372999999526,3788.4707999999523,3789.4864999999995,3789.9865999999042,3789.986699999809,3793.3704999999995,3320,3793.371299999952,5,3793.3726999998094,8,8,248,15,1,0.8,0.7,Time
,,920169,001,女,27,2025-06-04_19h02.09.402,Serial_Dependence_U,2023.2.3,Win32,59.52380952364454,,,,,,3793.373,219,8,3793.3731999998095,219,,,,3797.169299999952,3797.6683999998572,3796.652699999809,3797.169299999952,3794.386399999857,3796.6525999999044,3797.6683999998572,3798.168599999905,3798.1686999998087,3802.302,3839,3802.302099999905,5,3802.303699999809,8,9,249,2,1,1.2,0.3,Time
,,920169,001,女,27,2025-06-04_19h02.09.402,Serial_Dependence_U,2023.2.3,Win32,59.52380952364454,,,,,,3802.3043999998567,245,8,3802.3045999999044,245,,,,3806.3010999999046,3806.8005999999045,3805.784599999905,3806.301,3803.318199999809,3805.7845,3806.8005999999045,3807.3006999998092,3807.3007999999522,3811.433699999809,3802,3811.4340999999044,5,3811.4356999998095,8,10,250,3,1,1.4,0.3,Time
,,920169,001,女,27,2025-06-04_19h02.09.402,Serial_Dependence_U,2023.2.3,Win32,59.52380952364454,,,,,,3811.4361999998096,105,8,3811.4363999998573,105,,,,3815.3995999999047,3815.898899999857,3814.8831999998088,3815.3995,3812.4500000000003,3814.883099999905,3815.898899999857,3816.398799999952,3816.398799999952,3821.115599999904,4136,3821.115599999904,5,3821.118,8,11,251,18,1,1.4,0.7,Time
,,920169,001,女,27,2025-06-04_19h02.09.402,Serial_Dependence_U,2023.2.3,Win32,59.52380952364454,,,,,,3821.118399999857,288,8,3821.1186999998095,288,,,,3824.914599999904,3825.4141999998096,3824.398199999809,3824.9145000000003,3822.1316999998094,3824.3980999999044,3825.4141999998096,3825.9142999999526,3825.9143999998564,3830.765,3416,3830.7655,5,3830.7665,8,12,252,12,1,1.2,0.3,Time
