Scale_setup.started,Scale_setup.stopped,participant,session,sex,age,date,expName,psychopyVersion,OS,frameRate,Intro.started,Intro.stopped,key_resp_2.keys,key_resp_2.rt,key_resp_2.duration,block.started,direction,Block_id,block.stopped,trial_direction,Block_resp_2.keys,Block_resp_2.rt,Block_resp_2.duration,ITI.started,ITI.stopped,Mask_2.started,Mask_2.stopped,encoding.started,encoding.stopped,Cue.started,Cue.stopped,Response.started,Response.stopped,keyDuration,Feedback_Time.started,FeedbackID_T,Feedback_Time.stopped,trials.thisRepN,trials.thisTrialN,trials.thisN,trials.thisIndex,trials.ran,TimeDur,Coherence1,TrialType
0.00009999996422038748,0.00029999995234675225,963221,001,男,21,2025-06-03_22h26.47.480,Serial_Dependence_U,2023.2.3,Win32,15.015015015020264,,,,,,,,,,,,,,,,,,,,,,,,,,,,,,,,,,,
,,963221,001,男,21,2025-06-03_22h26.47.480,Serial_Dependence_U,2023.2.3,Win32,15.015015015020264,194.30179999995238,267.1337999999524,space,72.69009999996422,,,,,,,,,,,,,,,,,,,,,,,,,,,,,,,
,,963221,001,男,21,2025-06-03_22h26.47.480,Serial_Dependence_U,2023.2.3,Win32,15.015015015020264,,,,,,267.1438999999762,261,0,298.8686999999881,261,s,31.625999999999976,,302.8772999999523,303.28019999998804,302.32009999996427,302.8770999999643,299.8292999999523,302.32,303.2802999999523,303.685,303.6852999999523,317.39849999999996,4519,317.3986999999881,5,318.3798999999762,0,0,0,8,1,1.4,0.7,Time
,,963221,001,男,21,2025-06-03_22h26.47.480,Serial_Dependence_U,2023.2.3,Win32,15.015015015020264,,,,,,318.3805999999642,138,0,318.38169999998814,138,,,,322.36509999996423,322.7665999999643,321.81209999996423,322.36509999996423,319.325,321.81209999996423,322.7665999999643,323.2945999999642,323.2945999999642,331.117,6446,331.1170999999643,5,332.06159999996424,0,1,1,28,1,1.4,0.7,Time
,,963221,001,男,21,2025-06-03_22h26.47.480,Serial_Dependence_U,2023.2.3,Win32,15.015015015020264,,,,,,332.06179999995237,25,0,332.0618999999762,25,,,,335.7650999999642,336.28879999995235,335.21,335.76500000000004,333.0207999999523,335.20989999997613,336.28879999995235,336.81889999997617,336.81889999997617,348.68559999996427,6142,348.68559999996427,5,349.636,0,2,2,1,1,1,0.3,Time
,,963221,001,男,21,2025-06-03_22h26.47.480,Serial_Dependence_U,2023.2.3,Win32,15.015015015020264,,,,,,349.6362999999523,236,0,349.63639999997616,236,,,,353.47559999996423,353.87339999997613,352.9271999999881,353.47559999996423,350.58609999996423,352.9271999999881,353.87339999997613,354.27569999998803,354.27569999998803,361.9675999999642,6595,361.96769999998804,5,362.9222999999524,0,3,3,7,1,1.2,0.7,Time
,,963221,001,男,21,2025-06-03_22h26.47.480,Serial_Dependence_U,2023.2.3,Win32,15.015015015020264,,,,,,362.92259999996423,242,0,362.9226999999881,242,,,,366.6037999999523,367.1372999999523,366.05,366.6036999999881,363.9858999999762,366.04989999997616,367.1372999999523,367.6676999999881,367.66779999995236,375.88050000000004,7253,375.8805999999642,5,376.84600000000006,0,4,4,16,1,1,0.7,Time
,,963221,001,男,21,2025-06-03_22h26.47.480,Serial_Dependence_U,2023.2.3,Win32,15.015015015020264,,,,,,376.8461999999881,22,0,376.8463999999762,22,,,,380.8162999999524,381.22529999995237,380.25849999999997,380.8161999999881,377.925,380.25849999999997,381.22529999995237,381.7581999999881,381.75829999995227,389.7247999999524,6727,389.7248999999761,5,390.6780999999642,0,5,5,12,1,1.2,0.3,Time
,,963221,001,男,21,2025-06-03_22h26.47.480,Serial_Dependence_U,2023.2.3,Win32,15.015015015020264,,,,,,390.6783999999762,331,0,390.6785999999642,331,,,,394.6141999999881,395.1478999999761,394.05589999997613,394.614,391.7475,394.0556999999881,395.1478999999761,395.5485999999642,395.5485999999642,403.3398999999761,6015,403.34,5,404.28659999996427,0,6,6,2,1,1.2,0.3,Time
,,963221,001,男,21,2025-06-03_22h26.47.480,Serial_Dependence_U,2023.2.3,Win32,15.015015015020264,,,,,,404.2867999999523,158,0,404.28689999997613,158,,,,407.8501999999881,408.37600000000003,407.29139999997614,407.84999999999997,405.37529999995235,407.2911999999881,408.37600000000003,408.8988999999762,408.8988999999762,437.0203999999762,3719,437.0205999999643,5,437.9822999999523,0,7,7,20,1,0.8,0.3,Time
,,963221,001,男,21,2025-06-03_22h26.47.480,Serial_Dependence_U,2023.2.3,Win32,15.015015015020264,,,,,,437.9825,50,0,437.9825999999643,50,,,,442.0695,442.4722999999523,441.52209999996427,442.06939999997616,439.05589999997613,441.522,442.4722999999523,443.00689999997616,443.00689999997616,453.4072999999523,4942,453.4073999999761,5,454.35669999998805,0,8,8,3,1,1.4,0.3,Time
,,963221,001,男,21,2025-06-03_22h26.47.480,Serial_Dependence_U,2023.2.3,Win32,15.015015015020264,,,,,,454.357,138,0,454.3570999999642,138,,,,458.7425999999643,459.1486999999881,458.18489999997615,458.7425999999643,455.43850000000003,458.1847999999523,459.1486999999881,459.68199999999996,459.68209999996424,489.5238999999762,4642,489.5238999999762,5,490.4825999999643,0,9,9,9,1,1.6,0.7,Time
,,963221,001,男,21,2025-06-03_22h26.47.480,Serial_Dependence_U,2023.2.3,Win32,15.015015015020264,,,,,,490.48289999997615,184,0,490.483,184,,,,494.6980999999642,495.1087999999523,494.15879999995235,494.69800000000004,491.43329999995234,494.15879999995235,495.1087999999523,495.6362999999523,495.6362999999523,502.88909999996423,6166,502.88909999996423,5,503.83599999999996,0,10,10,14,1,1.6,0.3,Time
,,963221,001,男,21,2025-06-03_22h26.47.480,Serial_Dependence_U,2023.2.3,Win32,15.015015015020264,,,,,,503.8363999999762,315,0,503.83650000000006,315,,,,507.24899999999997,507.77479999995234,506.6990999999643,507.2488999999761,504.77309999996424,506.6990999999643,507.77479999995234,508.3050999999643,508.30519999998813,515.6931999999881,6702,515.6931999999881,5,516.6512999999522,0,11,11,5,1,0.8,0.7,Time
,,963221,001,男,21,2025-06-03_22h26.47.480,Serial_Dependence_U,2023.2.3,Win32,15.015015015020264,,,,,,516.6514999999999,352,0,516.6517999999523,352,,,,520.7460999999641,521.1488999999763,520.1928999999761,520.7460999999641,517.7285999999642,520.1928999999761,521.1488999999763,521.6755,521.6755,530.4195999999642,7655,530.4195999999642,5,531.3806999999881,0,12,12,18,1,1.4,0.7,Time
,,963221,001,男,21,2025-06-03_22h26.47.480,Serial_Dependence_U,2023.2.3,Win32,15.015015015020264,,,,,,531.3808999999762,127,0,531.3810000000001,127,,,,535.0967999999523,535.6271999999881,534.5362999999522,535.096699999988,532.4594999999999,534.5361999999882,535.6272999999524,536.149199999988,536.1492999999523,543.0038999999763,6173,543.0038999999763,5,543.9556999999882,0,13,13,21,1,1,0.3,Time
,,963221,001,男,21,2025-06-03_22h26.47.480,Serial_Dependence_U,2023.2.3,Win32,15.015015015020264,,,,,,543.9558999999763,236,0,543.9560999999644,236,,,,548.0892999999523,548.623699999988,547.5441999999882,548.0891999999881,545.0411999999881,547.5441999999882,548.6237999999523,549.1612999999525,549.1612999999525,573.386,4127,573.3860999999642,5,574.3355999999644,0,14,14,13,1,1.4,0.3,Time
,,963221,001,男,21,2025-06-03_22h26.47.480,Serial_Dependence_U,2023.2.3,Win32,15.015015015020264,,,,,,574.3357999999523,123,0,574.336,123,,,,578.3125999999643,578.7232999999524,577.7513999999762,578.3125,575.4117999999523,577.7511999999881,578.7232999999524,579.1423999999763,579.1423999999763,585.5468999999762,5714,585.5468999999762,5,586.5095000000001,0,15,15,17,1,1.2,0.7,Time
,,963221,001,男,21,2025-06-03_22h26.47.480,Serial_Dependence_U,2023.2.3,Win32,15.015015015020264,,,,,,586.5096999999882,39,0,586.5097999999523,39,,,,590.1932999999524,590.5935999999642,589.6508999999762,590.1930999999643,587.4611999999881,589.6507999999524,590.5936999999881,591.1221999999882,591.1221999999882,595.6155999999644,3809,595.6155999999644,5,596.5645000000002,0,16,16,11,1,1,0.3,Time
,,963221,001,男,21,2025-06-03_22h26.47.480,Serial_Dependence_U,2023.2.3,Win32,15.015015015020264,,,,,,596.5647999999524,105,0,596.5648999999762,105,,,,600.123,600.5207999999525,599.5755000000001,600.123,597.5166999999881,599.5752999999524,600.5208999999763,601.0491999999881,601.0492999999524,606.2523999999762,4653,606.2523999999762,5,607.2016999999883,0,17,17,26,1,1,0.7,Time
,,963221,001,男,21,2025-06-03_22h26.47.480,Serial_Dependence_U,2023.2.3,Win32,15.015015015020264,,,,,,607.202,94,0,607.202,94,,,,610.7988999999761,611.2016999999883,610.2503999999763,610.7987999999523,608.2856999999881,610.2502999999524,611.2017999999523,611.7252999999523,611.7252999999523,619.1207999999524,6566,619.1208999999762,5,620.0666999999883,0,18,18,10,1,0.8,0.3,Time
,,963221,001,男,21,2025-06-03_22h26.47.480,Serial_Dependence_U,2023.2.3,Win32,15.015015015020264,,,,,,620.067,117,0,620.0670999999643,117,,,,624.0443999999761,624.5740000000001,623.4945999999643,624.0443999999761,621.1371999999881,623.4945,624.5740000000001,625.1003999999762,625.1005,643.1182999999523,5063,643.1183999999762,5,644.0705,0,19,19,22,1,1.2,0.3,Time
,,963221,001,男,21,2025-06-03_22h26.47.480,Serial_Dependence_U,2023.2.3,Win32,15.015015015020264,,,,,,644.0706999999882,308,0,644.0707999999524,308,,,,648.0305999999644,648.4352999999523,647.4837999999525,648.0305000000001,645.1390999999644,647.4837999999525,648.4353999999762,648.8398999999763,648.8400000000001,654.6055999999644,4386,654.6055999999644,5,655.5608999999763,0,20,20,27,1,1.2,0.7,Time
,,963221,001,男,21,2025-06-03_22h26.47.480,Serial_Dependence_U,2023.2.3,Win32,15.015015015020264,,,,,,655.561199999988,195,0,655.5612999999523,195,,,,659.1095999999643,659.6385,658.5630999999644,659.1095,656.6256999999882,658.5628999999763,659.6385,660.1557999999525,660.1558999999763,704.7707999999525,5063,704.7708999999763,5,705.7320999999642,0,21,21,15,1,0.8,0.7,Time
,,963221,001,男,21,2025-06-03_22h26.47.480,Serial_Dependence_U,2023.2.3,Win32,15.015015015020264,,,,,,705.7325000000001,93,0,705.7326999999882,93,,,,710.0973999999762,710.6286999999882,709.5441999999882,710.0973999999762,706.8001999999881,709.5440999999644,710.6286999999882,711.0260000000001,711.0260000000001,717.2016999999883,5351,717.2016999999883,5,718.1528999999762,0,22,22,24,1,1.6,0.3,Time
,,963221,001,男,21,2025-06-03_22h26.47.480,Serial_Dependence_U,2023.2.3,Win32,15.015015015020264,,,,,,718.1530999999643,147,0,718.1531999999881,147,,,,722.3681999999881,722.7767999999523,721.8187999999525,722.3680999999642,719.2252999999523,721.8186999999882,722.7768999999762,723.1785999999643,723.1785999999643,729.7583999999763,4530,729.7585000000001,5,730.7055999999643,0,23,23,23,1,1.4,0.3,Time
,,963221,001,男,21,2025-06-03_22h26.47.480,Serial_Dependence_U,2023.2.3,Win32,15.015015015020264,,,,,,730.7058999999763,343,0,730.7058999999763,343,,,,734.4335000000001,734.9605000000001,733.8815,734.4335000000001,731.7838999999763,733.8813999999763,734.9605999999644,735.4933999999762,735.4935999999643,742.7320999999642,6418,742.7321999999881,5,743.6812999999524,0,24,24,6,1,1,0.7,Time
,,963221,001,男,21,2025-06-03_22h26.47.480,Serial_Dependence_U,2023.2.3,Win32,15.015015015020264,,,,,,743.6815999999642,207,0,743.681699999988,207,,,,748.0361999999882,748.5647999999524,747.4886999999881,748.0360999999643,744.7470000000001,747.4886999999881,748.5647999999524,748.9668999999762,748.9668999999762,761.6843999999762,12027,761.6845000000001,5,762.6311999999882,0,25,25,29,1,1.6,0.7,Time
,,963221,001,男,21,2025-06-03_22h26.47.480,Serial_Dependence_U,2023.2.3,Win32,15.015015015020264,,,,,,762.6315,83,0,762.6315999999642,83,,,,767.0126999999882,767.4176999999881,766.4602999999524,767.0126999999882,763.6973999999761,766.4602999999524,767.4176999999881,767.9416999999883,767.9416999999883,778.0552999999525,8611,778.0553999999763,5,779.0120000000002,0,26,26,4,1,1.6,0.3,Time
,,963221,001,男,21,2025-06-03_22h26.47.480,Serial_Dependence_U,2023.2.3,Win32,15.015015015020264,,,,,,779.0122999999523,73,0,779.0123999999762,73,,,,782.5438999999762,782.950699999988,781.9945,782.5436999999881,780.0853999999763,781.9945,782.9507999999523,783.3567999999523,783.3568999999761,923.3697999999524,4431,923.3698999999763,5,924.316,0,27,27,25,1,0.8,0.7,Time
,,963221,001,男,21,2025-06-03_22h26.47.480,Serial_Dependence_U,2023.2.3,Win32,15.015015015020264,,,,,,924.3162999999524,106,0,924.3163999999763,106,,,,928.6950999999642,929.2236999999882,928.1385,928.6950000000002,925.3791999999883,928.1383999999762,929.2236999999882,929.7528999999763,929.7528999999763,937.5255999999642,6825,937.5255999999642,5,938.4916999999882,0,28,28,19,1,1.6,0.7,Time
,,963221,001,男,21,2025-06-03_22h26.47.480,Serial_Dependence_U,2023.2.3,Win32,15.015015015020264,,,,,,938.4918999999761,23,0,938.4920999999642,23,,,,942.0523999999762,942.5805,941.5022999999524,942.0522999999523,939.5800999999642,941.5022999999524,942.5805,942.9806999999882,942.9806999999882,949.9233999999763,6541,949.9233999999763,5,950.8770000000002,0,29,29,0,1,0.8,0.3,Time
,,963221,001,男,21,2025-06-03_22h26.47.480,Serial_Dependence_U,2023.2.3,Win32,15.015015015020264,,,,,,950.8772999999524,255,1,985.0760999999643,255,s,34.110999999999876,,988.5192999999524,988.9195999999642,987.9693999999763,988.5192999999524,986.0335999999643,987.9692999999525,988.9195999999642,989.4431999999881,989.4432999999524,995.9983999999763,5736,995.9985000000001,5,996.0038999999763,1,0,30,20,1,0.8,0.3,Time
,,963221,001,男,21,2025-06-03_22h26.47.480,Serial_Dependence_U,2023.2.3,Win32,15.015015015020264,,,,,,996.0040999999644,336,1,996.0047999999524,336,,,,999.8490000000002,1000.2513999999762,999.2927999999524,999.8488999999763,996.9555999999643,999.2926999999881,1000.2513999999762,1000.7785000000001,1000.7785000000001,1008.441,5599,1008.441,5,1008.4466999999881,1,1,31,2,1,1.2,0.3,Time
,,963221,001,男,21,2025-06-03_22h26.47.480,Serial_Dependence_U,2023.2.3,Win32,15.015015015020264,,,,,,1008.4470000000001,168,1,1008.4470000000001,168,,,,1012.2622999999523,1012.6635000000001,1011.7123999999762,1012.2622999999523,1009.3847999999523,1011.7122999999524,1012.6635000000001,1013.0635999999643,1013.0635999999643,1020.0576999999882,6179,1020.0577999999523,5,1020.0631999999882,1,2,32,27,1,1.2,0.7,Time
,,963221,001,男,21,2025-06-03_22h26.47.480,Serial_Dependence_U,2023.2.3,Win32,15.015015015020264,,,,,,1020.0633999999761,332,1,1020.0635,332,,,,1024.4637999999525,1024.9895000000001,1023.9102999999525,1024.4637999999525,1021.1500000000001,1023.9101999999882,1024.9895000000001,1025.5150999999644,1025.5150999999644,1039.4703999999763,4812,1039.4705000000001,5,1039.4761999999882,1,3,33,4,1,1.6,0.3,Time
,,963221,001,男,21,2025-06-03_22h26.47.480,Serial_Dependence_U,2023.2.3,Win32,15.015015015020264,,,,,,1039.4762999999523,236,1,1039.4763999999761,236,,,,1043.1673999999762,1043.699,1042.6170999999642,1043.1672999999523,1040.428,1042.617,1043.699,1044.1291999999883,1044.1291999999883,1056.4513999999763,4117,1056.4513999999763,5,1056.4572999999523,1,4,34,21,1,1,0.3,Time
,,963221,001,男,21,2025-06-03_22h26.47.480,Serial_Dependence_U,2023.2.3,Win32,15.015015015020264,,,,,,1056.4575,104,1,1056.4575,104,,,,1060.5695,1061.104699999988,1060.0252999999525,1060.5695,1057.5397999999525,1060.0250999999644,1061.104699999988,1061.6352999999524,1061.6352999999524,1066.5510999999642,4104,1066.5510999999642,5,1066.5563999999763,1,5,35,18,1,1.4,0.7,Time
,,963221,001,男,21,2025-06-03_22h26.47.480,Serial_Dependence_U,2023.2.3,Win32,15.015015015020264,,,,,,1066.5565999999642,174,1,1066.556699999988,174,,,,1070.1315999999642,1070.6527999999523,1069.5833999999763,1070.1315999999642,1067.5110999999642,1069.5833999999763,1070.6528999999762,1071.0585,1071.0585,1075.1745,3293,1075.1745999999644,5,1075.1797999999524,1,6,36,6,1,1,0.7,Time
,,963221,001,男,21,2025-06-03_22h26.47.480,Serial_Dependence_U,2023.2.3,Win32,15.015015015020264,,,,,,1075.1800999999643,144,1,1075.1800999999643,144,,,,1078.8608999999763,1079.2612999999524,1078.3193999999762,1078.8607999999524,1076.2491999999882,1078.3193999999762,1079.2613999999762,1079.6623999999763,1079.6623999999763,1084.1640999999643,3416,1084.164199999988,5,1084.1695999999642,1,7,37,16,1,1,0.7,Time
,,963221,001,男,21,2025-06-03_22h26.47.480,Serial_Dependence_U,2023.2.3,Win32,15.015015015020264,,,,,,1084.1697999999524,74,1,1084.1697999999524,74,,,,1087.7205000000001,1088.1215999999642,1087.1692999999523,1087.7203999999763,1085.2522999999524,1087.1692999999523,1088.121699999988,1088.650699999988,1088.650699999988,1092.3447999999523,3419,1092.3448999999762,5,1092.350199999988,1,8,38,15,1,0.8,0.7,Time
,,963221,001,男,21,2025-06-03_22h26.47.480,Serial_Dependence_U,2023.2.3,Win32,15.015015015020264,,,,,,1092.3503999999762,226,1,1092.3503999999762,226,,,,1096.0417999999524,1096.5655999999642,1095.4852999999523,1096.0416999999882,1093.4181999999882,1095.4851999999883,1096.5655999999642,1097.1003999999762,1097.1003999999762,1102.184,4115,1102.1840999999642,5,1102.1893999999763,1,9,39,11,1,1,0.3,Time
,,963221,001,男,21,2025-06-03_22h26.47.480,Serial_Dependence_U,2023.2.3,Win32,15.015015015020264,,,,,,1102.1895999999642,337,1,1102.189699999988,337,,,,1106.1665999999643,1106.5867999999523,1105.6003999999762,1106.1665,1103.2740999999644,1105.6002999999523,1106.5867999999523,1106.9905999999644,1106.9905999999644,1112.3215999999643,4648,1112.3216999999881,5,1112.3270999999643,1,10,40,12,1,1.2,0.3,Time
,,963221,001,男,21,2025-06-03_22h26.47.480,Serial_Dependence_U,2023.2.3,Win32,15.015015015020264,,,,,,1112.3272999999524,279,1,1112.3273999999763,279,,,,1116.71,1117.1115,1116.1665,1116.71,1113.4121999999882,1116.1663999999762,1117.1115,1117.5130000000001,1117.5130000000001,1123.1393999999761,4798,1123.1393999999761,5,1123.1446999999882,1,11,41,24,1,1.6,0.3,Time
,,963221,001,男,21,2025-06-03_22h26.47.480,Serial_Dependence_U,2023.2.3,Win32,15.015015015020264,,,,,,1123.145,107,1,1123.145,107,,,,1126.8288999999763,1127.234199999988,1126.2715,1126.8287999999525,1124.0905999999643,1126.2712999999524,1127.234199999988,1127.7583999999763,1127.7585000000001,1133.2123999999762,4498,1133.2125,5,1133.2178999999762,1,12,42,1,1,1,0.3,Time
,,963221,001,男,21,2025-06-03_22h26.47.480,Serial_Dependence_U,2023.2.3,Win32,15.015015015020264,,,,,,1133.2180999999644,267,1,1133.2181999999882,267,,,,1137.5820999999644,1137.987,1137.0245,1137.582,1134.2967999999523,1137.0245,1137.987,1138.3902999999523,1138.3902999999523,1144.2630999999642,5055,1144.2630999999642,5,1144.2685000000001,1,13,43,29,1,1.6,0.7,Time
,,963221,001,男,21,2025-06-03_22h26.47.480,Serial_Dependence_U,2023.2.3,Win32,15.015015015020264,,,,,,1144.2686999999883,23,1,1144.2686999999883,23,,,,1148.6323999999763,1149.160699999988,1148.0872999999524,1148.6322999999525,1145.338199999988,1148.0872999999524,1149.160699999988,1149.6881999999882,1149.6881999999882,1155.8277999999523,4486,1155.8277999999523,5,1155.8335,1,14,44,9,1,1.6,0.7,Time
,,963221,001,男,21,2025-06-03_22h26.47.480,Serial_Dependence_U,2023.2.3,Win32,15.015015015020264,,,,,,1155.833699999988,25,1,1155.8337999999524,25,,,,1159.8150999999643,1160.3430999999644,1159.267699999988,1159.815,1156.7816999999882,1159.267699999988,1160.3430999999644,1160.8693999999762,1160.8693999999762,1165.7952999999525,4110,1165.7952999999525,5,1165.8005999999643,1,15,45,3,1,1.4,0.3,Time
,,963221,001,男,21,2025-06-03_22h26.47.480,Serial_Dependence_U,2023.2.3,Win32,15.015015015020264,,,,,,1165.8008999999763,36,1,1165.8008999999763,36,,,,1170.0671999999881,1170.4705000000001,1169.5168999999762,1170.0671999999881,1166.8687999999524,1169.5167999999524,1170.4705000000001,1171.0010999999643,1171.001199999988,1176.8867999999525,5063,1176.8868999999763,5,1176.8920999999643,1,16,46,19,1,1.6,0.7,Time
,,963221,001,男,21,2025-06-03_22h26.47.480,Serial_Dependence_U,2023.2.3,Win32,15.015015015020264,,,,,,1176.8922999999525,227,1,1176.8925000000002,227,,,,1180.7655999999643,1181.1690999999644,1180.2180999999644,1180.7655,1177.9765999999643,1180.2180999999644,1181.1691999999882,1181.5706999999882,1181.5707999999524,1187.929699999988,4799,1187.929699999988,5,1187.9348999999763,1,17,47,17,1,1.2,0.7,Time
,,963221,001,男,21,2025-06-03_22h26.47.480,Serial_Dependence_U,2023.2.3,Win32,15.015015015020264,,,,,,1187.935199999988,266,1,1187.9352999999523,266,,,,1192.0285000000001,1192.5562999999524,1191.4705999999644,1192.0283999999763,1189.0065999999642,1191.4705000000001,1192.5562999999524,1192.9570999999644,1192.9571999999882,1199.5245999999643,5199,1199.5245999999643,5,1199.5302999999524,1,18,48,28,1,1.4,0.7,Time
,,963221,001,男,21,2025-06-03_22h26.47.480,Serial_Dependence_U,2023.2.3,Win32,15.015015015020264,,,,,,1199.5305999999644,29,1,1199.5306999999882,29,,,,1203.3593999999762,1203.7605999999644,1202.8028999999763,1203.3592999999523,1200.4748999999763,1202.8027999999524,1203.7605999999644,1204.1610999999643,1204.1610999999643,1210.338,5223,1210.3380999999642,5,1210.3432999999525,1,19,49,7,1,1.2,0.7,Time
,,963221,001,男,21,2025-06-03_22h26.47.480,Serial_Dependence_U,2023.2.3,Win32,15.015015015020264,,,,,,1210.3435999999642,191,1,1210.343699999988,191,,,,1214.611699999988,1215.1427999999523,1214.0583999999762,1214.6115999999643,1211.2910000000002,1214.0583999999762,1215.1427999999523,1215.5445999999642,1215.5445999999642,1224.0243999999761,3982,1224.0243999999761,5,1224.0302999999524,1,20,50,14,1,1.6,0.3,Time
,,963221,001,男,21,2025-06-03_22h26.47.480,Serial_Dependence_U,2023.2.3,Win32,15.015015015020264,,,,,,1224.0305,302,1,1224.0305999999644,302,,,,1228.128199999988,1228.6570000000002,1227.5750999999643,1228.128199999988,1224.9808999999761,1227.5750999999643,1228.6570000000002,1229.0560999999643,1229.0560999999643,1234.4230999999643,4558,1234.4231999999881,5,1234.4285,1,21,51,23,1,1.4,0.3,Time
,,963221,001,男,21,2025-06-03_22h26.47.480,Serial_Dependence_U,2023.2.3,Win32,15.015015015020264,,,,,,1234.428699999988,138,1,1234.428699999988,138,,,,1238.4207999999524,1238.9505999999642,1237.8700999999644,1238.420699999988,1235.3840999999643,1237.8700999999644,1238.9505999999642,1239.3508999999763,1239.351,1245.5237999999524,4928,1245.5238999999763,5,1245.5290999999643,1,22,52,13,1,1.4,0.3,Time
,,963221,001,男,21,2025-06-03_22h26.47.480,Serial_Dependence_U,2023.2.3,Win32,15.015015015020264,,,,,,1245.5292999999524,257,1,1245.5293999999762,257,,,,1248.9605000000001,1249.371,1248.406199999988,1248.9603999999763,1246.4850000000001,1248.4060999999642,1249.371,1249.8987999999524,1249.8987999999524,1255.7896999999882,5206,1255.7896999999882,5,1255.795,1,23,53,25,1,0.8,0.7,Time
,,963221,001,男,21,2025-06-03_22h26.47.480,Serial_Dependence_U,2023.2.3,Win32,15.015015015020264,,,,,,1255.7951999999882,199,1,1255.7951999999882,199,,,,1259.7588999999762,1260.1676999999881,1259.2135,1259.7588999999762,1256.8705,1259.2135,1260.1676999999881,1260.6960999999644,1260.6960999999644,1265.3263999999763,4498,1265.3265000000001,5,1265.332,1,24,54,22,1,1.2,0.3,Time
,,963221,001,男,21,2025-06-03_22h26.47.480,Serial_Dependence_U,2023.2.3,Win32,15.015015015020264,,,,,,1265.3321999999882,119,1,1265.3323999999761,119,,,,1268.873,1269.3973999999762,1268.3200000000002,1268.8728999999762,1266.4001999999882,1268.3200000000002,1269.3975,1269.927199999988,1269.927199999988,1276.0581999999881,5028,1276.0581999999881,5,1276.063699999988,1,25,55,0,1,0.8,0.3,Time
,,963221,001,男,21,2025-06-03_22h26.47.480,Serial_Dependence_U,2023.2.3,Win32,15.015015015020264,,,,,,1276.064,41,1,1276.0640999999644,41,,,,1279.749,1280.1533999999763,1279.1985999999642,1279.7488999999762,1277.1345000000001,1279.1985,1280.1533999999763,1280.6815000000001,1280.6815000000001,1285.2035999999644,3566,1285.2035999999644,5,1285.209,1,26,56,26,1,1,0.7,Time
,,963221,001,男,21,2025-06-03_22h26.47.480,Serial_Dependence_U,2023.2.3,Win32,15.015015015020264,,,,,,1285.2091999999882,174,1,1285.2091999999882,174,,,,1288.757,1289.2888999999761,1288.2010999999643,1288.7568999999762,1286.278,1288.2008999999762,1289.2888999999761,1289.8166999999883,1289.8167999999523,1336.121,3415,1336.121,5,1336.1266999999882,1,27,57,5,1,0.8,0.7,Time
,,963221,001,男,21,2025-06-03_22h26.47.480,Serial_Dependence_U,2023.2.3,Win32,15.015015015020264,,,,,,1336.1267999999525,268,1,1336.1268999999763,268,,,,1339.5492999999524,1339.9516999999883,1338.9963999999761,1339.549199999988,1337.0731999999882,1338.9962999999523,1339.9516999999883,1340.4757999999524,1340.4757999999524,1344.0237999999524,2725,1344.0237999999524,5,1344.0290999999643,1,28,58,10,1,0.8,0.3,Time
,,963221,001,男,21,2025-06-03_22h26.47.480,Serial_Dependence_U,2023.2.3,Win32,15.015015015020264,,,,,,1344.0292999999524,73,1,1344.0292999999524,73,,,,1348.0135999999643,1348.4186999999881,1347.4643999999762,1348.0135,1344.9772999999525,1347.4643999999762,1348.4186999999881,1348.955199999988,1348.955199999988,1353.6147999999523,3296,1353.6147999999523,5,1353.6201999999882,1,29,59,8,1,1.4,0.7,Time
,,963221,001,男,21,2025-06-03_22h26.47.480,Serial_Dependence_U,2023.2.3,Win32,15.015015015020264,,,,,,1353.6205,33,2,1357.9817999999523,33,s,4.271800000011808,,1361.5431999999882,1361.9458999999763,1360.9913999999762,1361.5431999999882,1359.0545999999642,1360.9912999999524,1361.9458999999763,1362.48,1362.48,1366.3077999999523,2862,1366.3083999999762,5,1366.3135999999643,2,0,60,0,1,0.8,0.3,Time
,,963221,001,男,21,2025-06-03_22h26.47.480,Serial_Dependence_U,2023.2.3,Win32,15.015015015020264,,,,,,1366.313699999988,268,2,1366.3143999999763,268,,,,1369.8676999999882,1370.3942999999524,1369.3145000000002,1369.8676999999882,1367.2587999999523,1369.3143999999763,1370.3942999999524,1370.9220999999643,1370.9220999999643,1375.4160999999642,2853,1375.416199999988,5,1375.4215000000002,2,1,61,16,1,1,0.7,Time
,,963221,001,男,21,2025-06-03_22h26.47.480,Serial_Dependence_U,2023.2.3,Win32,15.015015015020264,,,,,,1375.421699999988,269,2,1375.4217999999523,269,,,,1378.815699999988,1379.3451999999882,1378.2625,1378.815699999988,1376.3605999999643,1378.2622999999523,1379.3451999999882,1379.8775999999643,1379.8776999999882,1383.688,2984,1383.688,5,1383.6933999999762,2,2,62,15,1,0.8,0.7,Time
,,963221,001,男,21,2025-06-03_22h26.47.480,Serial_Dependence_U,2023.2.3,Win32,15.015015015020264,,,,,,1383.6935,344,2,1383.6935999999644,344,,,,1387.9545999999643,1388.3570999999642,1387.3986999999881,1387.9545999999643,1384.6470999999642,1387.3985999999643,1388.3570999999642,1388.8855999999644,1388.8855999999644,1393.9745999999643,4402,1393.9745999999643,5,1393.98,2,3,63,19,1,1.6,0.7,Time
,,963221,001,男,21,2025-06-03_22h26.47.480,Serial_Dependence_U,2023.2.3,Win32,15.015015015020264,,,,,,1393.9802999999524,231,2,1393.9802999999524,231,,,,1397.8131999999882,1398.2171999999882,1397.2605999999644,1397.8130999999644,1394.9270000000001,1397.2605,1398.2171999999882,1398.6218999999762,1398.6218999999762,1406.286,3452,1406.286,5,1406.2916999999882,2,4,64,22,1,1.2,0.3,Time
,,963221,001,男,21,2025-06-03_22h26.47.480,Serial_Dependence_U,2023.2.3,Win32,15.015015015020264,,,,,,1406.2918999999763,188,2,1406.2920000000001,188,,,,1410.6777999999524,1411.0848999999762,1410.1265,1410.6777999999524,1407.3743999999763,1410.1263999999762,1411.0848999999762,1411.6127999999524,1411.6128999999762,1416.9473999999761,4386,1416.9473999999761,5,1416.953199999988,2,5,65,9,1,1.6,0.7,Time
,,963221,001,男,21,2025-06-03_22h26.47.480,Serial_Dependence_U,2023.2.3,Win32,15.015015015020264,,,,,,1416.9532999999524,83,2,1416.9533999999762,83,,,,1420.8637999999523,1421.3905999999643,1420.3115,1420.8637999999523,1417.9481999999882,1420.3113999999762,1421.3905999999643,1421.7942999999523,1421.7942999999523,1427.1546999999882,4530,1427.1547999999523,5,1427.1601999999882,2,6,66,27,1,1.2,0.7,Time
,,963221,001,男,21,2025-06-03_22h26.47.480,Serial_Dependence_U,2023.2.3,Win32,15.015015015020264,,,,,,1427.1603999999763,259,2,1427.1605,259,,,,1430.7160999999644,1431.1195,1430.1675999999643,1430.7160000000001,1428.2403999999763,1430.1675999999643,1431.1195,1431.6420999999643,1431.6421999999882,1435.9000999999644,3579,1435.9001999999882,5,1435.9055,2,7,67,5,1,0.8,0.7,Time
,,963221,001,男,21,2025-06-03_22h26.47.480,Serial_Dependence_U,2023.2.3,Win32,15.015015015020264,,,,,,1435.9056999999882,90,2,1435.9057999999525,90,,,,1439.3237999999524,1439.853,1438.7732999999523,1439.323699999988,1436.8515999999643,1438.7732999999523,1439.853,1440.3837999999523,1440.3838999999762,1445.4585999999642,3843,1445.4585999999642,5,1445.4637999999525,2,8,68,20,1,0.8,0.3,Time
,,963221,001,男,21,2025-06-03_22h26.47.480,Serial_Dependence_U,2023.2.3,Win32,15.015015015020264,,,,,,1445.4640000000002,315,2,1445.4640999999642,315,,,,1449.4360999999642,1449.9613999999763,1448.8855999999644,1449.4360000000001,1446.4160000000002,1448.8855,1449.9613999999763,1450.3622999999525,1450.3622999999525,1454.8795999999643,3554,1454.8796999999881,5,1454.885,2,9,69,8,1,1.4,0.7,Time
,,963221,001,男,21,2025-06-03_22h26.47.480,Serial_Dependence_U,2023.2.3,Win32,15.015015015020264,,,,,,1454.8852999999524,196,2,1454.8852999999524,196,,,,1459.2780999999643,1459.8055999999642,1458.7291999999882,1459.2780999999643,1455.9653999999762,1458.7291999999882,1459.805699999988,1460.3386999999882,1460.3386999999882,1465.2777999999523,3981,1465.2778999999762,5,1465.2835999999643,2,10,70,4,1,1.6,0.3,Time
,,963221,001,男,21,2025-06-03_22h26.47.480,Serial_Dependence_U,2023.2.3,Win32,15.015015015020264,,,,,,1465.2837999999524,337,2,1465.2838999999763,337,,,,1469.6677999999524,1470.0725,1469.1212999999523,1469.6676999999881,1466.3621999999882,1469.1211999999882,1470.0725999999643,1470.4740999999642,1470.474199999988,1474.5775,3283,1474.5775999999644,5,1474.5828999999762,2,11,71,14,1,1.6,0.3,Time
,,963221,001,男,21,2025-06-03_22h26.47.480,Serial_Dependence_U,2023.2.3,Win32,15.015015015020264,,,,,,1474.5830999999644,214,2,1474.5830999999644,214,,,,1478.1273999999762,1478.6593999999761,1477.5788999999763,1478.1272999999524,1475.525699999988,1477.5787999999525,1478.6593999999761,1479.192,1479.192,1482.507,2477,1482.507,5,1482.5123999999762,2,12,72,6,1,1,0.7,Time
,,963221,001,男,21,2025-06-03_22h26.47.480,Serial_Dependence_U,2023.2.3,Win32,15.015015015020264,,,,,,1482.5125999999643,308,2,1482.5126999999882,308,,,,1486.0575999999644,1486.4636999999882,1485.5091999999881,1486.0575999999644,1483.5867999999523,1485.5091999999881,1486.4636999999882,1486.8645000000001,1486.8645000000001,1490.2835,2740,1490.2835999999643,5,1490.289,2,13,73,10,1,0.8,0.3,Time
,,963221,001,男,21,2025-06-03_22h26.47.480,Serial_Dependence_U,2023.2.3,Win32,15.015015015020264,,,,,,1490.2890999999643,61,2,1490.289199999988,61,,,,1494.5541999999882,1494.9563999999762,1494.0015999999644,1494.5540999999644,1491.2373999999763,1494.0015,1494.9563999999762,1495.4798999999762,1495.4798999999762,1500.8427999999524,4538,1500.8428999999762,5,1500.8480999999642,2,14,74,24,1,1.6,0.3,Time
,,963221,001,男,21,2025-06-03_22h26.47.480,Serial_Dependence_U,2023.2.3,Win32,15.015015015020264,,,,,,1500.8483999999762,30,2,1500.8485,30,,,,1504.3863999999762,1504.7955000000002,1503.8380999999642,1504.3863999999762,1501.7907999999525,1503.8378999999761,1504.7955000000002,1505.3210000000001,1505.3210000000001,1509.5635999999643,3969,1509.563699999988,5,1509.5690999999642,2,15,75,26,1,1,0.7,Time
,,963221,001,男,21,2025-06-03_22h26.47.480,Serial_Dependence_U,2023.2.3,Win32,15.015015015020264,,,,,,1509.5692999999524,264,2,1509.5692999999524,264,,,,1513.5666999999883,1514.0943999999763,1513.0185999999644,1513.5665999999644,1510.5216999999882,1513.0185999999644,1514.0943999999763,1514.6175999999643,1514.6175999999643,1519.5378999999762,3431,1519.5378999999762,5,1519.5435,2,16,76,18,1,1.4,0.7,Time
,,963221,001,男,21,2025-06-03_22h26.47.480,Serial_Dependence_U,2023.2.3,Win32,15.015015015020264,,,,,,1519.5435999999643,73,2,1519.5437999999524,73,,,,1523.2272999999525,1523.6315,1522.678699999988,1523.2272999999525,1520.487699999988,1522.6785999999643,1523.6315,1524.1612999999525,1524.1612999999525,1528.4041999999881,3418,1528.4047999999523,5,1528.4098999999762,2,17,77,21,1,1,0.3,Time
,,963221,001,男,21,2025-06-03_22h26.47.480,Serial_Dependence_U,2023.2.3,Win32,15.015015015020264,,,,,,1528.4100999999644,222,2,1528.4100999999644,222,,,,1531.981,1532.3811999999882,1531.4336999999882,1531.981,1529.3672999999524,1531.4335,1532.3811999999882,1532.9095999999643,1532.9095999999643,1537.306699999988,3435,1537.3067999999523,5,1537.3120999999644,2,18,78,11,1,1,0.3,Time
,,963221,001,男,21,2025-06-03_22h26.47.480,Serial_Dependence_U,2023.2.3,Win32,15.015015015020264,,,,,,1537.3122999999523,48,2,1537.3122999999523,48,,,,1540.8807999999524,1541.2858999999762,1540.324699999988,1540.8807999999524,1538.2636999999881,1540.324699999988,1541.2858999999762,1541.8248999999762,1541.8248999999762,1545.1317999999524,3161,1545.1318999999762,5,1545.1370999999642,2,19,79,1,1,1,0.3,Time
,,963221,001,男,21,2025-06-03_22h26.47.480,Serial_Dependence_U,2023.2.3,Win32,15.015015015020264,,,,,,1545.1372999999523,158,2,1545.1373999999762,158,,,,1548.575,1549.109199999988,1548.0210999999642,1548.5748999999762,1546.0902999999523,1548.021,1549.109199999988,1549.6591999999882,1549.6591999999882,1552.4130999999643,2076,1552.4130999999643,5,1552.4182999999523,2,20,80,25,1,0.8,0.7,Time
,,963221,001,男,21,2025-06-03_22h26.47.480,Serial_Dependence_U,2023.2.3,Win32,15.015015015020264,,,,,,1552.4185,154,2,1552.4185999999643,154,,,,1556.2625999999643,1556.6646999999882,1555.7135,1556.2625,1553.3782999999523,1555.7135,1556.6646999999882,1557.0665000000001,1557.0665000000001,1560.6588999999763,2630,1560.659,5,1560.6642999999524,2,21,81,17,1,1.2,0.7,Time
,,963221,001,男,21,2025-06-03_22h26.47.480,Serial_Dependence_U,2023.2.3,Win32,15.015015015020264,,,,,,1560.6643999999762,7,2,1560.6645,7,,,,1564.6212999999523,1565.0232999999523,1564.068,1564.621199999988,1561.7392999999524,1564.068,1565.0232999999523,1565.5475999999642,1565.5475999999642,1569.91,3688,1569.9101999999882,5,1569.9153999999764,2,22,82,12,1,1.2,0.3,Time
,,963221,001,男,21,2025-06-03_22h26.47.480,Serial_Dependence_U,2023.2.3,Win32,15.015015015020264,,,,,,1569.9155999999641,59,2,1569.915699999988,59,,,,1573.8543999999763,1574.2605999999644,1573.304399999976,1573.8542999999524,1570.9865000000002,1573.304399999976,1574.2605999999644,1574.7923999999764,1574.7923999999764,1579.7200999999643,4108,1579.7200999999643,5,1579.7255000000002,2,23,83,7,1,1.2,0.7,Time
,,963221,001,男,21,2025-06-03_22h26.47.480,Serial_Dependence_U,2023.2.3,Win32,15.015015015020264,,,,,,1579.7255999999645,359,2,1579.7256999999884,359,,,,1583.7122999999522,1584.2315999999644,1583.1646999999882,1583.7122999999522,1580.6744999999999,1583.1645999999644,1584.2316999999882,1584.7537999999524,1584.7537999999524,1587.8822999999522,2717,1587.8822999999522,5,1587.8880000000001,2,24,84,28,1,1.4,0.7,Time
,,963221,001,男,21,2025-06-03_22h26.47.480,Serial_Dependence_U,2023.2.3,Win32,15.015015015020264,,,,,,1587.8883999999764,181,2,1587.8885000000002,181,,,,1591.8675,1592.3988999999763,1591.313699999988,1591.8675,1588.8453999999763,1591.3135999999643,1592.3988999999763,1592.931399999976,1592.931399999976,1597.0280999999643,3274,1597.0281999999881,5,1597.0335000000002,2,25,85,13,1,1.4,0.3,Time
,,963221,001,男,21,2025-06-03_22h26.47.480,Serial_Dependence_U,2023.2.3,Win32,15.015015015020264,,,,,,1597.0335999999645,118,2,1597.0336999999884,118,,,,1601.4050999999642,1601.940399999976,1600.853199999988,1601.405,1598.1125,1600.8530999999641,1601.940399999976,1602.4655999999643,1602.4656999999881,1606.8808999999762,3311,1606.881,5,1606.8865999999641,2,26,86,29,1,1.6,0.7,Time
,,963221,001,男,21,2025-06-03_22h26.47.480,Serial_Dependence_U,2023.2.3,Win32,15.015015015020264,,,,,,1606.8867999999522,209,2,1606.886899999976,209,,,,1610.975899999976,1611.5105,1610.4210999999643,1610.975899999976,1607.9600000000003,1610.421,1611.5105,1612.0400000000002,1612.0400999999645,1617.1116999999883,3689,1617.1117999999526,5,1617.1175,2,27,87,3,1,1.4,0.3,Time
,,963221,001,男,21,2025-06-03_22h26.47.480,Serial_Dependence_U,2023.2.3,Win32,15.015015015020264,,,,,,1617.1177999999525,306,2,1617.1178999999763,306,,,,1621.108099999964,1621.5090999999643,1620.5504999999998,1621.1079999999997,1618.0720999999642,1620.550399999976,1621.5091999999881,1622.0395999999641,1622.0395999999641,1749.999699999988,2695,1749.999699999988,5,1750.0049999999997,2,28,88,23,1,1.4,0.3,Time
,,963221,001,男,21,2025-06-03_22h26.47.480,Serial_Dependence_U,2023.2.3,Win32,15.015015015020264,,,,,,1750.0051999999878,308,2,1750.005299999952,308,,,,1753.813299999952,1754.3092999999521,1753.3058999999762,1753.8131999999878,1751.008399999976,1753.3057999999523,1754.3092999999521,1754.803799999952,1754.803799999952,1759.6402999999523,3682,1759.6403999999761,5,1759.6456999999878,2,29,89,2,1,1.2,0.3,Time
,,963221,001,男,21,2025-06-03_22h26.47.480,Serial_Dependence_U,2023.2.3,Win32,15.015015015020264,,,,,,1759.645799999952,124,3,1762.071799999952,124,s,2.340800000011768,,1766.132799999952,1766.634,1765.6205,1766.1326999999878,1763.0695999999639,1765.6203999999761,1766.634,1767.1306999999879,1767.1307999999522,1772.349899999976,4448,1772.349899999976,5,1772.3550999999643,3,0,90,8,1,1.4,0.7,Time
,,963221,001,男,21,2025-06-03_22h26.47.480,Serial_Dependence_U,2023.2.3,Win32,15.015015015020264,,,,,,1772.3553999999758,123,3,1772.356199999988,123,,,,1775.785199999988,1776.2860999999639,1775.2703999999758,1775.7850999999641,1773.3548999999762,1775.270299999952,1776.2860999999639,1776.779799999952,1776.779799999952,1780.377799999952,2839,1780.3778999999759,5,1780.383199999988,3,1,91,0,1,0.8,0.3,Time
,,963221,001,男,21,2025-06-03_22h26.47.480,Serial_Dependence_U,2023.2.3,Win32,15.015015015020264,,,,,,1780.383399999976,266,3,1780.3835,266,,,,1784.0645,1784.5566999999878,1783.549199999988,1784.0642999999523,1781.387899999976,1783.5490999999643,1784.5566999999878,1785.052699999988,1785.052699999988,1791.2909999999997,4465,1791.2909999999997,5,1791.2968999999762,3,2,92,11,1,1,0.3,Time
,,963221,001,男,21,2025-06-03_22h26.47.480,Serial_Dependence_U,2023.2.3,Win32,15.015015015020264,,,,,,1791.2970999999643,325,3,1791.2971999999877,325,,,,1794.862899999976,1795.365699999988,1794.3500999999642,1794.862899999976,1792.3122999999523,1794.35,1795.3657999999523,1795.857599999964,1795.8576999999877,1801.3390999999642,4723,1801.3390999999642,5,1801.3443999999758,3,3,93,16,1,1,0.7,Time
,,963221,001,男,21,2025-06-03_22h26.47.480,Serial_Dependence_U,2023.2.3,Win32,15.015015015020264,,,,,,1801.344599999964,299,3,1801.3446999999878,299,,,,1805.131199999988,1805.628299999952,1804.629199999988,1805.1310999999641,1802.4579999999996,1804.629199999988,1805.628299999952,1806.128099999964,1806.128099999964,1812.3711999999878,5357,1812.371299999952,5,1812.3765999999641,3,4,94,21,1,1,0.3,Time
,,963221,001,男,21,2025-06-03_22h26.47.480,Serial_Dependence_U,2023.2.3,Win32,15.015015015020264,,,,,,1812.3767999999523,96,3,1812.3767999999523,96,,,,1816.4502999999522,1816.9440999999642,1815.923199999988,1816.4502999999522,1813.367599999964,1815.923199999988,1816.9440999999642,1817.431,1817.431,1822.402799999952,3312,1822.402899999976,5,1822.4086999999881,3,5,95,23,1,1.4,0.3,Time
,,963221,001,男,21,2025-06-03_22h26.47.480,Serial_Dependence_U,2023.2.3,Win32,15.015015015020264,,,,,,1822.4088999999758,302,3,1822.4088999999758,302,,,,1826.4721999999879,1826.963899999976,1825.962599999964,1826.4721999999879,1823.4097999999522,1825.9624999999996,1826.963899999976,1827.461099999964,1827.461199999988,1832.4085,3799,1832.4085999999643,5,1832.4141999999879,3,6,96,28,1,1.4,0.7,Time
,,963221,001,男,21,2025-06-03_22h26.47.480,Serial_Dependence_U,2023.2.3,Win32,15.015015015020264,,,,,,1832.4142999999522,308,3,1832.4144999999999,308,,,,1835.8320999999642,1836.327699999988,1835.3230999999641,1835.8320999999642,1833.419699999988,1835.3230999999641,1836.327699999988,1836.8195999999639,1836.8196999999877,1840.8947999999523,2936,1840.8948999999761,5,1840.900099999964,3,7,97,25,1,0.8,0.7,Time
,,963221,001,男,21,2025-06-03_22h26.47.480,Serial_Dependence_U,2023.2.3,Win32,15.015015015020264,,,,,,1840.900299999952,296,3,1840.900399999976,296,,,,1844.820599999964,1845.317,1844.3084999999996,1844.8204999999998,1842.015699999988,1844.3083999999758,1845.317,1845.815,1845.815,1850.142199999988,3304,1850.142199999988,5,1850.1473999999762,3,8,98,22,1,1.2,0.3,Time
,,963221,001,男,21,2025-06-03_22h26.47.480,Serial_Dependence_U,2023.2.3,Win32,15.015015015020264,,,,,,1850.1475999999639,341,3,1850.1476999999877,341,,,,1853.595199999988,1854.087299999952,1853.0871999999881,1853.595099999964,1851.1709999999998,1853.0870999999643,1854.087299999952,1854.578,1854.578,1857.8796999999881,2541,1857.879799999952,5,1857.885099999964,3,9,99,5,1,0.8,0.7,Time
,,963221,001,男,21,2025-06-03_22h26.47.480,Serial_Dependence_U,2023.2.3,Win32,15.015015015020264,,,,,,1857.8852999999522,231,3,1857.8852999999522,231,,,,1861.705799999952,1862.1969999999997,1861.187,1861.7056999999877,1858.896399999976,1861.186899999976,1862.1969999999997,1862.690299999952,1862.6903999999759,1889.3770999999642,3172,1889.3770999999642,5,1889.382799999952,3,10,100,17,1,1.2,0.7,Time
,,963221,001,男,21,2025-06-03_22h26.47.480,Serial_Dependence_U,2023.2.3,Win32,15.015015015020264,,,,,,1889.3829999999998,299,3,1889.3832999999522,299,,,,1893.4244999999996,1893.916099999964,1892.916599999964,1893.4243999999758,1890.366199999988,1892.916599999964,1893.9161999999878,1894.423699999988,1894.423699999988,1898.497199999988,3057,1898.4972999999522,5,1898.5025,3,11,101,3,1,1.4,0.3,Time
,,963221,001,男,21,2025-06-03_22h26.47.480,Serial_Dependence_U,2023.2.3,Win32,15.015015015020264,,,,,,1898.5026999999877,63,3,1898.502799999952,63,,,,1902.569199999988,1903.0639999999999,1902.0566999999878,1902.5690999999642,1899.5161999999877,1902.056599999964,1903.0639999999999,1903.5648999999762,1903.5648999999762,1907.9127999999523,3468,1907.9128999999762,5,1907.918099999964,3,12,102,13,1,1.4,0.3,Time
,,963221,001,男,21,2025-06-03_22h26.47.480,Serial_Dependence_U,2023.2.3,Win32,15.015015015020264,,,,,,1907.918399999976,111,3,1907.918399999976,111,,,,1911.7236999999877,1912.2478999999762,1911.208099999964,1911.7235999999639,1908.920099999964,1911.2079999999996,1912.2478999999762,1912.757299999952,1912.757299999952,1917.0746999999878,3555,1917.0746999999878,5,1917.0800999999642,3,13,103,2,1,1.2,0.3,Time
,,963221,001,男,21,2025-06-03_22h26.47.480,Serial_Dependence_U,2023.2.3,Win32,15.015015015020264,,,,,,1917.0803999999762,190,3,1917.0803999999762,190,,,,1920.8903999999761,1921.379,1920.376099999964,1920.8903999999761,1918.078599999964,1920.376099999964,1921.379,1921.8722999999522,1921.872399999976,1927.0938999999762,3569,1927.0938999999762,5,1927.0994999999998,3,14,104,12,1,1.2,0.3,Time
,,963221,001,男,21,2025-06-03_22h26.47.480,Serial_Dependence_U,2023.2.3,Win32,15.015015015020264,,,,,,1927.099699999988,149,3,1927.0997999999522,149,,,,1930.658199999988,1931.1462999999521,1930.1275999999639,1930.658199999988,1928.094,1930.1275999999639,1931.146399999976,1931.6391999999878,1931.6391999999878,1940.0214999999998,3173,1940.021599999964,5,1940.027299999952,3,15,105,26,1,1,0.7,Time
,,963221,001,男,21,2025-06-03_22h26.47.480,Serial_Dependence_U,2023.2.3,Win32,15.015015015020264,,,,,,1940.0274999999997,10,3,1940.0274999999997,10,,,,1943.7061999999878,1944.1982999999523,1943.197899999976,1943.7061999999878,1941.0304999999998,1943.1977999999522,1944.1983999999761,1944.6856999999877,1944.6856999999877,1948.775899999976,3325,1948.775899999976,5,1948.7810999999642,3,16,106,1,1,1,0.3,Time
,,963221,001,男,21,2025-06-03_22h26.47.480,Serial_Dependence_U,2023.2.3,Win32,15.015015015020264,,,,,,1948.7813999999762,307,3,1948.7815,307,,,,1952.2171999999878,1952.7140999999642,1951.692599999964,1952.217099999964,1949.7799999999997,1951.6924999999997,1952.7140999999642,1953.2033999999758,1953.2034999999996,1957.8001999999879,3830,1957.8001999999879,5,1957.805399999976,3,17,107,15,1,0.8,0.7,Time
,,963221,001,男,21,2025-06-03_22h26.47.480,Serial_Dependence_U,2023.2.3,Win32,15.015015015020264,,,,,,1957.805699999988,149,3,1957.8057999999523,149,,,,1961.8725,1962.3626999999879,1961.3568999999761,1961.8725,1958.8052999999522,1961.3568999999761,1962.3626999999879,1962.866,1962.866,1967.8174999999997,3798,1967.8174999999997,5,1967.8233999999761,3,18,108,18,1,1.4,0.7,Time
,,963221,001,男,21,2025-06-03_22h26.47.480,Serial_Dependence_U,2023.2.3,Win32,15.015015015020264,,,,,,1967.8235999999642,224,3,1967.823699999988,224,,,,1971.494099999964,1971.988399999976,1970.9781999999877,1971.4939999999997,1968.8261999999877,1970.978,1971.988399999976,1972.483899999976,1972.483899999976,1976.3419999999996,3102,1976.3419999999996,5,1976.3471999999879,3,19,109,6,1,1,0.7,Time
,,963221,001,男,21,2025-06-03_22h26.47.480,Serial_Dependence_U,2023.2.3,Win32,15.015015015020264,,,,,,1976.347399999976,21,3,1976.347399999976,21,,,,1979.9170999999642,1980.4085999999643,1979.399199999988,1979.9170999999642,1977.4677999999521,1979.3990999999642,1980.4085999999643,1980.8961999999879,1980.8961999999879,1984.8626999999879,3205,1984.8626999999879,5,1984.8682999999523,3,20,110,20,1,0.8,0.3,Time
,,963221,001,男,21,2025-06-03_22h26.47.480,Serial_Dependence_U,2023.2.3,Win32,15.015015015020264,,,,,,1984.8685,287,3,1984.8685999999639,287,,,,1989.0701999999878,1989.568099999964,1988.5566999999878,1989.070099999964,1985.8824999999997,1988.5566999999878,1989.568099999964,1990.064399999976,1990.0645,1994.400599999964,3434,1994.4006999999879,5,1994.406,3,21,111,19,1,1.6,0.7,Time
,,963221,001,男,21,2025-06-03_22h26.47.480,Serial_Dependence_U,2023.2.3,Win32,15.015015015020264,,,,,,1994.406199999988,108,3,1994.4062999999524,108,,,,1998.6033999999759,1999.0985,1998.0946999999878,1998.6033999999759,1995.398599999964,1998.0946999999878,1999.0985,1999.596799999952,1999.596899999976,2003.403399999976,3046,2003.4035,5,2003.4085999999643,3,22,112,29,1,1.6,0.7,Time
,,963221,001,男,21,2025-06-03_22h26.47.480,Serial_Dependence_U,2023.2.3,Win32,15.015015015020264,,,,,,2003.4088999999758,108,3,2003.4089999999997,108,,,,2007.5971999999879,2008.0938999999762,2007.0839999999998,2007.5971999999879,2004.413299999952,2007.0839999999998,2008.0938999999762,2008.5955,2008.5955,2013.6675,4062,2013.6675,5,2013.672799999952,3,23,113,9,1,1.6,0.7,Time
,,963221,001,男,21,2025-06-03_22h26.47.480,Serial_Dependence_U,2023.2.3,Win32,15.015015015020264,,,,,,2013.6729999999998,210,3,2013.673099999964,210,,,,2017.884899999976,2018.374099999964,2017.368199999988,2017.884899999976,2014.6774999999998,2017.3680999999642,2018.374199999988,2018.858699999988,2018.858699999988,2023.8502999999523,4226,2023.8502999999523,5,2023.855599999964,3,24,114,24,1,1.6,0.3,Time
,,963221,001,男,21,2025-06-03_22h26.47.480,Serial_Dependence_U,2023.2.3,Win32,15.015015015020264,,,,,,2023.855799999952,213,3,2023.8559999999998,213,,,,2028.1407999999524,2028.6385999999643,2027.6275,2028.1407999999524,2024.846,2027.6273999999762,2028.6385999999643,2029.127199999988,2029.127199999988,2033.7169999999996,3071,2033.7169999999996,5,2033.7224999999999,3,25,115,14,1,1.6,0.3,Time
,,963221,001,男,21,2025-06-03_22h26.47.480,Serial_Dependence_U,2023.2.3,Win32,15.015015015020264,,,,,,2033.7227999999523,25,3,2033.7227999999523,25,,,,2037.175899999976,2037.6717999999523,2036.661599999964,2037.1757999999522,2034.7165,2036.661599999964,2037.6717999999523,2038.1631999999881,2038.1631999999881,2042.484799999952,3303,2042.4848999999758,5,2042.490099999964,3,26,116,10,1,0.8,0.3,Time
,,963221,001,男,21,2025-06-03_22h26.47.480,Serial_Dependence_U,2023.2.3,Win32,15.015015015020264,,,,,,2042.4902999999522,152,3,2042.490399999976,152,,,,2046.302299999952,2046.8035,2045.7934999999998,2046.3021999999878,2043.4995999999642,2045.793399999976,2046.8035,2047.301799999952,2047.301799999952,2051.2436999999877,3172,2051.243799999952,5,2051.249099999964,3,27,117,27,1,1.2,0.7,Time
,,963221,001,男,21,2025-06-03_22h26.47.480,Serial_Dependence_U,2023.2.3,Win32,15.015015015020264,,,,,,2051.249299999952,203,3,2051.249399999976,203,,,,2055.053099999964,2055.540599999964,2054.541099999964,2055.053,2052.2535,2054.5409999999997,2055.540599999964,2056.0375,2056.0375,2060.209399999976,3416,2060.209399999976,5,2060.214799999952,3,28,118,7,1,1.2,0.7,Time
,,963221,001,男,21,2025-06-03_22h26.47.480,Serial_Dependence_U,2023.2.3,Win32,15.015015015020264,,,,,,2060.2149999999997,44,3,2060.215099999964,44,,,,2064.392199999988,2064.8905,2063.873699999988,2064.392199999988,2061.211599999964,2063.873699999988,2064.8905,2065.388,2065.388099999964,2070.6054999999997,4578,2070.6054999999997,5,2070.610899999976,3,29,119,4,1,1.6,0.3,Time
,,963221,001,男,21,2025-06-03_22h26.47.480,Serial_Dependence_U,2023.2.3,Win32,15.015015015020264,,,,,,2070.611,121,4,2072.486699999988,121,s,1.7944000000356937,,2076.066399999976,2076.562799999952,2075.5499999999997,2076.066299999952,2073.506699999988,2075.5499999999997,2076.562799999952,2077.055,2077.055,2080.880799999952,2933,2080.880899999976,5,2080.8860999999642,4,0,120,16,1,1,0.7,Time
,,963221,001,男,21,2025-06-03_22h26.47.480,Serial_Dependence_U,2023.2.3,Win32,15.015015015020264,,,,,,2080.886399999976,102,4,2080.887299999952,102,,,,2084.948699999988,2085.4397999999524,2084.431399999976,2084.948699999988,2081.891099999964,2084.431299999952,2085.4397999999524,2085.9347999999522,2085.934899999976,2089.118899999976,2414,2089.118899999976,5,2089.124199999988,4,1,121,3,1,1.4,0.3,Time
,,963221,001,男,21,2025-06-03_22h26.47.480,Serial_Dependence_U,2023.2.3,Win32,15.015015015020264,,,,,,2089.124399999976,3,4,2089.1245,3,,,,2092.914399999976,2093.4085999999643,2092.4094999999998,2092.914399999976,2090.123799999952,2092.4094999999998,2093.4085999999643,2093.906399999976,2093.9065,2097.385399999976,2965,2097.385399999976,5,2097.3907999999524,4,2,122,27,1,1.2,0.7,Time
,,963221,001,男,21,2025-06-03_22h26.47.480,Serial_Dependence_U,2023.2.3,Win32,15.015015015020264,,,,,,2097.3909999999996,244,4,2097.3909999999996,244,,,,2101.589,2102.0831999999878,2101.0757999999523,2101.588899999976,2098.392599999964,2101.0757999999523,2102.0831999999878,2102.5755,2102.5755,2106.9201999999877,3450,2106.9201999999877,5,2106.9255,4,3,123,29,1,1.6,0.7,Time
,,963221,001,男,21,2025-06-03_22h26.47.480,Serial_Dependence_U,2023.2.3,Win32,15.015015015020264,,,,,,2106.925699999988,40,4,2106.9257999999522,40,,,,2111.003199999988,2111.5017999999523,2110.484099999964,2111.003099999964,2107.9240999999643,2110.484099999964,2111.5017999999523,2111.992299999952,2111.992299999952,2116.951699999988,3824,2116.951799999952,5,2116.9575,4,4,124,28,1,1.4,0.7,Time
,,963221,001,男,21,2025-06-03_22h26.47.480,Serial_Dependence_U,2023.2.3,Win32,15.015015015020264,,,,,,2116.957699999988,121,4,2116.957699999988,121,,,,2120.763099999964,2121.2610999999642,2120.252399999976,2120.763099999964,2117.961199999988,2120.2522999999524,2121.261199999988,2121.766599999964,2121.766699999988,2126.093099999964,3562,2126.093199999988,5,2126.098399999976,4,5,125,12,1,1.2,0.3,Time
,,963221,001,男,21,2025-06-03_22h26.47.480,Serial_Dependence_U,2023.2.3,Win32,15.015015015020264,,,,,,2126.0985,99,4,2126.0986999999877,99,,,,2129.798299999952,2130.287599999964,2129.2819999999997,2129.798299999952,2127.101199999988,2129.281899999976,2130.287699999988,2130.779799999952,2130.779799999952,2134.3572999999524,2934,2134.3572999999524,5,2134.362699999988,4,6,126,11,1,1,0.3,Time
,,963221,001,男,21,2025-06-03_22h26.47.480,Serial_Dependence_U,2023.2.3,Win32,15.015015015020264,,,,,,2134.362899999976,71,4,2134.363,71,,,,2138.565099999964,2139.056699999988,2138.0449999999996,2138.565,2135.365,2138.0449999999996,2139.056699999988,2139.545799999952,2139.545799999952,2143.396199999988,2956,2143.396299999952,5,2143.401599999964,4,7,127,4,1,1.6,0.3,Time
,,963221,001,男,21,2025-06-03_22h26.47.480,Serial_Dependence_U,2023.2.3,Win32,15.015015015020264,,,,,,2143.4017999999523,117,4,2143.401899999976,117,,,,2146.8514999999998,2147.3509999999997,2146.3282999999524,2146.8514999999998,2144.3972999999523,2146.3282999999524,2147.3509999999997,2147.851099999964,2147.851099999964,2177.247899999976,2307,2177.247899999976,5,2177.253699999988,4,8,128,20,1,0.8,0.3,Time
,,963221,001,男,21,2025-06-03_22h26.47.480,Serial_Dependence_U,2023.2.3,Win32,15.015015015020264,,,,,,2177.253899999976,2,4,2177.254,2,,,,2181.0602999999523,2181.550899999976,2180.544,2181.0602999999523,2178.250299999952,2180.543899999976,2181.551,2182.0487999999523,2182.0487999999523,2186.123099999964,3300,2186.123099999964,5,2186.128399999976,4,9,129,2,1,1.2,0.3,Time
,,963221,001,男,21,2025-06-03_22h26.47.480,Serial_Dependence_U,2023.2.3,Win32,15.015015015020264,,,,,,2186.128699999988,278,4,2186.128699999988,278,,,,2190.297899999976,2190.7909999999997,2189.7900999999642,2190.297699999988,2187.117099999964,2189.7900999999642,2190.7909999999997,2191.2902999999524,2191.2902999999524,2195.9842999999523,3921,2195.9842999999523,5,2195.989599999964,4,10,130,19,1,1.6,0.7,Time
,,963221,001,男,21,2025-06-03_22h26.47.480,Serial_Dependence_U,2023.2.3,Win32,15.015015015020264,,,,,,2195.989799999952,141,4,2195.989899999976,141,,,,2199.423899999976,2199.924,2198.907799999952,2199.423699999988,2196.994199999988,2198.907699999988,2199.924,2200.420699999988,2200.420699999988,2204.388899999976,3190,2204.3889999999997,5,2204.394199999988,4,11,131,5,1,0.8,0.7,Time
,,963221,001,男,21,2025-06-03_22h26.47.480,Serial_Dependence_U,2023.2.3,Win32,15.015015015020264,,,,,,2204.394299999952,289,4,2204.394399999976,289,,,,2208.457099999964,2208.958799999952,2207.927899999976,2208.457,2205.391099999964,2207.927799999952,2208.958799999952,2209.456399999976,2209.456399999976,2214.021599999964,3809,2214.021599999964,5,2214.0267999999523,4,12,132,23,1,1.4,0.3,Time
,,963221,001,男,21,2025-06-03_22h26.47.480,Serial_Dependence_U,2023.2.3,Win32,15.015015015020264,,,,,,2214.027,300,4,2214.027099999964,300,,,,2217.8644999999997,2218.3550999999643,2217.339899999976,2217.864399999976,2215.039299999952,2217.339899999976,2218.355199999988,2218.8485,2218.8486999999877,2226.2414999999996,3688,2226.2414999999996,5,2226.247099999964,4,13,133,22,1,1.2,0.3,Time
,,963221,001,男,21,2025-06-03_22h26.47.480,Serial_Dependence_U,2023.2.3,Win32,15.015015015020264,,,,,,2226.2472999999522,100,4,2226.247399999976,100,,,,2230.072599999964,2230.565099999964,2229.557699999988,2230.0724999999998,2227.2445,2229.5575,2230.5651999999877,2231.0651999999877,2231.065299999952,2239.289099999964,3297,2239.289199999988,5,2239.2951999999877,4,14,134,7,1,1.2,0.7,Time
,,963221,001,男,21,2025-06-03_22h26.47.480,Serial_Dependence_U,2023.2.3,Win32,15.015015015020264,,,,,,2239.295399999976,212,4,2239.295399999976,212,,,,2242.720099999964,2243.229299999952,2242.204399999976,2242.72,2240.306599999964,2242.204299999952,2243.229299999952,2243.724899999976,2243.725,2281.1994999999997,2532,2281.1994999999997,5,2281.2052999999523,4,15,135,15,1,0.8,0.7,Time
,,963221,001,男,21,2025-06-03_22h26.47.480,Serial_Dependence_U,2023.2.3,Win32,15.015015015020264,,,,,,2281.205399999976,56,4,2281.2055,56,,,,2284.756699999988,2285.2509999999997,2284.250799999952,2284.756699999988,2282.208599999964,2284.250599999964,2285.2509999999997,2285.743799999952,2285.743799999952,2294.6594999999998,2677,2294.6594999999998,5,2294.6650999999642,4,16,136,26,1,1,0.7,Time
,,963221,001,男,21,2025-06-03_22h26.47.480,Serial_Dependence_U,2023.2.3,Win32,15.015015015020264,,,,,,2294.6652999999524,35,4,2294.6652999999524,35,,,,2298.862599999964,2299.349099999964,2298.352199999988,2298.8624999999997,2295.672599999964,2298.352199999988,2299.349099999964,2299.854699999988,2299.854699999988,2337.905299999952,2527,2337.905399999976,5,2337.910899999976,4,17,137,14,1,1.6,0.3,Time
,,963221,001,男,21,2025-06-03_22h26.47.480,Serial_Dependence_U,2023.2.3,Win32,15.015015015020264,,,,,,2337.9111999999877,295,4,2337.9111999999877,295,,,,2341.355799999952,2341.849099999964,2340.845299999952,2341.355699999988,2338.920599999964,2340.845199999988,2341.849099999964,2342.347599999964,2342.347699999988,2346.8134999999997,3711,2346.8134999999997,5,2346.818699999988,4,18,138,10,1,0.8,0.3,Time
,,963221,001,男,21,2025-06-03_22h26.47.480,Serial_Dependence_U,2023.2.3,Win32,15.015015015020264,,,,,,2346.819,246,4,2346.8190999999642,246,,,,2350.501399999976,2350.999699999988,2349.988099999964,2350.501399999976,2347.818399999976,2349.988099999964,2350.999699999988,2351.4959999999996,2351.4959999999996,2354.676099999964,2674,2354.676199999988,5,2354.6814999999997,4,19,139,21,1,1,0.3,Time
,,963221,001,男,21,2025-06-03_22h26.47.480,Serial_Dependence_U,2023.2.3,Win32,15.015015015020264,,,,,,2354.681699999988,296,4,2354.681799999952,296,,,,2358.221799999952,2358.7174999999997,2357.7145,2358.221699999988,2355.676399999976,2357.714399999976,2358.7174999999997,2359.2162999999523,2359.2162999999523,2443.193399999976,2675,2443.193399999976,5,2443.1989999999996,4,20,140,6,1,1,0.7,Time
,,963221,001,男,21,2025-06-03_22h26.47.480,Serial_Dependence_U,2023.2.3,Win32,15.015015015020264,,,,,,2443.1991999999877,245,4,2443.1991999999877,245,,,,2447.257899999976,2447.7590999999643,2446.735599999964,2447.257799999952,2444.2036999999877,2446.7355,2447.7590999999643,2448.246599999964,2448.246599999964,2453.105799999952,4220,2453.105799999952,5,2453.111399999976,4,21,141,18,1,1.4,0.7,Time
,,963221,001,男,21,2025-06-03_22h26.47.480,Serial_Dependence_U,2023.2.3,Win32,15.015015015020264,,,,,,2453.1115999999643,265,4,2453.1115999999643,265,,,,2457.292099999964,2457.787299999952,2456.778099999964,2457.292,2454.114899999976,2456.777899999976,2457.787399999976,2458.278,2458.278,2462.8745,3954,2462.874599999964,5,2462.879799999952,4,22,142,9,1,1.6,0.7,Time
,,963221,001,男,21,2025-06-03_22h26.47.480,Serial_Dependence_U,2023.2.3,Win32,15.015015015020264,,,,,,2462.8799999999997,258,4,2462.880099999964,258,,,,2466.850099999964,2467.337199999988,2466.326599999964,2466.850099999964,2463.880199999988,2466.3264999999997,2467.337199999988,2467.8374999999996,2467.8374999999996,2472.4424999999997,3831,2472.442599999964,5,2472.447799999952,4,23,143,8,1,1.4,0.7,Time
,,963221,001,男,21,2025-06-03_22h26.47.480,Serial_Dependence_U,2023.2.3,Win32,15.015015015020264,,,,,,2472.448,114,4,2472.448099999964,114,,,,2475.867599999964,2476.359,2475.355699999988,2475.8675,2473.4491999999877,2475.355699999988,2476.359,2476.852,2476.852,2517.540199999988,2160,2517.540199999988,5,2517.545799999952,4,24,144,0,1,0.8,0.3,Time
,,963221,001,男,21,2025-06-03_22h26.47.480,Serial_Dependence_U,2023.2.3,Win32,15.015015015020264,,,,,,2517.546,294,4,2517.546099999964,294,,,,2521.724199999988,2522.224799999952,2521.219099999964,2521.724099999964,2518.550199999988,2521.218899999976,2522.224799999952,2522.718399999976,2522.718399999976,2527.023799999952,3428,2527.023799999952,5,2527.0290999999643,4,25,145,24,1,1.6,0.3,Time
,,963221,001,男,21,2025-06-03_22h26.47.480,Serial_Dependence_U,2023.2.3,Win32,15.015015015020264,,,,,,2527.029299999952,90,4,2527.029299999952,90,,,,2530.600199999988,2531.093899999976,2530.097199999988,2530.600099999964,2528.0235,2530.097199999988,2531.093899999976,2531.594699999988,2531.594699999988,2561.408,2175,2561.408099999964,5,2561.414099999964,4,26,146,1,1,1,0.3,Time
,,963221,001,男,21,2025-06-03_22h26.47.480,Serial_Dependence_U,2023.2.3,Win32,15.015015015020264,,,,,,2561.414399999976,302,4,2561.4145,302,,,,2565.220399999976,2565.728099999964,2564.708399999976,2565.220399999976,2562.425199999988,2564.708399999976,2565.728099999964,2566.221899999976,2566.221899999976,2614.8660999999643,1892,2614.866199999988,5,2614.871899999976,4,27,147,17,1,1.2,0.7,Time
,,963221,001,男,21,2025-06-03_22h26.47.480,Serial_Dependence_U,2023.2.3,Win32,15.015015015020264,,,,,,2614.872099999964,131,4,2614.872199999988,131,,,,2618.938199999988,2619.430099999964,2618.421899999976,2618.938099999964,2615.877199999988,2618.4217999999523,2619.430099999964,2619.919699999988,2619.919699999988,2622.4891999999877,1797,2622.4891999999877,4,2622.4945,4,28,148,13,1,1.4,0.3,Time
,,963221,001,男,21,2025-06-03_22h26.47.480,Serial_Dependence_U,2023.2.3,Win32,15.015015015020264,,,,,,2622.494699999988,148,4,2622.494799999952,148,,,,2625.9289999999996,2626.434399999976,2625.402599999964,2625.928899999976,2623.503399999976,2625.4024999999997,2626.434399999976,2626.942399999976,2626.942399999976,2700.4797999999523,2195,2700.4797999999523,5,2700.485699999988,4,29,149,25,1,0.8,0.7,Time
,,963221,001,男,21,2025-06-03_22h26.47.480,Serial_Dependence_U,2023.2.3,Win32,15.015015015020264,,,,,,2700.485899999976,240,5,2703.063899999976,240,s,2.496900000036021,,2706.8705,2707.369799999952,2706.3644999999997,2706.870399999976,2704.066599999964,2706.364399999976,2707.369799999952,2707.8641999999877,2707.8641999999877,2712.9804999999997,2830,2712.9804999999997,5,2712.985799999952,5,0,150,2,1,1.2,0.3,Time
,,963221,001,男,21,2025-06-03_22h26.47.480,Serial_Dependence_U,2023.2.3,Win32,15.015015015020264,,,,,,2712.986099999964,176,5,2712.986699999988,176,,,,2717.067299999952,2717.570099999964,2716.557099999964,2717.067199999988,2713.9871999999878,2716.557,2717.570199999988,2718.063899999976,2718.064,2721.8976999999877,3075,2721.8976999999877,5,2721.902899999976,5,1,151,13,1,1.4,0.3,Time
,,963221,001,男,21,2025-06-03_22h26.47.480,Serial_Dependence_U,2023.2.3,Win32,15.015015015020264,,,,,,2721.903099999964,19,5,2721.903199999988,19,,,,2725.447699999988,2725.945199999988,2724.941,2725.447699999988,2722.9094999999998,2724.940899999976,2725.945199999988,2726.445399999976,2726.4455,2730.127599999964,3050,2730.127599999964,5,2730.132799999952,5,2,152,26,1,1,0.7,Time
,,963221,001,男,21,2025-06-03_22h26.47.480,Serial_Dependence_U,2023.2.3,Win32,15.015015015020264,,,,,,2730.133,78,5,2730.133,78,,,,2733.550699999988,2734.0505,2733.04,2733.550699999988,2731.133899999976,2733.039899999976,2734.0505,2734.546099999964,2734.546099999964,2738.394599999964,3072,2738.394599999964,5,2738.399899999976,5,3,153,5,1,0.8,0.7,Time
,,963221,001,男,21,2025-06-03_22h26.47.480,Serial_Dependence_U,2023.2.3,Win32,15.015015015020264,,,,,,2738.400099999964,46,5,2738.4001999999878,46,,,,2741.825599999964,2742.316899999976,2741.3154999999997,2741.825399999976,2739.400599999964,2741.315399999976,2742.317,2742.8167999999523,2742.816899999976,2746.684399999976,2968,2746.684399999976,5,2746.6897999999524,5,4,154,0,1,0.8,0.3,Time
,,963221,001,男,21,2025-06-03_22h26.47.480,Serial_Dependence_U,2023.2.3,Win32,15.015015015020264,,,,,,2746.69,191,5,2746.69,191,,,,2750.750299999952,2751.2410999999643,2750.240699999988,2750.750199999988,2747.693599999964,2750.240599999964,2751.2410999999643,2751.739899999976,2751.739899999976,2755.952599999964,3581,2755.952599999964,5,2755.9581999999878,5,5,155,18,1,1.4,0.7,Time
,,963221,001,男,21,2025-06-03_22h26.47.480,Serial_Dependence_U,2023.2.3,Win32,15.015015015020264,,,,,,2755.958299999952,28,5,2755.9584999999997,28,,,,2760.026,2760.5222999999523,2759.514099999964,2760.026,2756.967399999976,2759.5139999999997,2760.5222999999523,2761.032399999976,2761.032399999976,2765.3480999999642,3678,2765.3480999999642,5,2765.353399999976,5,6,156,8,1,1.4,0.7,Time
,,963221,001,男,21,2025-06-03_22h26.47.480,Serial_Dependence_U,2023.2.3,Win32,15.015015015020264,,,,,,2765.353699999988,209,5,2765.353699999988,209,,,,2769.556399999976,2770.0532999999523,2769.046599999964,2769.556299999952,2766.355699999988,2769.0465,2770.0532999999523,2770.5415,2770.5415,2774.778299999952,3461,2774.778299999952,5,2774.7839999999997,5,7,157,14,1,1.6,0.3,Time
,,963221,001,男,21,2025-06-03_22h26.47.480,Serial_Dependence_U,2023.2.3,Win32,15.015015015020264,,,,,,2774.784199999988,247,5,2774.784299999952,247,,,,2778.382299999952,2778.8844999999997,2777.8615,2778.3821999999877,2775.907099999964,2777.8615,2778.8844999999997,2779.382099999964,2779.382099999964,2782.800699999988,2916,2782.800699999988,5,2782.8061999999877,5,8,158,25,1,0.8,0.7,Time
,,963221,001,男,21,2025-06-03_22h26.47.480,Serial_Dependence_U,2023.2.3,Win32,15.015015015020264,,,,,,2782.806399999976,342,5,2782.8064999999997,342,,,,2786.616399999976,2787.1031999999877,2786.110099999964,2786.616399999976,2783.8205,2786.1099999999997,2787.1031999999877,2787.599399999976,2787.5995,2792.9536999999877,3817,2792.9536999999877,5,2792.959699999988,5,9,159,12,1,1.2,0.3,Time
,,963221,001,男,21,2025-06-03_22h26.47.480,Serial_Dependence_U,2023.2.3,Win32,15.015015015020264,,,,,,2792.9597999999523,176,5,2792.959899999976,176,,,,2796.390199999988,2796.885699999988,2795.878799999952,2796.390199999988,2793.954299999952,2795.878799999952,2796.885699999988,2797.385099999964,2797.385099999964,2801.1937999999523,3051,2801.1937999999523,5,2801.199099999964,5,10,160,15,1,0.8,0.7,Time
,,963221,001,男,21,2025-06-03_22h26.47.480,Serial_Dependence_U,2023.2.3,Win32,15.015015015020264,,,,,,2801.199299999952,188,5,2801.199299999952,188,,,,2805.517599999964,2806.0125,2804.8934999999997,2805.5175,2802.204899999976,2804.8934999999997,2806.012599999964,2806.5054999999998,2806.5054999999998,2810.465399999976,3063,2810.4655,5,2810.471,5,11,161,9,1,1.6,0.7,Time
,,963221,001,男,21,2025-06-03_22h26.47.480,Serial_Dependence_U,2023.2.3,Win32,15.015015015020264,,,,,,2810.471199999988,189,5,2810.471299999952,189,,,,2814.660699999988,2815.1517999999523,2814.142699999988,2814.6605999999642,2811.468899999976,2814.142599999964,2815.151899999976,2815.655699999988,2815.655699999988,2819.886399999976,3464,2819.886399999976,5,2819.891799999952,5,12,162,19,1,1.6,0.7,Time
,,963221,001,男,21,2025-06-03_22h26.47.480,Serial_Dependence_U,2023.2.3,Win32,15.015015015020264,,,,,,2819.892,88,5,2819.892,88,,,,2823.6884999999997,2824.182399999976,2823.175699999988,2823.688399999976,2820.892199999988,2823.1755,2824.1825,2824.6704999999997,2824.6704999999997,2828.498,3184,2828.498099999964,5,2828.503399999976,5,13,163,27,1,1.2,0.7,Time
,,963221,001,男,21,2025-06-03_22h26.47.480,Serial_Dependence_U,2023.2.3,Win32,15.015015015020264,,,,,,2828.503599999964,65,5,2828.503699999988,65,,,,2832.3039999999996,2832.802799999952,2831.792199999988,2832.303799999952,2829.5065,2831.792099999964,2832.802799999952,2833.2985,2833.2985,2838.6985,4638,2838.6985,5,2838.703799999952,5,14,164,22,1,1.2,0.3,Time
,,963221,001,男,21,2025-06-03_22h26.47.480,Serial_Dependence_U,2023.2.3,Win32,15.015015015020264,,,,,,2838.7039999999997,348,5,2838.704099999964,348,,,,2842.753199999988,2843.246899999976,2842.2414999999996,2842.753199999988,2839.6965,2842.2414999999996,2843.246899999976,2843.7477999999523,2843.7477999999523,2848.855,4468,2848.855,5,2848.860199999988,5,15,165,23,1,1.4,0.3,Time
,,963221,001,男,21,2025-06-03_22h26.47.480,Serial_Dependence_U,2023.2.3,Win32,15.015015015020264,,,,,,2848.8605,78,5,2848.8605,78,,,,2852.666899999976,2853.176199999988,2852.1634999999997,2852.666799999952,2849.8734999999997,2852.1634999999997,2853.176199999988,2853.6762999999523,2853.6762999999523,2858.245799999952,3931,2858.245799999952,5,2858.251199999988,5,16,166,17,1,1.2,0.7,Time
,,963221,001,男,21,2025-06-03_22h26.47.480,Serial_Dependence_U,2023.2.3,Win32,15.015015015020264,,,,,,2858.2515,11,5,2858.2515,11,,,,2862.457,2862.952399999976,2861.9445,2862.456899999976,2859.267699999988,2861.9445,2862.952399999976,2863.446199999988,2863.446199999988,2867.796299999952,3965,2867.796399999976,5,2867.801599999964,5,17,167,29,1,1.6,0.7,Time
,,963221,001,男,21,2025-06-03_22h26.47.480,Serial_Dependence_U,2023.2.3,Win32,15.015015015020264,,,,,,2867.801799999952,203,5,2867.801899999976,203,,,,2871.213899999976,2871.697399999976,2870.703899999976,2871.2137999999522,2868.8007999999522,2870.703799999952,2871.697399999976,2872.190299999952,2872.190399999976,2876.6839999999997,3728,2876.6839999999997,5,2876.6892999999523,5,18,168,20,1,0.8,0.3,Time
,,963221,001,男,21,2025-06-03_22h26.47.480,Serial_Dependence_U,2023.2.3,Win32,15.015015015020264,,,,,,2876.6895999999642,103,5,2876.689699999988,103,,,,2880.2554999999998,2880.743399999976,2879.7362999999523,2880.255399999976,2877.690099999964,2879.7362999999523,2880.7435,2881.243799999952,2881.243899999976,2884.5555,2931,2884.5555,5,2884.560799999952,5,19,169,6,1,1,0.7,Time
,,963221,001,男,21,2025-06-03_22h26.47.480,Serial_Dependence_U,2023.2.3,Win32,15.015015015020264,,,,,,2884.560899999976,43,5,2884.5609999999997,43,,,,2887.984099999964,2888.478699999988,2887.468099999964,2887.984099999964,2885.572699999988,2887.468,2888.478699999988,2888.965199999988,2888.965199999988,2892.6467999999522,3047,2892.6467999999522,5,2892.6524999999997,5,20,170,10,1,0.8,0.3,Time
,,963221,001,男,21,2025-06-03_22h26.47.480,Serial_Dependence_U,2023.2.3,Win32,15.015015015020264,,,,,,2892.652599999964,89,5,2892.652699999988,89,,,,2896.476699999988,2896.969399999976,2895.9635,2896.476599999964,2893.658199999988,2895.963399999976,2896.9694999999997,2897.473799999952,2897.473799999952,2901.957099999964,3589,2901.957099999964,5,2901.962599999964,5,21,171,7,1,1.2,0.7,Time
,,963221,001,男,21,2025-06-03_22h26.47.480,Serial_Dependence_U,2023.2.3,Win32,15.015015015020264,,,,,,2901.962799999952,27,5,2901.962899999976,27,,,,2906.162399999976,2906.6544999999996,2905.6465,2906.162299999952,2902.958099999964,2905.6465,2906.654599999964,2907.146399999976,2907.146399999976,2912.447199999988,4418,2912.447199999988,5,2912.452399999976,5,22,172,4,1,1.6,0.3,Time
,,963221,001,男,21,2025-06-03_22h26.47.480,Serial_Dependence_U,2023.2.3,Win32,15.015015015020264,,,,,,2912.452599999964,31,5,2912.452699999988,31,,,,2916.008199999988,2916.502899999976,2915.497599999964,2916.008099999964,2913.442599999964,2915.4975,2916.502899999976,2916.9916999999878,2916.9916999999878,2920.816399999976,3190,2920.8165,5,2920.821799999952,5,23,173,16,1,1,0.7,Time
,,963221,001,男,21,2025-06-03_22h26.47.480,Serial_Dependence_U,2023.2.3,Win32,15.015015015020264,,,,,,2920.821899999976,331,5,2920.822099999964,331,,,,2924.906899999976,2925.3965,2924.3975,2924.906899999976,2921.836899999976,2924.397399999976,2925.3965,2925.895199999988,2925.895199999988,2929.575199999988,3049,2929.575199999988,5,2929.580399999976,5,24,174,3,1,1.4,0.3,Time
,,963221,001,男,21,2025-06-03_22h26.47.480,Serial_Dependence_U,2023.2.3,Win32,15.015015015020264,,,,,,2929.5806999999877,45,5,2929.5806999999877,45,,,,2933.644899999976,2934.1385,2933.128299999952,2933.644899999976,2930.585799999952,2933.128199999988,2934.1385,2934.647199999988,2934.6472999999523,2937.7232999999524,2819,2937.7232999999524,5,2937.728599999964,5,25,175,28,1,1.4,0.7,Time
,,963221,001,男,21,2025-06-03_22h26.47.480,Serial_Dependence_U,2023.2.3,Win32,15.015015015020264,,,,,,2937.728799999952,252,5,2937.728899999976,252,,,,2941.929799999952,2942.4307999999523,2941.413199999988,2941.929799999952,2938.735599999964,2941.4130999999643,2942.4307999999523,2942.9325,2942.932599999964,2947.3855,3186,2947.3855,5,2947.3911999999877,5,26,176,24,1,1.6,0.3,Time
,,963221,001,男,21,2025-06-03_22h26.47.480,Serial_Dependence_U,2023.2.3,Win32,15.015015015020264,,,,,,2947.3914999999997,195,5,2947.3914999999997,195,,,,2951.0879999999997,2951.582,2950.5715,2951.0879999999997,2948.395,2950.5715,2951.582099999964,2952.074899999976,2952.074899999976,2955.529599999964,2552,2955.529599999964,5,2955.535099999964,5,27,177,1,1,1,0.3,Time
,,963221,001,男,21,2025-06-03_22h26.47.480,Serial_Dependence_U,2023.2.3,Win32,15.015015015020264,,,,,,2955.5352999999523,1,5,2955.535399999976,1,,,,2959.2297999999523,2959.724899999976,2958.705899999976,2959.229699999988,2956.5332999999523,2958.7056999999877,2959.724899999976,2960.2171999999878,2960.2171999999878,2964.199299999952,3353,2964.199399999976,5,2964.204599999964,5,28,178,11,1,1,0.3,Time
,,963221,001,男,21,2025-06-03_22h26.47.480,Serial_Dependence_U,2023.2.3,Win32,15.015015015020264,,,,,,2964.2047999999522,7,5,2964.204899999976,7,,,,2967.779599999964,2968.272899999976,2967.269399999976,2967.7794999999996,2965.203199999988,2967.269299999952,2968.2729999999997,2968.759899999976,2968.759899999976,2973.600899999976,3933,2973.600899999976,5,2973.606599999964,5,29,179,21,1,1,0.3,Time
,,963221,001,男,21,2025-06-03_22h26.47.480,Serial_Dependence_U,2023.2.3,Win32,15.015015015020264,,,,,,2973.606699999988,145,6,2975.313299999952,145,s,1.6156000000241875,,2979.400399999976,2979.8972999999523,2978.881,2979.400299999952,2976.3190999999642,2978.881,2979.8972999999523,2980.384799999952,2980.384799999952,2985.155199999988,2835,2985.155199999988,5,2985.160399999976,6,0,180,13,1,1.4,0.3,Time
,,963221,001,男,21,2025-06-03_22h26.47.480,Serial_Dependence_U,2023.2.3,Win32,15.015015015020264,,,,,,2985.1605,222,6,2985.161299999952,222,,,,2988.598,2989.0851999999877,2988.088399999976,2988.597899999976,2986.165399999976,2988.088299999952,2989.0851999999877,2989.581599999964,2989.581699999988,2993.038299999952,2817,2993.038299999952,5,2993.043599999964,6,1,181,20,1,0.8,0.3,Time
,,963221,001,男,21,2025-06-03_22h26.47.480,Serial_Dependence_U,2023.2.3,Win32,15.015015015020264,,,,,,2993.043799999952,311,6,2993.043899999976,311,,,,2996.842699999988,2997.3297999999522,2996.3325999999643,2996.842699999988,2994.046699999988,2996.3325,2997.3297999999522,2997.828599999964,2997.828599999964,3002.0515,3329,3002.0515,5,3002.057099999964,6,2,182,22,1,1.2,0.3,Time
,,963221,001,男,21,2025-06-03_22h26.47.480,Serial_Dependence_U,2023.2.3,Win32,15.015015015020264,,,,,,3002.057399999976,13,6,3002.057399999976,13,,,,3005.626699999988,3006.1234999999997,3005.107199999988,3005.626599999964,3003.0615,3005.107199999988,3006.1234999999997,3006.6177999999522,3006.6177999999522,3011.467399999976,3580,3011.4674999999997,5,3011.4727999999523,6,3,183,16,1,1,0.7,Time
,,963221,001,男,21,2025-06-03_22h26.47.480,Serial_Dependence_U,2023.2.3,Win32,15.015015015020264,,,,,,3011.473,32,6,3011.473199999988,32,,,,3015.164099999964,3015.6555,3014.645399999976,3015.164099999964,3012.4755999999643,3014.645399999976,3015.6555,3016.1499999999996,3016.1499999999996,3020.708899999976,3297,3020.708899999976,5,3020.714199999988,6,4,184,21,1,1,0.3,Time
,,963221,001,男,21,2025-06-03_22h26.47.480,Serial_Dependence_U,2023.2.3,Win32,15.015015015020264,,,,,,3020.714399999976,226,6,3020.714399999976,226,,,,3024.9645,3025.456899999976,3024.447799999952,3024.964399999976,3021.715699999988,3024.447699999988,3025.456899999976,3025.952099999964,3025.952099999964,3029.656399999976,2939,3029.656399999976,5,3029.661699999988,6,5,185,4,1,1.6,0.3,Time
,,963221,001,男,21,2025-06-03_22h26.47.480,Serial_Dependence_U,2023.2.3,Win32,15.015015015020264,,,,,,3029.661899999976,186,6,3029.662,186,,,,3033.851599999964,3034.354299999952,3033.339,3033.851399999976,3030.667399999976,3033.339,3034.354299999952,3034.8585,3034.858599999964,3039.197399999976,3832,3039.197399999976,5,3039.202699999988,6,6,186,9,1,1.6,0.7,Time
,,963221,001,男,21,2025-06-03_22h26.47.480,Serial_Dependence_U,2023.2.3,Win32,15.015015015020264,,,,,,3039.202899999976,133,6,3039.202899999976,133,,,,3043.008399999976,3043.493099999964,3042.496299999952,3043.008299999952,3040.197299999952,3042.4961999999878,3043.493099999964,3043.985399999976,3043.9855,3048.857899999976,4101,3048.857899999976,5,3048.8632999999522,6,7,187,7,1,1.2,0.7,Time
,,963221,001,男,21,2025-06-03_22h26.47.480,Serial_Dependence_U,2023.2.3,Win32,15.015015015020264,,,,,,3048.8635,47,6,3048.863599999964,47,,,,3052.531599999964,3053.025399999976,3052.029199999988,3052.531599999964,3049.866599999964,3052.0290999999643,3053.025399999976,3053.533099999964,3053.533199999988,3057.871099999964,3579,3057.8711999999878,5,3057.876599999964,6,8,188,1,1,1,0.3,Time
,,963221,001,男,21,2025-06-03_22h26.47.480,Serial_Dependence_U,2023.2.3,Win32,15.015015015020264,,,,,,3057.876899999976,68,6,3057.876899999976,68,,,,3061.4172999999523,3061.917799999952,3060.907599999964,3061.417199999988,3058.875199999988,3060.907599999964,3061.917799999952,3062.412299999952,3062.412299999952,3067.2954999999997,3982,3067.2954999999997,5,3067.301199999988,6,9,189,6,1,1,0.7,Time
,,963221,001,男,21,2025-06-03_22h26.47.480,Serial_Dependence_U,2023.2.3,Win32,15.015015015020264,,,,,,3067.3015,308,6,3067.3015,308,,,,3071.384599999964,3071.885099999964,3070.857799999952,3071.384599999964,3068.300099999964,3070.857799999952,3071.885099999964,3072.389799999952,3072.389799999952,3076.699399999976,3544,3076.6994999999997,5,3076.704899999976,6,10,190,3,1,1.4,0.3,Time
,,963221,001,男,21,2025-06-03_22h26.47.480,Serial_Dependence_U,2023.2.3,Win32,15.015015015020264,,,,,,3076.705199999988,359,6,3076.705199999988,359,,,,3080.7616999999877,3081.252199999988,3080.2562999999523,3080.761599999964,3077.718699999988,3080.2562999999523,3081.252199999988,3081.7436999999877,3081.7436999999877,3085.220599999964,2845,3085.220699999988,5,3085.2259999999997,6,11,191,18,1,1.4,0.7,Time
,,963221,001,男,21,2025-06-03_22h26.47.480,Serial_Dependence_U,2023.2.3,Win32,15.015015015020264,,,,,,3085.226099999964,105,6,3085.226199999988,105,,,,3088.6492999999523,3089.149399999976,3088.1389999999997,3088.649199999988,3086.237299999952,3088.1389999999997,3089.149399999976,3089.653699999988,3089.6537999999523,3093.864699999988,3455,3093.864699999988,5,3093.870099999964,6,12,192,5,1,0.8,0.7,Time
,,963221,001,男,21,2025-06-03_22h26.47.480,Serial_Dependence_U,2023.2.3,Win32,15.015015015020264,,,,,,3093.8702999999523,286,6,3093.870399999976,286,,,,3097.6917999999523,3098.194,3097.177099999964,3097.6917999999523,3094.866799999952,3097.1769999999997,3098.194,3098.6884999999997,3098.6884999999997,3102.393299999952,2824,3102.393399999976,5,3102.398599999964,6,13,193,17,1,1.2,0.7,Time
,,963221,001,男,21,2025-06-03_22h26.47.480,Serial_Dependence_U,2023.2.3,Win32,15.015015015020264,,,,,,3102.398799999952,311,6,3102.398899999976,311,,,,3106.193599999964,3106.697199999988,3105.684699999988,3106.1935,3103.4015,3105.684599999964,3106.697199999988,3107.1924999999997,3107.1924999999997,3111.797399999976,3846,3111.797399999976,5,3111.802699999988,6,14,194,2,1,1.2,0.3,Time
,,963221,001,男,21,2025-06-03_22h26.47.480,Serial_Dependence_U,2023.2.3,Win32,15.015015015020264,,,,,,3111.802899999976,93,6,3111.802899999976,93,,,,3115.241299999952,3115.735699999988,3114.733599999964,3115.241199999988,3112.796299999952,3114.7335,3115.735699999988,3116.221699999988,3116.221799999952,3120.683299999952,3453,3120.683299999952,5,3120.688599999964,6,15,195,15,1,0.8,0.7,Time
,,963221,001,男,21,2025-06-03_22h26.47.480,Serial_Dependence_U,2023.2.3,Win32,15.015015015020264,,,,,,3120.688799999952,89,6,3120.688899999976,89,,,,3124.757599999964,3125.252,3124.232,3124.7574999999997,3121.689399999976,3124.231899999976,3125.252,3125.7515,3125.7515,3129.954199999988,3447,3129.954199999988,5,3129.9595,6,16,196,28,1,1.4,0.7,Time
,,963221,001,男,21,2025-06-03_22h26.47.480,Serial_Dependence_U,2023.2.3,Win32,15.015015015020264,,,,,,3129.959599999964,110,6,3129.959699999988,110,,,,3134.039599999964,3134.536399999976,3133.538599999964,3134.0395,3131.077699999988,3133.5384999999997,3134.536399999976,3135.030399999976,3135.0305,3138.7459999999996,2821,3138.7459999999996,5,3138.751399999976,6,17,197,23,1,1.4,0.3,Time
,,963221,001,男,21,2025-06-03_22h26.47.480,Serial_Dependence_U,2023.2.3,Win32,15.015015015020264,,,,,,3138.751599999964,240,6,3138.751599999964,240,,,,3142.1757999999522,3142.677899999976,3141.663199999988,3142.1757999999522,3139.7464999999997,3141.663199999988,3142.677899999976,3143.169399999976,3143.1695,3147.302599999964,2981,3147.302599999964,5,3147.308,6,18,198,25,1,0.8,0.7,Time
,,963221,001,男,21,2025-06-03_22h26.47.480,Serial_Dependence_U,2023.2.3,Win32,15.015015015020264,,,,,,3147.3080999999643,25,6,3147.308199999988,25,,,,3150.731399999976,3151.222599999964,3150.214899999976,3150.731299999952,3148.303399999976,3150.214899999976,3151.222599999964,3151.716899999976,3151.716899999976,3155.907199999988,3177,3155.907299999952,5,3155.912399999976,6,19,199,10,1,0.8,0.3,Time
,,963221,001,男,21,2025-06-03_22h26.47.480,Serial_Dependence_U,2023.2.3,Win32,15.015015015020264,,,,,,3155.912699999988,346,6,3155.912699999988,346,,,,3160.1317999999524,3160.625199999988,3159.6144999999997,3160.131699999988,3156.909199999988,3159.614399999976,3160.625199999988,3161.120699999988,3161.120699999988,3165.3264999999997,3435,3165.3264999999997,5,3165.331699999988,6,20,200,24,1,1.6,0.3,Time
,,963221,001,男,21,2025-06-03_22h26.47.480,Serial_Dependence_U,2023.2.3,Win32,15.015015015020264,,,,,,3165.332,352,6,3165.332,352,,,,3169.010399999976,3169.5054999999998,3168.495199999988,3169.010399999976,3166.328,3168.495099999964,3169.5054999999998,3169.999,3169.999099999964,3173.699899999976,2929,3173.699899999976,5,3173.705199999988,6,21,201,11,1,1,0.3,Time
,,963221,001,男,21,2025-06-03_22h26.47.480,Serial_Dependence_U,2023.2.3,Win32,15.015015015020264,,,,,,3173.7055,240,6,3173.7055,240,,,,3177.257,3177.751899999976,3176.743799999952,3177.2567999999524,3174.711899999976,3176.7436999999877,3177.751899999976,3178.2452999999523,3178.2452999999523,3181.435599999964,2554,3181.4356999999877,5,3181.441,6,22,202,26,1,1,0.7,Time
,,963221,001,男,21,2025-06-03_22h26.47.480,Serial_Dependence_U,2023.2.3,Win32,15.015015015020264,,,,,,3181.441199999988,164,6,3181.441199999988,164,,,,3185.240699999988,3185.744199999988,3184.7315,3185.240599999964,3182.440799999952,3184.731299999952,3185.744199999988,3186.2320999999642,3186.2320999999642,3189.955099999964,2951,3189.955199999988,5,3189.9604999999997,6,23,203,27,1,1.2,0.7,Time
,,963221,001,男,21,2025-06-03_22h26.47.480,Serial_Dependence_U,2023.2.3,Win32,15.015015015020264,,,,,,3189.960599999964,253,6,3189.960699999988,253,,,,3194.0449999999996,3194.5425999999643,3193.529899999976,3194.044899999976,3190.976699999988,3193.529799999952,3194.542699999988,3195.0384999999997,3195.0384999999997,3199.119599999964,3329,3199.119699999988,5,3199.1247999999523,6,24,204,8,1,1.4,0.7,Time
,,963221,001,男,21,2025-06-03_22h26.47.480,Serial_Dependence_U,2023.2.3,Win32,15.015015015020264,,,,,,3199.125,183,6,3199.1250999999643,183,,,,3203.290599999964,3203.790599999964,3202.786899999976,3203.2905,3200.125699999988,3202.786799999952,3203.790599999964,3204.283699999988,3204.283699999988,3208.224899999976,3308,3208.225,5,3208.230599999964,6,25,205,19,1,1.6,0.7,Time
,,963221,001,男,21,2025-06-03_22h26.47.480,Serial_Dependence_U,2023.2.3,Win32,15.015015015020264,,,,,,3208.230699999988,201,6,3208.230799999952,201,,,,3212.459399999976,3212.9555,3211.947899999976,3212.459399999976,3209.267099999964,3211.947799999952,3212.9555,3213.4429999999998,3213.4429999999998,3218.2929999999997,4087,3218.2929999999997,5,3218.298699999988,6,26,206,29,1,1.6,0.7,Time
,,963221,001,男,21,2025-06-03_22h26.47.480,Serial_Dependence_U,2023.2.3,Win32,15.015015015020264,,,,,,3218.2987999999523,198,6,3218.298899999976,198,,,,3222.103399999976,3222.602699999988,3221.590199999988,3222.103399999976,3219.298299999952,3221.590099999964,3222.602699999988,3223.099199999988,3223.099299999952,3227.6859999999997,3821,3227.6859999999997,5,3227.691399999976,6,27,207,12,1,1.2,0.3,Time
,,963221,001,男,21,2025-06-03_22h26.47.480,Serial_Dependence_U,2023.2.3,Win32,15.015015015020264,,,,,,3227.691699999988,154,6,3227.691699999988,154,,,,3231.134,3231.6267999999523,3230.619299999952,3231.133899999976,3228.692,3230.619199999988,3231.6267999999523,3232.127199999988,3232.127199999988,3235.461199999988,2561,3235.461299999952,5,3235.4665,6,28,208,0,1,0.8,0.3,Time
,,963221,001,男,21,2025-06-03_22h26.47.480,Serial_Dependence_U,2023.2.3,Win32,15.015015015020264,,,,,,3235.466799999952,178,6,3235.466899999976,178,,,,3239.6492999999523,3240.1566999999877,3239.134199999988,3239.6492999999523,3236.468,3239.1340999999643,3240.1566999999877,3240.639399999976,3240.639399999976,3244.7297999999523,3075,3244.7297999999523,5,3244.735599999964,6,29,209,14,1,1.6,0.3,Time
,,963221,001,男,21,2025-06-03_22h26.47.480,Serial_Dependence_U,2023.2.3,Win32,15.015015015020264,,,,,,3244.735799999952,295,7,3246.675699999988,295,s,1.8533999999758635,,3250.352,3250.846699999988,3249.838099999964,3250.351899999976,3247.669099999964,3249.837899999976,3250.846699999988,3251.343899999976,3251.343899999976,3256.0780999999643,3971,3256.0782999999524,5,3256.0834999999997,7,0,210,1,1,1,0.3,Time
,,963221,001,男,21,2025-06-03_22h26.47.480,Serial_Dependence_U,2023.2.3,Win32,15.015015015020264,,,,,,3256.083699999988,358,7,3256.084399999976,358,,,,3259.633599999964,3260.127199999988,3259.131899999976,3259.633599999964,3257.076899999976,3259.131899999976,3260.127199999988,3260.6166999999878,3260.616799999952,3264.1865,3065,3264.1865,5,3264.1917999999523,7,1,211,16,1,1,0.7,Time
,,963221,001,男,21,2025-06-03_22h26.47.480,Serial_Dependence_U,2023.2.3,Win32,15.015015015020264,,,,,,3264.192,49,7,3264.1920999999643,49,,,,3268.379199999988,3268.869099999964,3267.865299999952,3268.379199999988,3265.196699999988,3267.865299999952,3268.869099999964,3269.361,3269.361099999964,3274.1245,4117,3274.124599999964,5,3274.129799999952,7,2,212,4,1,1.6,0.3,Time
,,963221,001,男,21,2025-06-03_22h26.47.480,Serial_Dependence_U,2023.2.3,Win32,15.015015015020264,,,,,,3274.1299999999997,269,7,3274.130099999964,269,,,,3277.675099999964,3278.175899999976,3277.1652999999524,3277.675099999964,3275.252799999952,3277.165199999988,3278.175899999976,3278.664699999988,3278.6647999999523,3281.734,2560,3281.734,5,3281.739799999952,7,3,213,15,1,0.8,0.7,Time
,,963221,001,男,21,2025-06-03_22h26.47.480,Serial_Dependence_U,2023.2.3,Win32,15.015015015020264,,,,,,3281.74,158,7,3281.740099999964,158,,,,3285.9534999999996,3286.4437999999523,3285.441599999964,3285.9534999999996,3282.753199999988,3285.4415,3286.4437999999523,3286.9435,3286.9435,3290.8976999999877,3188,3290.8976999999877,5,3290.903299999952,7,4,214,24,1,1.6,0.3,Time
,,963221,001,男,21,2025-06-03_22h26.47.480,Serial_Dependence_U,2023.2.3,Win32,15.015015015020264,,,,,,3290.9035,9,7,3290.903599999964,9,,,,3294.588099999964,3295.083399999976,3294.081099999964,3294.5879999999997,3291.900899999976,3294.0809999999997,3295.0834999999997,3295.578199999988,3295.578199999988,3299.034299999952,2935,3299.034299999952,5,3299.039599999964,7,5,215,21,1,1,0.3,Time
,,963221,001,男,21,2025-06-03_22h26.47.480,Serial_Dependence_U,2023.2.3,Win32,15.015015015020264,,,,,,3299.0397999999523,248,7,3299.0397999999523,248,,,,3302.455,3302.953599999964,3301.9449999999997,3302.454899999976,3300.047599999964,3301.944899999976,3302.953599999964,3303.458599999964,3303.458599999964,3306.381399999976,2415,3306.3815,5,3306.3866999999877,7,6,216,25,1,0.8,0.7,Time
,,963221,001,男,21,2025-06-03_22h26.47.480,Serial_Dependence_U,2023.2.3,Win32,15.015015015020264,,,,,,3306.386899999976,132,7,3306.3869999999997,132,,,,3310.170899999976,3310.661,3309.663799999952,3310.170899999976,3307.384799999952,3309.663699999988,3310.661,3311.152899999976,3311.153,3315.2245,3042,3315.2245,5,3315.2297999999523,7,7,217,27,1,1.2,0.7,Time
,,963221,001,男,21,2025-06-03_22h26.47.480,Serial_Dependence_U,2023.2.3,Win32,15.015015015020264,,,,,,3315.23,220,7,3315.2300999999643,220,,,,3318.904799999952,3319.409099999964,3318.388399999976,3318.904799999952,3316.2342999999523,3318.3882999999523,3319.409199999988,3319.906599999964,3319.906599999964,3322.8547999999523,2690,3322.8547999999523,5,3322.860099999964,7,8,218,11,1,1,0.3,Time
,,963221,001,男,21,2025-06-03_22h26.47.480,Serial_Dependence_U,2023.2.3,Win32,15.015015015020264,,,,,,3322.860299999952,190,7,3322.860299999952,190,,,,3326.680899999976,3327.1684999999998,3326.1630999999643,3326.680899999976,3323.8599999999997,3326.163,3327.1684999999998,3327.656,3327.656099999964,3331.3283999999758,2927,3331.3283999999758,5,3331.333699999988,7,9,219,12,1,1.2,0.3,Time
,,963221,001,男,21,2025-06-03_22h26.47.480,Serial_Dependence_U,2023.2.3,Win32,15.015015015020264,,,,,,3331.334,241,7,3331.334,241,,,,3335.446399999976,3335.940299999952,3334.9404999999997,3335.4462999999523,3332.361,3334.940399999976,3335.940299999952,3336.438099999964,3336.438099999964,3340.407099999964,3460,3340.407099999964,5,3340.412399999976,7,10,220,23,1,1.4,0.3,Time
,,963221,001,男,21,2025-06-03_22h26.47.480,Serial_Dependence_U,2023.2.3,Win32,15.015015015020264,,,,,,3340.412599999964,20,7,3340.412699999988,20,,,,3343.9846999999877,3344.478099999964,3343.474299999952,3343.9846999999877,3341.421,3343.474199999988,3344.478099999964,3344.9649999999997,3344.9649999999997,3349.444899999976,3846,3349.444899999976,5,3349.450299999952,7,11,221,26,1,1,0.7,Time
,,963221,001,男,21,2025-06-03_22h26.47.480,Serial_Dependence_U,2023.2.3,Win32,15.015015015020264,,,,,,3349.4505,320,7,3349.450599999964,320,,,,3352.862599999964,3353.364699999988,3352.3477999999523,3352.862599999964,3350.443099999964,3352.347699999988,3353.364699999988,3353.865199999988,3353.865199999988,3358.5516999999877,3793,3358.5516999999877,5,3358.556899999976,7,12,222,10,1,0.8,0.3,Time
,,963221,001,男,21,2025-06-03_22h26.47.480,Serial_Dependence_U,2023.2.3,Win32,15.015015015020264,,,,,,3358.557099999964,114,7,3358.557199999988,114,,,,3362.7767999999523,3363.274799999952,3362.264199999988,3362.776699999988,3359.577099999964,3362.264199999988,3363.274799999952,3363.762599999964,3363.762599999964,3368.647099999964,3982,3368.647199999988,5,3368.652799999952,7,13,223,29,1,1.6,0.7,Time
,,963221,001,男,21,2025-06-03_22h26.47.480,Serial_Dependence_U,2023.2.3,Win32,15.015015015020264,,,,,,3368.652899999976,108,7,3368.653,108,,,,3372.841,3373.332,3372.3284999999996,3372.841,3369.654599999964,3372.3284999999996,3373.332,3373.8212999999523,3373.8212999999523,3378.421199999988,3706,3378.421299999952,5,3378.426399999976,7,14,224,19,1,1.6,0.7,Time
,,963221,001,男,21,2025-06-03_22h26.47.480,Serial_Dependence_U,2023.2.3,Win32,15.015015015020264,,,,,,3378.426599999964,31,7,3378.4266999999877,31,,,,3382.253399999976,3382.7517999999523,3381.735699999988,3382.253299999952,3379.4305,3381.735599999964,3382.751899999976,3383.242099999964,3383.242099999964,3388.217099999964,4205,3388.217099999964,5,3388.2225,7,15,225,17,1,1.2,0.7,Time
,,963221,001,男,21,2025-06-03_22h26.47.480,Serial_Dependence_U,2023.2.3,Win32,15.015015015020264,,,,,,3388.2227999999523,293,7,3388.222899999976,293,,,,3392.408099999964,3392.908099999964,3391.888099999964,3392.408099999964,3389.213299999952,3391.888,3392.908099999964,3393.401099999964,3393.401099999964,3396.742199999988,2545,3396.742199999988,5,3396.7475,7,16,226,14,1,1.6,0.3,Time
,,963221,001,男,21,2025-06-03_22h26.47.480,Serial_Dependence_U,2023.2.3,Win32,15.015015015020264,,,,,,3396.747699999988,146,7,3396.7477999999523,146,,,,3400.556299999952,3401.056599999964,3400.046599999964,3400.5561999999877,3397.748799999952,3400.0465,3401.056599999964,3401.553699999988,3401.553699999988,3405.134299999952,2930,3405.134299999952,5,3405.139599999964,7,17,227,7,1,1.2,0.7,Time
,,963221,001,男,21,2025-06-03_22h26.47.480,Serial_Dependence_U,2023.2.3,Win32,15.015015015020264,,,,,,3405.139799999952,340,7,3405.139799999952,340,,,,3409.1965999999643,3409.691399999976,3408.673599999964,3409.1965999999643,3406.136799999952,3408.6735,3409.691399999976,3410.188699999988,3410.188699999988,3413.123899999976,2303,3413.123899999976,5,3413.1295,7,18,228,13,1,1.4,0.3,Time
,,963221,001,男,21,2025-06-03_22h26.47.480,Serial_Dependence_U,2023.2.3,Win32,15.015015015020264,,,,,,3413.1295999999643,56,7,3413.129699999988,56,,,,3416.551399999976,3417.046199999988,3416.042099999964,3416.5512999999523,3414.1369999999997,3416.042,3417.046199999988,3417.5389999999998,3417.539099999964,3421.249699999988,2833,3421.249699999988,5,3421.2549999999997,7,19,229,20,1,0.8,0.3,Time
,,963221,001,男,21,2025-06-03_22h26.47.480,Serial_Dependence_U,2023.2.3,Win32,15.015015015020264,,,,,,3421.255199999988,124,7,3421.255299999952,124,,,,3425.0597999999522,3425.565799999952,3424.545699999988,3425.0597999999522,3422.252799999952,3424.545699999988,3425.565799999952,3426.0564999999997,3426.056599999964,3430.152,3074,3430.152,5,3430.157399999976,7,20,230,22,1,1.2,0.3,Time
,,963221,001,男,21,2025-06-03_22h26.47.480,Serial_Dependence_U,2023.2.3,Win32,15.015015015020264,,,,,,3430.157599999964,293,7,3430.157599999964,293,,,,3434.349899999976,3434.845299999952,3433.832799999952,3434.349899999976,3431.156899999976,3433.832699999988,3434.845299999952,3435.331899999976,3435.331899999976,3439.5429999999997,3327,3439.5429999999997,5,3439.548299999952,7,21,231,9,1,1.6,0.7,Time
,,963221,001,男,21,2025-06-03_22h26.47.480,Serial_Dependence_U,2023.2.3,Win32,15.015015015020264,,,,,,3439.5485,355,7,3439.548599999964,355,,,,3443.116199999988,3443.6074999999996,3442.595099999964,3443.116199999988,3440.553199999988,3442.595,3443.607599999964,3444.108699999988,3444.108699999988,3447.6720999999643,2928,3447.6720999999643,5,3447.677399999976,7,22,232,6,1,1,0.7,Time
,,963221,001,男,21,2025-06-03_22h26.47.480,Serial_Dependence_U,2023.2.3,Win32,15.015015015020264,,,,,,3447.677599999964,108,7,3447.677699999988,108,,,,3451.743199999988,3452.239,3451.2342999999523,3451.743099999964,3448.681799999952,3451.234199999988,3452.239099999964,3452.7295,3452.7295,3456.7326999999877,3240,3456.7326999999877,5,3456.737899999976,7,23,233,8,1,1.4,0.7,Time
,,963221,001,男,21,2025-06-03_22h26.47.480,Serial_Dependence_U,2023.2.3,Win32,15.015015015020264,,,,,,3456.738099999964,328,7,3456.738199999988,328,,,,3460.521699999988,3461.023599999964,3460.0155,3460.521599999964,3457.739,3460.0155,3461.023599999964,3461.537899999976,3461.538,3465.254,3087,3465.254,5,3465.259799999952,7,24,234,2,1,1.2,0.3,Time
,,963221,001,男,21,2025-06-03_22h26.47.480,Serial_Dependence_U,2023.2.3,Win32,15.015015015020264,,,,,,3465.2599999999998,94,7,3465.2599999999998,94,,,,3469.320799999952,3469.8190999999642,3468.806699999988,3469.320599999964,3466.258,3468.806699999988,3469.8190999999642,3470.316,3470.316,3475.4352999999523,4110,3475.4352999999523,5,3475.440899999976,7,25,235,28,1,1.4,0.7,Time
,,963221,001,男,21,2025-06-03_22h26.47.480,Serial_Dependence_U,2023.2.3,Win32,15.015015015020264,,,,,,3475.441099999964,172,7,3475.441199999988,172,,,,3479.496599999964,3479.9849999999997,3478.979899999976,3479.4964999999997,3476.444799999952,3478.9797999999523,3479.9849999999997,3480.498599999964,3480.498599999964,3484.815899999976,3426,3484.816,5,3484.8212999999523,7,26,236,18,1,1.4,0.7,Time
,,963221,001,男,21,2025-06-03_22h26.47.480,Serial_Dependence_U,2023.2.3,Win32,15.015015015020264,,,,,,3484.8215,117,7,3484.8215,117,,,,3488.262199999988,3488.7517999999523,3487.754799999952,3488.262199999988,3485.826599999964,3487.754799999952,3488.7517999999523,3489.2374999999997,3489.2374999999997,3493.211,3206,3493.211099999964,5,3493.2162999999523,7,27,237,0,1,0.8,0.3,Time
,,963221,001,男,21,2025-06-03_22h26.47.480,Serial_Dependence_U,2023.2.3,Win32,15.015015015020264,,,,,,3493.2165999999643,84,7,3493.2165999999643,84,,,,3497.280599999964,3497.777799999952,3496.751599999964,3497.280599999964,3494.2255999999643,3496.7515,3497.777799999952,3498.272199999988,3498.272199999988,3502.7549999999997,3719,3502.7549999999997,5,3502.760299999952,7,28,238,3,1,1.4,0.3,Time
,,963221,001,男,21,2025-06-03_22h26.47.480,Serial_Dependence_U,2023.2.3,Win32,15.015015015020264,,,,,,3502.7605,314,7,3502.760599999964,314,,,,3506.2056999999877,3506.7014999999997,3505.690699999988,3506.205599999964,3503.764299999952,3505.690599999964,3506.701599999964,3507.187899999976,3507.1879999999996,3510.770199999988,2829,3510.770199999988,5,3510.775399999976,7,29,239,5,1,0.8,0.7,Time
,,963221,001,男,21,2025-06-03_22h26.47.480,Serial_Dependence_U,2023.2.3,Win32,15.015015015020264,,,,,,3510.775599999964,114,8,3512.531,114,s,1.679799999952138,,3515.944599999964,3516.4404999999997,3515.432299999952,3515.944599999964,3513.525699999988,3515.432299999952,3516.440599999964,3516.928399999976,3516.928399999976,3521.337799999952,3757,3521.337899999976,5,3521.3435,8,0,240,10,1,0.8,0.3,Time
,,963221,001,男,21,2025-06-03_22h26.47.480,Serial_Dependence_U,2023.2.3,Win32,15.015015015020264,,,,,,3521.343699999988,117,8,3521.344399999976,117,,,,3525.1724999999997,3525.667799999952,3524.6605,3525.172399999976,3522.353599999964,3524.660399999976,3525.667799999952,3526.166899999976,3526.166899999976,3530.754199999988,3823,3530.7542999999523,5,3530.759699999988,8,1,241,17,1,1.2,0.7,Time
,,963221,001,男,21,2025-06-03_22h26.47.480,Serial_Dependence_U,2023.2.3,Win32,15.015015015020264,,,,,,3530.759899999976,318,8,3530.7599999999998,318,,,,3534.955799999952,3535.4534999999996,3534.4325,3534.9556999999877,3531.753599999964,3534.4325,3535.4534999999996,3535.9469999999997,3535.947099999964,3539.915799999952,3587,3539.915899999976,5,3539.921099999964,8,2,242,4,1,1.6,0.3,Time
,,963221,001,男,21,2025-06-03_22h26.47.480,Serial_Dependence_U,2023.2.3,Win32,15.015015015020264,,,,,,3539.921299999952,174,8,3539.921399999976,174,,,,3543.740099999964,3544.230599999964,3543.227699999988,3543.74,3540.927599999964,3543.2275999999642,3544.230599999964,3544.726399999976,3544.726399999976,3548.063699999988,2701,3548.063699999988,5,3548.069,8,3,243,7,1,1.2,0.7,Time
,,963221,001,男,21,2025-06-03_22h26.47.480,Serial_Dependence_U,2023.2.3,Win32,15.015015015020264,,,,,,3548.0692999999524,174,8,3548.0692999999524,174,,,,3552.274899999976,3552.7664999999997,3551.760699999988,3552.274699999988,3549.073699999988,3551.7605,3552.766599999964,3553.255799999952,3553.255799999952,3557.210399999976,3194,3557.210399999976,5,3557.216,8,4,244,9,1,1.6,0.7,Time
,,963221,001,男,21,2025-06-03_22h26.47.480,Serial_Dependence_U,2023.2.3,Win32,15.015015015020264,,,,,,3557.216099999964,20,8,3557.216099999964,20,,,,3560.6562999999524,3561.165599999964,3560.1364999999996,3560.6562999999524,3558.218899999976,3560.136399999976,3561.165599999964,3561.663399999976,3561.663399999976,3564.840899999976,2422,3564.840899999976,5,3564.846,8,5,245,15,1,0.8,0.7,Time
,,963221,001,男,21,2025-06-03_22h26.47.480,Serial_Dependence_U,2023.2.3,Win32,15.015015015020264,,,,,,3564.846199999988,189,8,3564.846299999952,189,,,,3568.9125,3569.404799999952,3568.399199999988,3568.9125,3565.85,3568.399099999964,3569.404799999952,3569.897099999964,3569.897099999964,3574.250899999976,3324,3574.250899999976,5,3574.256,8,6,246,28,1,1.4,0.7,Time
,,963221,001,男,21,2025-06-03_22h26.47.480,Serial_Dependence_U,2023.2.3,Win32,15.015015015020264,,,,,,3574.2562999999523,15,8,3574.2562999999523,15,,,,3578.464899999976,3578.973899999976,3577.9494999999997,3578.464799999952,3575.261,3577.949399999976,3578.973899999976,3579.500299999952,3579.500299999952,3584.370399999976,3967,3584.3705,5,3584.375699999988,8,7,247,14,1,1.6,0.3,Time
,,963221,001,男,21,2025-06-03_22h26.47.480,Serial_Dependence_U,2023.2.3,Win32,15.015015015020264,,,,,,3584.375899999976,70,8,3584.3759999999997,70,,,,3588.585699999988,3589.082,3588.067299999952,3588.585599999964,3585.3849999999998,3588.067299999952,3589.082,3589.570199999988,3589.570299999952,3594.173699999988,3714,3594.173699999988,5,3594.1789999999996,8,8,248,19,1,1.6,0.7,Time
,,963221,001,男,21,2025-06-03_22h26.47.480,Serial_Dependence_U,2023.2.3,Win32,15.015015015020264,,,,,,3594.1791999999878,284,8,3594.179299999952,284,,,,3598.246899999976,3598.7416999999878,3597.7346999999877,3598.246899999976,3595.192799999952,3597.7345999999643,3598.7416999999878,3599.2371999999878,3599.2371999999878,3604.227,3973,3604.227099999964,5,3604.2324999999996,8,9,249,3,1,1.4,0.3,Time
,,963221,001,男,21,2025-06-03_22h26.47.480,Serial_Dependence_U,2023.2.3,Win32,15.015015015020264,,,,,,3604.2326999999877,195,8,3604.232799999952,195,,,,3607.9289999999996,3608.423099999964,3607.415,3607.928899999976,3605.2374999999997,3607.415,3608.423099999964,3608.919199999988,3608.919199999988,3612.240899999976,2561,3612.241,5,3612.2461999999878,8,10,250,1,1,1,0.3,Time
,,963221,001,男,21,2025-06-03_22h26.47.480,Serial_Dependence_U,2023.2.3,Win32,15.015015015020264,,,,,,3612.2463999999763,90,8,3612.2465,90,,,,3616.3103999999757,3616.801899999976,3615.793899999976,3616.310299999952,3613.2581999999875,3615.793899999976,3616.8019999999997,3617.296599999964,3617.296699999988,3624.5417999999518,1918,3624.5417999999518,5,3624.547399999976,8,11,251,23,1,1.4,0.3,Time
,,963221,001,男,21,2025-06-03_22h26.47.480,Serial_Dependence_U,2023.2.3,Win32,15.015015015020264,,,,,,3624.5476999999883,258,8,3624.5476999999883,258,,,,3628.1089999999995,3628.608699999988,3627.6027999999524,3628.1089999999995,3625.5503999999764,3627.6027999999524,3628.608699999988,3629.098099999964,3629.098099999964,3633.072099999964,3208,3633.0722999999525,5,3633.0778999999757,8,12,252,26,1,1,0.7,Time
,,963221,001,男,21,2025-06-03_22h26.47.480,Serial_Dependence_U,2023.2.3,Win32,15.015015015020264,,,,,,3633.0779999999995,350,8,3633.0780999999643,350,,,,3636.498299999952,3636.994299999952,3635.9743999999764,3636.498299999952,3634.066299999952,3635.9743999999764,3636.994299999952,3637.492799999952,3637.492799999952,3640.952,2702,3640.952099999964,5,3640.9573999999757,8,13,253,25,1,0.8,0.7,Time
