Scale_setup.started,Scale_setup.stopped,participant,session,sex,age,date,expName,psychopyVersion,OS,frameRate,Intro.started,Intro.stopped,key_resp_2.keys,key_resp_2.rt,key_resp_2.duration,block.started,direction,Block_id,block.stopped,trial_direction,Block_resp_2.keys,Block_resp_2.rt,Block_resp_2.duration,ITI.started,ITI.stopped,Mask_2.started,Mask_2.stopped,encoding.started,encoding.stopped,Cue.started,Cue.stopped,Response.started,Response.stopped,keyDuration,Feedback_Time.started,FeedbackID_T,Feedback_Time.stopped,trials.thisRepN,trials.thisTrialN,trials.thisN,trials.thisIndex,trials.ran,TimeDur,Coherence1,TrialType
0.0004000000059534159,0.000600000008915913,996804,001,女,22,2025-06-04_10h44.04.633,Serial_Dependence_U,2023.2.3,Win32,126.58227848063959,,,,,,,,,,,,,,,,,,,,,,,,,,,,,,,,,,,
,,996804,001,女,22,2025-06-04_10h44.04.633,Serial_Dependence_U,2023.2.3,Win32,126.58227848063959,4.946799999997012,89.28790000000598,space,84.30840000000595,,,,,,,,,,,,,,,,,,,,,,,,,,,,,,,
,,996804,001,女,22,2025-06-04_10h44.04.633,Serial_Dependence_U,2023.2.3,Win32,126.58227848063959,,,,,,89.30240000000597,187,0,92.18479999999701,187,s,2.8669000000059555,,95.95820000000296,96.45779999999704,95.45699999999997,95.958,93.19240000000596,95.456799999997,96.45810000000895,96.95640000000597,96.956799999997,98.80670000000296,831,98.80699999999999,1,99.80629999999698,0,0,0,2,1,1.2,0.3,Time
,,996804,001,女,22,2025-06-04_10h44.04.633,Serial_Dependence_U,2023.2.3,Win32,126.58227848063959,,,,,,99.80699999999999,72,0,99.80960000000894,72,,,,103.78190000000595,104.28170000000299,103.27340000000592,103.78170000000299,100.80699999999999,103.27329999999702,104.28179999999699,104.78099999999998,104.78110000000893,107.79720000000296,1620,107.79729999999702,4,108.79520000000295,0,1,1,23,1,1.4,0.3,Time
,,996804,001,女,22,2025-06-04_10h44.04.633,Serial_Dependence_U,2023.2.3,Win32,126.58227848063959,,,,,,108.795799999997,333,0,108.79599999999996,333,,,,112.13710000000893,112.63629999999702,111.62940000000597,112.13699999999997,109.795799999997,111.62920000000295,112.63640000000592,113.13690000000597,113.13699999999997,114.82129999999702,531,114.82140000000592,1,115.82129999999702,0,2,2,25,1,0.8,0.7,Time
,,996804,001,女,22,2025-06-04_10h44.04.633,Serial_Dependence_U,2023.2.3,Win32,126.58227848063959,,,,,,115.82179999999701,158,0,115.82199999999997,158,,,,119.76379999999702,120.26329999999703,119.25550000000001,119.76370000000296,116.82190000000597,119.25540000000595,120.26329999999703,120.7631000000089,120.76320000000297,123.60740000000592,1759,123.60749999999999,4,124.60520000000295,0,3,3,8,1,1.4,0.7,Time
,,996804,001,女,22,2025-06-04_10h44.04.633,Serial_Dependence_U,2023.2.3,Win32,126.58227848063959,,,,,,124.60570000000294,208,0,124.605799999997,208,,,,127.98870000000298,128.48920000000297,127.48120000000299,127.98860000000892,125.61470000000295,127.48110000000892,128.48929999999703,128.98920000000297,128.98929999999703,131.85610000000892,1609,131.85610000000892,5,132.85810000000893,0,4,4,0,1,0.8,0.3,Time
,,996804,001,女,22,2025-06-04_10h44.04.633,Serial_Dependence_U,2023.2.3,Win32,126.58227848063959,,,,,,132.85860000000892,136,0,132.858799999997,136,,,,136.4005,136.90029999999703,135.89240000000595,136.40040000000593,133.85929999999703,135.892299999997,136.90029999999703,137.40079999999702,137.40079999999702,138.99249999999998,695,138.99249999999998,1,139.98890000000594,0,5,5,26,1,1,0.7,Time
,,996804,001,女,22,2025-06-04_10h44.04.633,Serial_Dependence_U,2023.2.3,Win32,126.58227848063959,,,,,,139.98929999999703,260,0,139.9895,260,,,,143.357799999997,143.85599999999997,142.850799999997,143.35770000000295,140.98879999999698,142.85070000000294,143.85599999999997,144.35570000000294,144.35570000000294,147.14240000000595,1668,147.1425,5,148.13829999999703,0,6,6,10,1,0.8,0.3,Time
,,996804,001,女,22,2025-06-04_10h44.04.633,Serial_Dependence_U,2023.2.3,Win32,126.58227848063959,,,,,,148.13890000000598,106,0,148.13920000000294,106,,,,152.32410000000894,152.82320000000297,151.81790000000595,152.32399999999998,149.15,151.81790000000595,152.82329999999703,153.32490000000595,153.32490000000595,155.454700000003,1477,155.454799999997,2,156.454799999997,0,7,7,24,1,1.6,0.3,Time
,,996804,001,女,22,2025-06-04_10h44.04.633,Serial_Dependence_U,2023.2.3,Win32,126.58227848063959,,,,,,156.45540000000594,264,0,156.45560000000896,264,,,,160.5971000000089,161.096200000003,160.08890000000596,160.5971000000089,157.45590000000593,160.08860000000894,161.096200000003,161.59670000000298,161.59670000000298,164.163700000003,1683,164.163700000003,4,165.16320000000294,0,8,8,9,1,1.6,0.7,Time
,,996804,001,女,22,2025-06-04_10h44.04.633,Serial_Dependence_U,2023.2.3,Win32,126.58227848063959,,,,,,165.16360000000893,162,0,165.163700000003,162,,,,168.71390000000596,169.21320000000296,168.2055,168.713799999997,166.17249999999999,168.20529999999698,169.21329999999702,169.71329999999702,169.71329999999702,171.67960000000895,1175,171.67960000000895,4,172.67979999999702,0,9,9,16,1,1,0.7,Time
,,996804,001,女,22,2025-06-04_10h44.04.633,Serial_Dependence_U,2023.2.3,Win32,126.58227848063959,,,,,,172.68040000000596,293,0,172.68060000000892,293,,,,176.85549999999998,177.35440000000594,176.35470000000296,176.85540000000597,173.6886000000089,176.3546000000089,177.35440000000594,177.85470000000296,177.85479999999703,180.40490000000594,1782,180.405,4,181.40479999999698,0,10,10,4,1,1.6,0.3,Time
,,996804,001,女,22,2025-06-04_10h44.04.633,Serial_Dependence_U,2023.2.3,Win32,126.58227848063959,,,,,,181.40540000000593,197,0,181.4055,197,,,,184.98049999999998,185.4795,184.47110000000893,184.98029999999702,182.4051000000089,184.47099999999998,185.4795,185.9796000000089,185.97970000000296,188.413299999997,1657,188.41349999999997,5,189.41290000000598,0,11,11,21,1,1,0.3,Time
,,996804,001,女,22,2025-06-04_10h44.04.633,Serial_Dependence_U,2023.2.3,Win32,126.58227848063959,,,,,,189.41349999999997,151,0,189.413799999997,151,,,,193.163299999997,193.66220000000297,192.6545,193.16320000000294,190.42090000000596,192.65440000000595,193.66220000000297,194.16310000000894,194.16310000000894,195.33029999999698,650,195.33040000000594,1,196.32949999999997,0,12,12,7,1,1.2,0.7,Time
,,996804,001,女,22,2025-06-04_10h44.04.633,Serial_Dependence_U,2023.2.3,Win32,126.58227848063959,,,,,,196.3301000000089,192,0,196.33029999999698,192,,,,199.709200000003,200.209299999997,199.20110000000895,199.70910000000893,197.33590000000592,199.20110000000895,200.209299999997,200.709299999997,200.70949999999996,203.658700000003,891,203.658700000003,4,204.65940000000595,0,13,13,20,1,0.8,0.3,Time
,,996804,001,女,22,2025-06-04_10h44.04.633,Serial_Dependence_U,2023.2.3,Win32,126.58227848063959,,,,,,204.65990000000593,313,0,204.66010000000895,313,,,,208.83490000000594,209.33390000000597,208.334200000003,208.834799999997,205.6675,208.33410000000893,209.33399999999997,209.83460000000892,209.83460000000892,211.136,785,211.136,1,212.13660000000894,0,14,14,14,1,1.6,0.3,Time
,,996804,001,女,22,2025-06-04_10h44.04.633,Serial_Dependence_U,2023.2.3,Win32,126.58227848063959,,,,,,212.137200000003,45,0,212.137299999997,45,,,,215.4705,215.9696000000089,214.96970000000297,215.47040000000592,213.13710000000893,214.9695,215.96970000000297,216.46979999999698,216.46979999999698,218.821,1208,218.82110000000895,5,219.82070000000297,0,15,15,5,1,0.8,0.7,Time
,,996804,001,女,22,2025-06-04_10h44.04.633,Serial_Dependence_U,2023.2.3,Win32,126.58227848063959,,,,,,219.82129999999702,295,0,219.8215,295,,,,223.60690000000594,224.105799999997,223.09840000000597,223.60679999999698,220.83129999999701,223.09820000000295,224.10590000000596,224.60599999999997,224.60610000000892,226.19840000000593,942,226.1985,2,227.19820000000297,0,16,16,12,1,1.2,0.3,Time
,,996804,001,女,22,2025-06-04_10h44.04.633,Serial_Dependence_U,2023.2.3,Win32,126.58227848063959,,,,,,227.19860000000895,137,0,227.19879999999702,137,,,,230.74229999999702,231.24049999999997,230.2411000000089,230.74220000000295,228.20690000000596,230.241,231.24049999999997,231.74040000000596,231.74040000000596,233.432700000003,1100,233.432799999997,4,234.43210000000894,0,17,17,6,1,1,0.7,Time
,,996804,001,女,22,2025-06-04_10h44.04.633,Serial_Dependence_U,2023.2.3,Win32,126.58227848063959,,,,,,234.43240000000597,339,0,234.43260000000893,339,,,,238.1745,238.67349999999996,237.665799999997,238.17440000000593,235.43290000000596,237.665799999997,238.67360000000892,239.17360000000892,239.17360000000892,240.74910000000895,806,240.74910000000895,1,241.748299999997,0,18,18,27,1,1.2,0.7,Time
,,996804,001,女,22,2025-06-04_10h44.04.633,Serial_Dependence_U,2023.2.3,Win32,126.58227848063959,,,,,,241.74870000000297,129,0,241.74890000000593,129,,,,245.89120000000295,246.39040000000594,245.383,245.89120000000295,242.749799999997,245.38290000000595,246.3905,246.89070000000297,246.89079999999703,248.524299999997,1185,248.524299999997,2,249.52390000000597,0,19,19,19,1,1.6,0.7,Time
,,996804,001,女,22,2025-06-04_10h44.04.633,Serial_Dependence_U,2023.2.3,Win32,126.58227848063959,,,,,,249.52460000000892,178,0,249.52470000000298,178,,,,253.27449999999996,253.77349999999998,252.76649999999998,253.27440000000595,250.53260000000896,252.76649999999998,253.77360000000894,254.27410000000893,254.27410000000893,256.040900000006,1343,256.040900000006,4,257.04099999999994,0,20,20,17,1,1.2,0.7,Time
,,996804,001,女,22,2025-06-04_10h44.04.633,Serial_Dependence_U,2023.2.3,Win32,126.58227848063959,,,,,,257.04150000000004,287,0,257.0416000000089,287,,,,261.025200000003,261.524,260.51649999999995,261.025,258.04999999999995,260.516400000006,261.524,262.02360000000897,262.0237000000029,263.717700000003,997,263.71779999999706,2,264.71679999999697,0,21,21,13,1,1.4,0.3,Time
,,996804,001,女,22,2025-06-04_10h44.04.633,Serial_Dependence_U,2023.2.3,Win32,126.58227848063959,,,,,,264.71729999999695,160,0,264.7174000000059,160,,,,268.299900000006,268.797299999997,267.7932000000029,268.29979999999705,265.72660000000894,267.793,268.797299999997,269.297100000009,269.29720000000293,271.02579999999705,1177,271.02579999999705,4,272.02199999999993,0,22,22,1,1,1,0.3,Time
,,996804,001,女,22,2025-06-04_10h44.04.633,Serial_Dependence_U,2023.2.3,Win32,126.58227848063959,,,,,,272.0226000000089,64,0,272.022799999997,64,,,,275.9966000000089,276.49679999999705,275.4891000000089,275.99629999999706,273.022799999997,275.48900000000003,276.49679999999705,276.9964000000059,276.9964000000059,278.9294000000059,1319,278.9296000000089,2,279.929900000006,0,23,23,3,1,1.4,0.3,Time
,,996804,001,女,22,2025-06-04_10h44.04.633,Serial_Dependence_U,2023.2.3,Win32,126.58227848063959,,,,,,279.93029999999703,79,0,279.93049999999994,79,,,,284.0725,284.5717000000029,283.563700000003,284.0724000000059,280.93100000000004,283.56360000000893,284.5717000000029,285.07160000000897,285.0717000000029,286.70550000000003,1149,286.70550000000003,2,287.7041000000089,0,24,24,29,1,1.6,0.7,Time
,,996804,001,女,22,2025-06-04_10h44.04.633,Serial_Dependence_U,2023.2.3,Win32,126.58227848063959,,,,,,287.70449999999994,239,0,287.70470000000296,239,,,,291.65599999999995,292.1554000000059,291.14720000000295,291.65579999999704,288.71399999999994,291.1471000000089,292.1556000000089,292.65510000000893,292.65510000000893,294.547299999997,1283,294.5475,2,295.546799999997,0,25,25,28,1,1.4,0.7,Time
,,996804,001,女,22,2025-06-04_10h44.04.633,Serial_Dependence_U,2023.2.3,Win32,126.58227848063959,,,,,,295.547299999997,316,0,295.54740000000595,316,,,,299.4971000000089,299.99699999999996,298.9891000000089,299.496700000003,296.555799999997,298.9891000000089,299.99699999999996,300.49679999999705,300.4969000000059,303.08799999999997,1726,303.08799999999997,4,304.0879000000059,0,26,26,18,1,1.4,0.7,Time
,,996804,001,女,22,2025-06-04_10h44.04.633,Serial_Dependence_U,2023.2.3,Win32,126.58227848063959,,,,,,304.088400000006,115,0,304.08879999999704,115,,,,307.672,308.17190000000596,307.16429999999696,307.671799999997,305.0969000000059,307.164200000003,308.172,308.672100000009,308.672100000009,310.40549999999996,1189,310.40549999999996,4,311.4054000000059,0,27,27,11,1,1,0.3,Time
,,996804,001,女,22,2025-06-04_10h44.04.633,Serial_Dependence_U,2023.2.3,Win32,126.58227848063959,,,,,,311.405900000006,332,0,311.40599999999995,332,,,,315.18070000000296,315.679900000006,314.67170000000294,315.180600000009,312.406400000006,314.671600000009,315.679900000006,316.180600000009,316.180600000009,317.8075,906,317.80760000000896,2,318.807,0,28,28,22,1,1.2,0.3,Time
,,996804,001,女,22,2025-06-04_10h44.04.633,Serial_Dependence_U,2023.2.3,Win32,126.58227848063959,,,,,,318.80740000000594,23,0,318.80760000000896,23,,,,322.16529999999705,322.664200000003,321.65700000000004,322.16529999999705,319.81810000000894,321.656799999997,322.664200000003,323.164900000006,323.16499999999996,325.41550000000007,1649,325.4156000000089,5,326.414200000003,0,29,29,15,1,0.8,0.7,Time
,,996804,001,女,22,2025-06-04_10h44.04.633,Serial_Dependence_U,2023.2.3,Win32,126.58227848063959,,,,,,326.414700000003,83,1,331.86229999999705,83,s,5.4254000000058795,,335.60660000000894,336.106,335.098799999997,335.60640000000603,332.86510000000897,335.09870000000296,336.106,336.606,336.60610000000895,338.37250000000006,1031,338.3726000000089,2,338.37870000000305,1,0,30,17,1,1.2,0.7,Time
,,996804,001,女,22,2025-06-04_10h44.04.633,Serial_Dependence_U,2023.2.3,Win32,126.58227848063959,,,,,,338.379,324,1,338.3804000000059,324,,,,341.75579999999707,342.252400000006,341.25179999999705,341.75579999999707,339.39010000000894,341.25179999999705,342.252400000006,342.75129999999706,342.7516000000089,345.0627999999971,1658,345.0629000000059,5,345.0696000000089,1,1,31,0,1,0.8,0.3,Time
,,996804,001,女,22,2025-06-04_10h44.04.633,Serial_Dependence_U,2023.2.3,Win32,126.58227848063959,,,,,,345.07000000000005,28,1,345.070100000009,28,,,,348.651600000009,349.151799999997,348.1435,348.65150000000006,346.08020000000295,348.14340000000595,349.151900000006,349.651600000009,349.651600000009,351.66770000000304,1310,351.667799999997,5,351.674,1,2,32,21,1,1,0.3,Time
,,996804,001,女,22,2025-06-04_10h44.04.633,Serial_Dependence_U,2023.2.3,Win32,126.58227848063959,,,,,,351.674200000003,243,1,351.674400000006,243,,,,355.65200000000004,356.15150000000006,355.144200000003,355.651799999997,352.6775,355.144,356.151600000009,356.65170000000296,356.651900000006,358.393600000009,1284,358.39370000000304,2,358.40079999999705,1,3,33,3,1,1.4,0.3,Time
,,996804,001,女,22,2025-06-04_10h44.04.633,Serial_Dependence_U,2023.2.3,Win32,126.58227848063959,,,,,,358.401200000003,47,1,358.40129999999704,47,,,,362.14599999999996,362.64410000000885,361.6451000000088,362.1459000000059,359.41049999999996,361.6447999999971,362.64410000000885,363.1447999999971,363.1447999999971,365.18710000000897,1598,365.18720000000303,5,365.1931000000088,1,4,34,27,1,1.2,0.7,Time
,,996804,001,女,22,2025-06-04_10h44.04.633,Serial_Dependence_U,2023.2.3,Win32,126.58227848063959,,,,,,365.193400000006,91,1,365.19349999999986,91,,,,369.34279999999694,369.8412999999971,368.83470000000284,369.3427000000029,366.203,368.834600000009,369.8412999999971,370.341200000003,370.3412999999971,372.50840000000585,1593,372.508600000009,3,372.51529999999707,1,5,35,19,1,1.6,0.7,Time
,,996804,001,女,22,2025-06-04_10h44.04.633,Serial_Dependence_U,2023.2.3,Win32,126.58227848063959,,,,,,372.51579999999694,286,1,372.5161000000089,286,,,,375.8924999999999,376.39200000000005,375.38510000000883,375.89240000000586,373.517600000009,375.3847999999971,376.3921000000089,376.891900000006,376.89200000000005,378.475799999997,1024,378.4759000000058,4,378.4822000000029,1,6,36,20,1,0.8,0.3,Time
,,996804,001,女,22,2025-06-04_10h44.04.633,Serial_Dependence_U,2023.2.3,Win32,126.58227848063959,,,,,,378.4825000000001,21,1,378.4826000000089,21,,,,382.0606000000089,382.55950000000007,381.5596000000089,382.06050000000005,379.49220000000287,381.55929999999694,382.5596000000089,383.06090000000586,383.0609999999999,385.1344999999999,1651,385.1344999999999,5,385.1407000000029,1,7,37,11,1,1,0.3,Time
,,996804,001,女,22,2025-06-04_10h44.04.633,Serial_Dependence_U,2023.2.3,Win32,126.58227848063959,,,,,,385.14099999999985,100,1,385.1411000000089,100,,,,388.9286000000088,389.427799999997,388.42029999999704,388.9286000000088,386.151600000009,388.420200000003,389.427799999997,389.9277000000029,389.927799999997,391.84660000000895,1443,391.84660000000895,4,391.8531000000089,1,8,38,12,1,1.2,0.3,Time
,,996804,001,女,22,2025-06-04_10h44.04.633,Serial_Dependence_U,2023.2.3,Win32,126.58227848063959,,,,,,391.85349999999994,114,1,391.85349999999994,114,,,,395.40449999999987,395.904,394.8961000000088,395.40449999999987,392.8626000000088,394.8959000000059,395.90410000000884,396.40390000000593,396.404,398.36270000000286,1415,398.3627999999969,5,398.36890000000585,1,9,39,16,1,1,0.7,Time
,,996804,001,女,22,2025-06-04_10h44.04.633,Serial_Dependence_U,2023.2.3,Win32,126.58227848063959,,,,,,398.3692999999969,306,1,398.3692999999969,306,,,,402.555900000006,403.05520000000297,402.04740000000584,402.5557999999969,399.3795,402.047299999997,403.05520000000297,403.555900000006,403.55600000000004,405.46660000000884,1259,405.4667000000029,2,405.4729000000059,1,10,40,14,1,1.6,0.3,Time
,,996804,001,女,22,2025-06-04_10h44.04.633,Serial_Dependence_U,2023.2.3,Win32,126.58227848063959,,,,,,405.4731000000088,20,1,405.47320000000286,20,,,,409.02860000000896,409.5282000000029,408.5201000000088,409.0284999999999,406.48350000000005,408.5201000000088,409.528299999997,410.02810000000886,410.0282000000029,412.1885,1691,412.1886000000088,5,412.19520000000284,1,11,41,26,1,1,0.7,Time
,,996804,001,女,22,2025-06-04_10h44.04.633,Serial_Dependence_U,2023.2.3,Win32,126.58227848063959,,,,,,412.195799999997,126,1,412.1959999999999,126,,,,416.13920000000303,416.6392999999971,415.638799999997,416.13920000000303,413.20560000000887,415.6387000000029,416.6392999999971,417.13920000000303,417.1392999999971,419.372900000006,1776,419.37300000000005,4,419.379100000009,1,12,42,18,1,1.4,0.7,Time
,,996804,001,女,22,2025-06-04_10h44.04.633,Serial_Dependence_U,2023.2.3,Win32,126.58227848063959,,,,,,419.3792999999969,192,1,419.3795,192,,,,423.1561000000088,423.65599999999995,422.6476000000089,423.1561000000088,420.3821000000089,422.64750000000004,423.65599999999995,424.15579999999704,424.1559000000059,426.29740000000584,1492,426.2974999999999,4,426.30379999999695,1,13,43,22,1,1.2,0.3,Time
,,996804,001,女,22,2025-06-04_10h44.04.633,Serial_Dependence_U,2023.2.3,Win32,126.58227848063959,,,,,,426.30410000000893,289,1,426.30429999999706,289,,,,430.456799999997,430.9572999999971,429.94879999999694,430.4567000000029,427.31470000000286,429.94879999999694,430.9572999999971,431.45710000000895,431.457200000003,433.73679999999695,1779,433.736900000006,4,433.7429000000059,1,14,44,9,1,1.6,0.7,Time
,,996804,001,女,22,2025-06-04_10h44.04.633,Serial_Dependence_U,2023.2.3,Win32,126.58227848063959,,,,,,433.74320000000284,290,1,433.7432999999969,290,,,,437.287299999997,437.78649999999993,436.78670000000284,437.2871000000089,434.75350000000003,436.786600000009,437.78670000000284,438.28620000000296,438.286299999997,440.554200000003,1678,440.55429999999706,5,440.560400000006,1,15,45,6,1,1,0.7,Time
,,996804,001,女,22,2025-06-04_10h44.04.633,Serial_Dependence_U,2023.2.3,Win32,126.58227848063959,,,,,,440.560799999997,92,1,440.56090000000586,92,,,,443.90529999999694,444.404700000003,443.39690000000587,443.9052000000029,441.5637000000029,443.39679999999703,444.404700000003,444.904,444.904,446.76670000000286,1292,446.7667999999969,5,446.772799999997,1,16,46,25,1,0.8,0.7,Time
,,996804,001,女,22,2025-06-04_10h44.04.633,Serial_Dependence_U,2023.2.3,Win32,126.58227848063959,,,,,,446.77320000000304,82,1,446.7735,82,,,,450.951299999997,451.4542999999969,450.443,450.9512000000029,447.775900000006,450.4427999999971,451.454400000006,451.95379999999705,451.95379999999705,454.171299999997,1449,454.171299999997,2,454.1777000000029,1,17,47,4,1,1.6,0.3,Time
,,996804,001,女,22,2025-06-04_10h44.04.633,Serial_Dependence_U,2023.2.3,Win32,126.58227848063959,,,,,,454.1779000000058,261,1,454.1779999999999,261,,,,458.11340000000587,458.61249999999995,457.61229999999705,458.113299999997,455.18020000000297,457.612200000003,458.61249999999995,459.112200000003,459.112200000003,461.122200000003,1427,461.122200000003,3,461.12840000000597,1,18,48,8,1,1.4,0.7,Time
,,996804,001,女,22,2025-06-04_10h44.04.633,Serial_Dependence_U,2023.2.3,Win32,126.58227848063959,,,,,,461.1286000000089,86,1,461.12870000000294,86,,,,465.26579999999694,465.7656000000088,464.76479999999697,465.2657000000029,462.1314000000059,464.76479999999697,465.7656000000088,466.2647000000029,466.2647000000029,468.4902000000029,1765,468.490299999997,4,468.496900000006,1,19,49,29,1,1.6,0.7,Time
,,996804,001,女,22,2025-06-04_10h44.04.633,Serial_Dependence_U,2023.2.3,Win32,126.58227848063959,,,,,,468.4976000000088,167,1,468.4977999999969,167,,,,471.840799999997,472.3407000000029,471.340100000009,471.84060000000886,469.50749999999994,471.3399999999999,472.3407000000029,472.8405,472.84060000000886,474.75960000000896,1271,474.75960000000896,5,474.7656000000088,1,20,50,5,1,0.8,0.7,Time
,,996804,001,女,22,2025-06-04_10h44.04.633,Serial_Dependence_U,2023.2.3,Win32,126.58227848063959,,,,,,474.76599999999985,196,1,474.7661000000089,196,,,,478.74540000000593,479.2449000000058,478.24440000000595,478.7452999999971,475.776900000006,478.24440000000595,479.2449000000058,479.7442999999969,479.74440000000595,481.71249999999986,1437,481.71249999999986,3,481.71849999999995,1,21,51,23,1,1.4,0.3,Time
,,996804,001,女,22,2025-06-04_10h44.04.633,Serial_Dependence_U,2023.2.3,Win32,126.58227848063959,,,,,,481.7187999999969,32,1,481.718900000006,32,,,,485.6637999999971,486.163,485.1551000000088,485.6637999999971,482.72160000000895,485.155,486.16310000000885,486.66429999999696,486.66429999999696,488.62420000000293,1499,488.624299999997,4,488.63079999999695,1,22,52,28,1,1.4,0.7,Time
,,996804,001,女,22,2025-06-04_10h44.04.633,Serial_Dependence_U,2023.2.3,Win32,126.58227848063959,,,,,,488.6311000000089,22,1,488.631200000003,22,,,,492.2091000000089,492.70870000000286,491.70829999999705,492.20900000000006,489.64149999999995,491.708200000003,492.7087999999969,493.20870000000286,493.20870000000286,494.8752000000029,1377,494.87529999999697,5,494.881200000003,1,23,53,1,1,1,0.3,Time
,,996804,001,女,22,2025-06-04_10h44.04.633,Serial_Dependence_U,2023.2.3,Win32,126.58227848063959,,,,,,494.88149999999996,245,1,494.8816000000088,245,,,,498.2181000000089,498.717200000003,497.717200000003,498.21799999999985,495.884299999997,497.717200000003,498.717200000003,499.2177000000029,499.2177000000029,500.75179999999705,925,500.7519000000059,4,500.757900000006,1,24,54,15,1,0.8,0.7,Time
,,996804,001,女,22,2025-06-04_10h44.04.633,Serial_Dependence_U,2023.2.3,Win32,126.58227848063959,,,,,,500.75820000000294,350,1,500.75820000000294,350,,,,504.545200000003,505.0447000000029,504.03690000000597,504.5451000000089,501.769,504.03670000000284,505.0447000000029,505.54429999999707,505.5444000000059,507.4356000000089,1241,507.43570000000295,3,507.44170000000304,1,25,55,2,1,1.2,0.3,Time
,,996804,001,女,22,2025-06-04_10h44.04.633,Serial_Dependence_U,2023.2.3,Win32,126.58227848063959,,,,,,507.442,165,1,507.44210000000885,165,,,,511.6195,512.1196000000089,511.1117000000029,511.61940000000595,508.4449000000059,511.1116000000088,512.1196000000089,512.619400000006,512.619400000006,514.6796000000088,1423,514.6797000000029,2,514.6862000000028,1,26,56,24,1,1.6,0.3,Time
,,996804,001,女,22,2025-06-04_10h44.04.633,Serial_Dependence_U,2023.2.3,Win32,126.58227848063959,,,,,,514.6867000000029,145,1,514.686799999997,145,,,,518.4307000000028,518.9307000000028,517.9231000000088,518.430600000009,515.688799999997,517.923,518.9307000000028,519.4307999999969,519.430900000006,521.3402999999969,1580,521.3402999999969,5,521.346600000009,1,27,57,7,1,1.2,0.7,Time
,,996804,001,女,22,2025-06-04_10h44.04.633,Serial_Dependence_U,2023.2.3,Win32,126.58227848063959,,,,,,521.3467999999971,174,1,521.3469000000059,174,,,,524.732799999997,525.232,524.2242000000028,524.732700000003,522.356700000003,524.224100000009,525.2321000000088,525.731299999997,525.731400000006,527.8067999999969,1402,527.806900000006,5,527.813200000003,1,28,58,10,1,0.8,0.3,Time
,,996804,001,女,22,2025-06-04_10h44.04.633,Serial_Dependence_U,2023.2.3,Win32,126.58227848063959,,,,,,527.8136000000088,306,1,527.8136000000088,306,,,,531.792799999997,532.2912999999969,531.2922999999969,531.7927000000029,528.8241000000089,531.292200000003,532.2912999999969,532.7915,532.791700000003,535.0502999999969,1650,535.050400000006,4,535.056900000006,1,29,59,13,1,1.4,0.3,Time
,,996804,001,女,22,2025-06-04_10h44.04.633,Serial_Dependence_U,2023.2.3,Win32,126.58227848063959,,,,,,535.0572000000029,274,2,769.7906000000089,274,s,234.71240000000603,,773.975100000009,774.4747000000029,773.4669999999999,773.9749999999999,770.800400000006,773.4669000000058,774.474799999997,774.974400000006,774.9745,777.3502999999969,1533,777.3502999999969,3,777.356299999997,2,0,60,4,1,1.6,0.3,Time
,,996804,001,女,22,2025-06-04_10h44.04.633,Serial_Dependence_U,2023.2.3,Win32,126.58227848063959,,,,,,777.3566000000089,179,2,777.358799999997,179,,,,780.699600000009,781.1965,780.1917999999969,780.699600000009,778.3595,780.1917999999969,781.1966000000089,781.6967000000029,781.6967000000029,783.673700000003,1145,783.673700000003,5,783.6807999999969,2,1,61,5,1,0.8,0.7,Time
,,996804,001,女,22,2025-06-04_10h44.04.633,Serial_Dependence_U,2023.2.3,Win32,126.58227848063959,,,,,,783.681,341,2,783.681200000003,341,,,,787.216100000009,787.7131000000088,786.7152999999969,787.2159999999999,784.6822000000029,786.715100000009,787.7131000000088,788.2131000000088,788.2132000000029,790.2792000000029,1491,790.2792000000029,5,790.2857999999969,2,2,62,26,1,1,0.7,Time
,,996804,001,女,22,2025-06-04_10h44.04.633,Serial_Dependence_U,2023.2.3,Win32,126.58227848063959,,,,,,790.286200000003,153,2,790.286299999997,153,,,,794.2322000000029,794.7317999999971,793.7232999999969,794.2321000000088,791.2881000000089,793.7231000000088,794.7319000000059,795.231299999997,795.231299999997,796.981299999997,1365,796.981400000006,3,796.9877000000029,2,3,63,8,1,1.4,0.7,Time
,,996804,001,女,22,2025-06-04_10h44.04.633,Serial_Dependence_U,2023.2.3,Win32,126.58227848063959,,,,,,796.988,153,2,796.9881000000089,153,,,,800.3352000000029,800.8344999999999,799.832200000003,800.3351000000089,797.9987999999969,799.832100000009,800.8344999999999,801.335,801.3351000000089,803.4524000000058,1550,803.4524000000058,5,803.4585,2,4,64,25,1,0.8,0.7,Time
,,996804,001,女,22,2025-06-04_10h44.04.633,Serial_Dependence_U,2023.2.3,Win32,126.58227848063959,,,,,,803.458900000006,304,2,803.4590000000001,304,,,,807.6447999999971,808.1394000000059,807.1361000000088,807.644700000003,804.4704999999999,807.1361000000088,808.1395,808.6395,808.6395,810.691600000009,1627,810.691600000009,3,810.6984000000059,2,5,65,24,1,1.6,0.3,Time
,,996804,001,女,22,2025-06-04_10h44.04.633,Serial_Dependence_U,2023.2.3,Win32,126.58227848063959,,,,,,810.6987999999969,109,2,810.698900000006,109,,,,814.4456000000089,814.944700000003,813.937100000009,814.445400000006,811.7001000000089,813.9369999999999,814.944700000003,815.4452000000028,815.4452000000028,817.5446000000088,1435,817.5447000000029,4,817.5509999999999,2,6,66,27,1,1.2,0.7,Time
,,996804,001,女,22,2025-06-04_10h44.04.633,Serial_Dependence_U,2023.2.3,Win32,126.58227848063959,,,,,,817.5512999999969,119,2,817.551400000006,119,,,,821.503799999997,822.003400000006,820.9957000000029,821.5037000000029,818.5625,820.9956000000088,822.0035,822.502700000003,822.5029000000059,824.5952000000029,1616,824.595299999997,4,824.6016000000091,2,7,67,18,1,1.4,0.7,Time
,,996804,001,女,22,2025-06-04_10h44.04.633,Serial_Dependence_U,2023.2.3,Win32,126.58227848063959,,,,,,824.601900000006,152,2,824.6020000000001,152,,,,828.379100000009,828.8786000000089,827.871200000003,828.3789999999999,825.604299999997,827.8710000000001,828.8786000000089,829.3795,829.3795,831.4470000000001,1475,831.447100000009,4,831.4532000000031,2,8,68,12,1,1.2,0.3,Time
,,996804,001,女,22,2025-06-04_10h44.04.633,Serial_Dependence_U,2023.2.3,Win32,126.58227848063959,,,,,,831.453400000006,141,2,831.4535000000001,141,,,,834.805600000009,835.305200000003,834.2974000000061,834.8054999999999,832.463700000003,834.297299999997,835.305200000003,835.8051000000089,835.805200000003,838.0472000000029,1666,838.0472000000029,5,838.0541000000089,2,9,69,15,1,0.8,0.7,Time
,,996804,001,女,22,2025-06-04_10h44.04.633,Serial_Dependence_U,2023.2.3,Win32,126.58227848063959,,,,,,838.0544000000059,310,2,838.0545,310,,,,841.431299999997,841.931299999997,840.923700000003,841.431200000003,839.0571000000089,840.923600000009,841.9314000000061,842.4314999999999,842.4314999999999,843.9382999999971,1049,843.9384000000059,5,843.9449999999999,2,10,70,10,1,0.8,0.3,Time
,,996804,001,女,22,2025-06-04_10h44.04.633,Serial_Dependence_U,2023.2.3,Win32,126.58227848063959,,,,,,843.9452999999971,108,2,843.9452999999971,108,,,,847.320700000003,847.820799999997,846.8126000000091,847.3206000000089,844.946400000006,846.8125,847.820799999997,848.320799999997,848.3209000000061,850.131200000003,1319,850.131299999997,5,850.1379999999999,2,11,71,20,1,0.8,0.3,Time
,,996804,001,女,22,2025-06-04_10h44.04.633,Serial_Dependence_U,2023.2.3,Win32,126.58227848063959,,,,,,850.138400000006,276,2,850.1385,276,,,,854.2892000000029,854.788700000003,853.7812999999971,854.2892000000029,851.1479000000061,853.7812999999971,854.7887999999971,855.2887999999971,855.2887999999971,857.871900000006,1859,857.871900000006,4,857.8782999999971,2,12,72,29,1,1.6,0.7,Time
,,996804,001,女,22,2025-06-04_10h44.04.633,Serial_Dependence_U,2023.2.3,Win32,126.58227848063959,,,,,,857.878799999997,307,2,857.8789000000061,307,,,,861.4221000000089,861.921900000006,860.915100000009,861.422,858.880799999997,860.9149000000059,861.921900000006,862.4222000000029,862.4222000000029,876.557700000003,1009,876.557700000003,3,876.564200000003,2,13,73,6,1,1,0.7,Time
,,996804,001,女,22,2025-06-04_10h44.04.633,Serial_Dependence_U,2023.2.3,Win32,126.58227848063959,,,,,,876.5645,327,2,876.564600000009,327,,,,880.5165,881.015799999997,880.008200000003,880.5164000000059,877.574600000009,880.0081000000089,881.015799999997,881.5164000000059,881.5165,883.583299999997,1567,883.5834000000059,4,883.5899000000061,2,14,74,28,1,1.4,0.7,Time
,,996804,001,女,22,2025-06-04_10h44.04.633,Serial_Dependence_U,2023.2.3,Win32,126.58227848063959,,,,,,883.590100000009,323,2,883.590200000003,323,,,,886.966799999997,887.466100000009,886.4581000000089,886.966799999997,884.5914000000059,886.4580000000001,887.466100000009,887.9657000000029,887.9657000000029,889.4662999999971,1017,889.4664000000059,4,889.4725000000001,2,15,75,0,1,0.8,0.3,Time
,,996804,001,女,22,2025-06-04_10h44.04.633,Serial_Dependence_U,2023.2.3,Win32,126.58227848063959,,,,,,889.472700000003,130,2,889.4729000000059,130,,,,893.0499000000059,893.5496000000089,892.541700000003,893.0499000000059,890.4746000000089,892.541700000003,893.549700000003,894.0495000000001,894.0495000000001,895.515799999997,1033,895.515799999997,3,895.5222000000031,2,16,76,1,1,1,0.3,Time
,,996804,001,女,22,2025-06-04_10h44.04.633,Serial_Dependence_U,2023.2.3,Win32,126.58227848063959,,,,,,895.522400000006,320,2,895.5226000000089,320,,,,899.0999999999999,899.5992000000031,898.591200000003,899.099799999997,896.524900000006,898.591100000009,899.5992000000031,900.0992999999971,900.099400000006,901.9659000000061,1367,901.9660000000001,5,901.972700000003,2,17,77,21,1,1,0.3,Time
,,996804,001,女,22,2025-06-04_10h44.04.633,Serial_Dependence_U,2023.2.3,Win32,126.58227848063959,,,,,,901.973100000009,342,2,901.973100000009,342,,,,906.1501000000089,906.649100000009,905.6414000000059,906.1500000000001,902.974799999997,905.641200000003,906.649100000009,907.1490000000001,907.1490000000001,909.082100000009,1424,909.082200000003,2,909.0889000000059,2,18,78,14,1,1.6,0.3,Time
,,996804,001,女,22,2025-06-04_10h44.04.633,Serial_Dependence_U,2023.2.3,Win32,126.58227848063959,,,,,,909.089100000009,181,2,909.0892999999971,181,,,,913.2409000000059,913.74,912.7332999999971,913.240700000003,910.0995,912.7332000000031,913.7401000000089,914.240600000009,914.240700000003,916.1907999999971,1609,916.190900000006,3,916.197799999997,2,19,79,19,1,1.6,0.7,Time
,,996804,001,女,22,2025-06-04_10h44.04.633,Serial_Dependence_U,2023.2.3,Win32,126.58227848063959,,,,,,916.1981000000089,247,2,916.198200000003,247,,,,919.782799999997,920.282100000009,919.2746000000091,919.7827000000029,917.207200000003,919.2746000000091,920.282100000009,920.7812999999971,920.7812999999971,922.3827999999971,1116,922.382900000006,4,922.389100000009,2,20,80,11,1,1,0.3,Time
,,996804,001,女,22,2025-06-04_10h44.04.633,Serial_Dependence_U,2023.2.3,Win32,126.58227848063959,,,,,,922.3892999999971,290,2,922.3894000000059,290,,,,925.940900000006,926.440200000003,925.432400000006,925.9407000000031,923.399200000003,925.4322000000029,926.440299999997,926.940299999997,926.9404000000059,929.0737000000031,1475,929.0737000000031,5,929.0799999999999,2,21,81,16,1,1,0.7,Time
,,996804,001,女,22,2025-06-04_10h44.04.633,Serial_Dependence_U,2023.2.3,Win32,126.58227848063959,,,,,,929.0802999999971,301,2,929.0802999999971,301,,,,933.224100000009,933.7236000000089,932.7156000000089,933.2239999999999,930.0825,932.7155,933.7236000000089,934.2236000000089,934.223700000003,936.0651000000089,1451,936.065200000003,2,936.071900000006,2,22,82,9,1,1.6,0.7,Time
,,996804,001,女,22,2025-06-04_10h44.04.633,Serial_Dependence_U,2023.2.3,Win32,126.58227848063959,,,,,,936.0722999999971,287,2,936.0724000000059,287,,,,939.8157999999971,940.3151000000089,939.3079000000059,939.8157000000031,937.074600000009,939.3079000000059,940.3151000000089,940.8147999999971,940.814900000006,943.0896000000089,1898,943.0896000000089,5,943.095700000003,2,23,83,7,1,1.2,0.7,Time
,,996804,001,女,22,2025-06-04_10h44.04.633,Serial_Dependence_U,2023.2.3,Win32,126.58227848063959,,,,,,943.0961000000088,97,2,943.0962000000029,97,,,,946.866799999997,947.366700000003,946.3615,946.866799999997,944.0944999999999,946.3615,947.366700000003,947.867799999997,947.867799999997,949.258900000006,857,949.258900000006,2,949.265200000003,2,24,84,2,1,1.2,0.3,Time
,,996804,001,女,22,2025-06-04_10h44.04.633,Serial_Dependence_U,2023.2.3,Win32,126.58227848063959,,,,,,949.2655,350,2,949.265600000009,350,,,,953.2412000000029,953.740700000003,952.739600000009,953.241100000009,950.276200000003,952.7394999999999,953.740700000003,954.2402000000029,954.240299999997,955.990700000003,1173,955.9907999999971,2,955.997299999997,2,25,85,23,1,1.4,0.3,Time
,,996804,001,女,22,2025-06-04_10h44.04.633,Serial_Dependence_U,2023.2.3,Win32,126.58227848063959,,,,,,955.9975,262,2,955.9977000000031,262,,,,959.9701000000089,960.469600000009,959.461299999997,959.97,956.996900000006,959.461299999997,960.4697000000031,960.969600000009,960.969600000009,962.486100000009,1024,962.486100000009,2,962.4925000000001,2,26,86,13,1,1.4,0.3,Time
,,996804,001,女,22,2025-06-04_10h44.04.633,Serial_Dependence_U,2023.2.3,Win32,126.58227848063959,,,,,,962.4929000000059,172,2,962.4929999999999,172,,,,966.236600000009,966.7362999999971,965.729,966.2365,963.4950000000001,965.728900000006,966.7364000000059,967.236100000009,967.236200000003,969.137100000009,1360,969.1372000000031,4,969.1437999999971,2,27,87,17,1,1.2,0.7,Time
,,996804,001,女,22,2025-06-04_10h44.04.633,Serial_Dependence_U,2023.2.3,Win32,126.58227848063959,,,,,,969.1442000000029,275,2,969.1442000000029,275,,,,972.9172999999971,973.415799999997,972.416100000009,972.917200000003,970.1547999999971,972.4159000000059,973.415799999997,973.9155000000001,973.9156000000089,975.707200000003,1343,975.707200000003,4,975.7135000000001,2,28,88,22,1,1.2,0.3,Time
,,996804,001,女,22,2025-06-04_10h44.04.633,Serial_Dependence_U,2023.2.3,Win32,126.58227848063959,,,,,,975.713799999997,150,2,975.7139000000059,150,,,,979.6922000000029,980.191,979.183400000006,979.6922000000029,976.7164000000059,979.1832000000029,980.191,980.6912000000029,980.691299999997,982.6411000000089,1101,982.6411000000089,2,982.647100000009,2,29,89,3,1,1.4,0.3,Time
,,996804,001,女,22,2025-06-04_10h44.04.633,Serial_Dependence_U,2023.2.3,Win32,126.58227848063959,,,,,,982.6475,356,3,984.7059999999999,356,s,2.044100000008939,,988.4480000000001,988.9476000000091,987.9401000000089,988.4480000000001,985.7065,987.94,988.9476000000091,989.4475,989.4476000000091,990.8140000000001,842,990.8140000000001,2,990.8202000000031,3,0,90,7,1,1.2,0.7,Time
,,996804,001,女,22,2025-06-04_10h44.04.633,Serial_Dependence_U,2023.2.3,Win32,126.58227848063959,,,,,,990.8206000000089,161,3,990.8222999999971,161,,,,994.9657000000029,995.4652999999971,994.4577000000029,994.9655,991.823200000003,994.457600000009,995.4652999999971,995.965400000006,995.9656000000089,998.318100000009,1867,998.3182000000029,4,998.3245,3,1,91,9,1,1.6,0.7,Time
,,996804,001,女,22,2025-06-04_10h44.04.633,Serial_Dependence_U,2023.2.3,Win32,126.58227848063959,,,,,,998.324900000006,252,3,998.324900000006,252,,,,1002.512400000006,1003.0116000000089,1002.0039999999999,1002.512400000006,999.3352000000029,1002.0039000000061,1003.0116000000089,1003.5119000000059,1003.5119000000059,1005.520299999997,1209,1005.520400000006,2,1005.5264999999999,3,2,92,4,1,1.6,0.3,Time
,,996804,001,女,22,2025-06-04_10h44.04.633,Serial_Dependence_U,2023.2.3,Win32,126.58227848063959,,,,,,1005.5267000000031,67,3,1005.5267999999971,67,,,,1009.4717999999971,1009.9709000000059,1008.9636000000089,1009.4717999999971,1006.530100000009,1008.9635000000001,1009.9709000000059,1010.471400000006,1010.471400000006,1012.4797999999971,1286,1012.479900000006,2,1012.4864000000059,3,3,93,8,1,1.4,0.7,Time
,,996804,001,女,22,2025-06-04_10h44.04.633,Serial_Dependence_U,2023.2.3,Win32,126.58227848063959,,,,,,1012.4867000000029,206,3,1012.486799999997,206,,,,1016.439299999997,1016.937900000006,1015.931299999997,1016.439200000003,1013.4971000000089,1015.931200000003,1016.937900000006,1017.438200000003,1017.4382999999971,1019.331200000003,1524,1019.331200000003,4,1019.337299999997,3,4,94,28,1,1.4,0.7,Time
,,996804,001,女,22,2025-06-04_10h44.04.633,Serial_Dependence_U,2023.2.3,Win32,126.58227848063959,,,,,,1019.337700000003,4,3,1019.3377999999971,4,,,,1022.8820000000001,1023.3817999999969,1022.374700000003,1022.881900000006,1020.3409000000061,1022.3745000000001,1023.381900000006,1023.883200000003,1023.883299999997,1026.105700000003,1686,1026.105799999997,5,1026.112200000003,3,5,95,16,1,1,0.7,Time
,,996804,001,女,22,2025-06-04_10h44.04.633,Serial_Dependence_U,2023.2.3,Win32,126.58227848063959,,,,,,1026.1125,1,3,1026.1125,1,,,,1029.690200000003,1030.189400000006,1029.181700000003,1029.690200000003,1027.115200000003,1029.181600000009,1030.1895,1030.684100000009,1030.684200000003,1032.8772999999971,1594,1032.877400000006,5,1032.883700000003,3,6,96,21,1,1,0.3,Time
,,996804,001,女,22,2025-06-04_10h44.04.633,Serial_Dependence_U,2023.2.3,Win32,126.58227848063959,,,,,,1032.883900000006,184,3,1032.8841000000089,184,,,,1036.427900000006,1036.927400000006,1035.920600000009,1036.427799999997,1033.886299999997,1035.9205,1036.927400000006,1037.428100000009,1037.428299999997,1039.581400000006,1541,1039.5815,5,1039.588200000003,3,7,97,6,1,1,0.7,Time
,,996804,001,女,22,2025-06-04_10h44.04.633,Serial_Dependence_U,2023.2.3,Win32,126.58227848063959,,,,,,1039.5885,178,3,1039.588600000009,178,,,,1043.322799999997,1043.821900000006,1042.822100000009,1043.322700000003,1040.589799999997,1042.8220000000001,1043.821900000006,1044.322600000009,1044.322700000003,1045.3824000000059,524,1045.3824000000059,1,1045.3885,3,8,98,27,1,1.2,0.7,Time
,,996804,001,女,22,2025-06-04_10h44.04.633,Serial_Dependence_U,2023.2.3,Win32,126.58227848063959,,,,,,1045.388799999997,45,3,1045.388900000006,45,,,,1048.761200000003,1049.2605,1048.260600000009,1048.761100000009,1046.391900000006,1048.2605,1049.2605,1049.759799999997,1049.759799999997,1051.319,1118,1051.319100000009,5,1051.325100000009,3,9,99,10,1,0.8,0.3,Time
,,996804,001,女,22,2025-06-04_10h44.04.633,Serial_Dependence_U,2023.2.3,Win32,126.58227848063959,,,,,,1051.325400000006,0,3,1051.3255,0,,,,1054.704600000009,1055.2035,1054.203900000006,1054.704600000009,1052.336,1054.203900000006,1055.203600000009,1055.704100000009,1055.704200000003,1057.2954000000059,976,1057.2954000000059,4,1057.301799999997,3,10,100,0,1,0.8,0.3,Time
,,996804,001,女,22,2025-06-04_10h44.04.633,Serial_Dependence_U,2023.2.3,Win32,126.58227848063959,,,,,,1057.302200000003,66,3,1057.302299999997,66,,,,1060.6382999999971,1061.137900000006,1060.1375,1060.638200000003,1058.304700000003,1060.1375,1061.137900000006,1061.638,1061.638,1063.412400000006,1143,1063.412400000006,5,1063.418299999997,3,11,101,25,1,0.8,0.7,Time
,,996804,001,女,22,2025-06-04_10h44.04.633,Serial_Dependence_U,2023.2.3,Win32,126.58227848063959,,,,,,1063.418600000009,287,3,1063.418700000003,287,,,,1067.564299999997,1068.063900000006,1067.0555,1067.564100000009,1064.4207999999971,1067.0554000000059,1068.063900000006,1068.5635,1068.563600000009,1070.738299999997,1682,1070.738299999997,4,1070.7450000000001,3,12,102,19,1,1.6,0.7,Time
,,996804,001,女,22,2025-06-04_10h44.04.633,Serial_Dependence_U,2023.2.3,Win32,126.58227848063959,,,,,,1070.745299999997,191,3,1070.745400000006,191,,,,1074.091200000003,1074.590400000006,1073.589900000006,1074.091100000009,1071.756200000003,1073.589799999997,1074.5905,1075.09,1075.09,1076.9159000000059,1283,1076.916100000009,5,1076.923,3,13,103,15,1,0.8,0.7,Time
,,996804,001,女,22,2025-06-04_10h44.04.633,Serial_Dependence_U,2023.2.3,Win32,126.58227848063959,,,,,,1076.923299999997,240,3,1076.923400000006,240,,,,1080.908200000003,1081.407700000003,1080.399799999997,1080.908100000009,1077.9325000000001,1080.399700000003,1081.407700000003,1081.9075,1081.9075,1083.741200000003,1340,1083.741200000003,3,1083.747600000009,3,14,104,13,1,1.4,0.3,Time
,,996804,001,女,22,2025-06-04_10h44.04.633,Serial_Dependence_U,2023.2.3,Win32,126.58227848063959,,,,,,1083.747900000006,31,3,1083.748,31,,,,1087.329,1087.829,1086.821100000009,1087.328799999997,1084.757700000003,1086.821,1087.829,1088.328100000009,1088.328100000009,1090.237,1176,1090.237,4,1090.243200000003,3,15,105,1,1,1,0.3,Time
,,996804,001,女,22,2025-06-04_10h44.04.633,Serial_Dependence_U,2023.2.3,Win32,126.58227848063959,,,,,,1090.2436000000089,348,3,1090.243700000003,348,,,,1094.014299999997,1094.513900000006,1093.513,1094.014200000003,1091.246400000006,1093.512900000006,1094.513900000006,1095.0140000000001,1095.014100000009,1097.123100000009,1324,1097.123200000003,4,1097.129200000003,3,16,106,22,1,1.2,0.3,Time
,,996804,001,女,22,2025-06-04_10h44.04.633,Serial_Dependence_U,2023.2.3,Win32,126.58227848063959,,,,,,1097.1295,9,3,1097.1295,9,,,,1100.664900000006,1101.1635,1100.164400000006,1100.664799999997,1098.131100000009,1100.164400000006,1101.1635,1101.664,1101.664,1103.924600000009,1750,1103.924700000003,5,1103.930900000006,3,17,107,26,1,1,0.7,Time
,,996804,001,女,22,2025-06-04_10h44.04.633,Serial_Dependence_U,2023.2.3,Win32,126.58227848063959,,,,,,1103.931299999997,85,3,1103.931400000006,85,,,,1107.307799999997,1107.8075000000001,1106.799400000006,1107.307700000003,1104.9335,1106.799299999997,1107.8075000000001,1108.307400000006,1108.307400000006,1110.582299999997,1424,1110.582400000006,5,1110.589100000009,3,18,108,20,1,0.8,0.3,Time
,,996804,001,女,22,2025-06-04_10h44.04.633,Serial_Dependence_U,2023.2.3,Win32,126.58227848063959,,,,,,1110.5895,291,3,1110.5896000000089,291,,,,1113.933400000006,1114.433400000006,1113.425700000003,1113.933299999997,1111.591799999997,1113.425700000003,1114.4335,1114.933400000006,1114.9335,1116.968,1448,1116.968,5,1116.975200000003,3,19,109,5,1,0.8,0.7,Time
,,996804,001,女,22,2025-06-04_10h44.04.633,Serial_Dependence_U,2023.2.3,Win32,126.58227848063959,,,,,,1116.9755,247,3,1116.9756000000089,247,,,,1120.951200000003,1121.451200000003,1120.443100000009,1120.951200000003,1117.976700000003,1120.443,1121.451200000003,1121.951200000003,1121.951299999997,1124.18,1612,1124.18,4,1124.1865,3,20,110,23,1,1.4,0.3,Time
,,996804,001,女,22,2025-06-04_10h44.04.633,Serial_Dependence_U,2023.2.3,Win32,126.58227848063959,,,,,,1124.186900000006,40,3,1124.1870000000001,40,,,,1127.929900000006,1128.429799999997,1127.422400000006,1127.929799999997,1125.188600000009,1127.422299999997,1128.429799999997,1128.929900000006,1128.930100000009,1131.365700000003,1794,1131.365799999997,5,1131.371600000009,3,21,111,17,1,1.2,0.7,Time
,,996804,001,女,22,2025-06-04_10h44.04.633,Serial_Dependence_U,2023.2.3,Win32,126.58227848063959,,,,,,1131.371900000006,139,3,1131.372,139,,,,1134.935799999997,1135.435400000006,1134.433299999997,1134.935700000003,1132.3665,1134.433100000009,1135.435400000006,1135.935400000006,1135.9355,1138.793299999997,2001,1138.793299999997,5,1138.7995,3,22,112,11,1,1,0.3,Time
,,996804,001,女,22,2025-06-04_10h44.04.633,Serial_Dependence_U,2023.2.3,Win32,126.58227848063959,,,,,,1138.799799999997,26,3,1138.799799999997,26,,,,1142.779600000009,1143.2785000000001,1142.2781000000089,1142.779400000006,1139.8102999999971,1142.2781000000089,1143.2785000000001,1143.779100000009,1143.779200000003,1145.837299999997,1426,1145.837299999997,3,1145.8434000000059,3,23,113,3,1,1.4,0.3,Time
,,996804,001,女,22,2025-06-04_10h44.04.633,Serial_Dependence_U,2023.2.3,Win32,126.58227848063959,,,,,,1145.843600000009,295,3,1145.8437999999971,295,,,,1149.618100000009,1150.117400000006,1149.1145,1149.618,1146.8461000000088,1149.114299999997,1150.1175,1150.617600000009,1150.617600000009,1152.709200000003,1198,1152.709299999997,3,1152.715799999997,3,24,114,12,1,1.2,0.3,Time
,,996804,001,女,22,2025-06-04_10h44.04.633,Serial_Dependence_U,2023.2.3,Win32,126.58227848063959,,,,,,1152.716100000009,77,3,1152.716200000003,77,,,,1156.894700000003,1157.3927999999971,1156.393600000009,1156.894600000009,1153.726200000003,1156.3935,1157.3927999999971,1157.893600000009,1157.893700000003,1159.892600000009,1486,1159.892700000003,2,1159.898799999997,3,25,115,24,1,1.6,0.3,Time
,,996804,001,女,22,2025-06-04_10h44.04.633,Serial_Dependence_U,2023.2.3,Win32,126.58227848063959,,,,,,1159.899100000009,254,3,1159.899100000009,254,,,,1163.849900000006,1164.347100000009,1163.341200000003,1163.849799999997,1160.908400000006,1163.341100000009,1164.3472000000029,1164.850400000006,1164.850400000006,1166.988700000003,1670,1166.9887999999971,4,1166.995400000006,3,26,116,18,1,1.4,0.7,Time
,,996804,001,女,22,2025-06-04_10h44.04.633,Serial_Dependence_U,2023.2.3,Win32,126.58227848063959,,,,,,1166.995799999997,313,3,1166.995799999997,313,,,,1171.183299999997,1171.6825000000001,1170.6742000000029,1171.183299999997,1168.005900000006,1170.674100000009,1171.6825000000001,1172.182600000009,1172.182700000003,1174.797400000006,1966,1174.7975000000001,4,1174.803799999997,3,27,117,14,1,1.6,0.3,Time
,,996804,001,女,22,2025-06-04_10h44.04.633,Serial_Dependence_U,2023.2.3,Win32,126.58227848063959,,,,,,1174.804100000009,54,3,1174.804200000003,54,,,,1178.580700000003,1179.081100000009,1178.072400000006,1178.5806000000089,1175.806200000003,1178.072200000003,1179.081100000009,1179.581,1179.581,1181.880600000009,1556,1181.880600000009,4,1181.887200000003,3,28,118,2,1,1.2,0.3,Time
,,996804,001,女,22,2025-06-04_10h44.04.633,Serial_Dependence_U,2023.2.3,Win32,126.58227848063959,,,,,,1181.8875,40,3,1181.887700000003,40,,,,1186.039299999997,1186.536900000006,1185.530400000006,1186.039200000003,1182.895299999997,1185.530299999997,1186.536900000006,1187.0365,1187.036600000009,1189.410900000006,1945,1189.411,4,1189.417700000003,3,29,119,29,1,1.6,0.7,Time
,,996804,001,女,22,2025-06-04_10h44.04.633,Serial_Dependence_U,2023.2.3,Win32,126.58227848063959,,,,,,1189.4180000000001,135,4,1737.561799999997,135,s,548.122599999994,,1741.531700000003,1742.031200000003,1741.031,1741.531600000009,1738.566,1741.0309000000059,1742.031200000003,1742.531700000003,1742.531700000003,1744.706,1366,1744.706100000009,3,1744.712,4,0,120,3,1,1.4,0.3,Time
,,996804,001,女,22,2025-06-04_10h44.04.633,Serial_Dependence_U,2023.2.3,Win32,126.58227848063959,,,,,,1744.712200000003,265,4,1744.714400000006,265,,,,1748.300200000003,1748.801100000009,1747.791700000003,1748.300200000003,1745.723100000009,1747.7916000000089,1748.801100000009,1749.3012999999971,1749.3012999999971,1751.246600000009,1373,1751.246700000003,5,1751.252700000003,4,1,121,1,1,1,0.3,Time
,,996804,001,女,22,2025-06-04_10h44.04.633,Serial_Dependence_U,2023.2.3,Win32,126.58227848063959,,,,,,1751.253,210,4,1751.253100000009,210,,,,1754.839400000006,1755.339200000003,1754.330400000006,1754.8392999999971,1752.263700000003,1754.330400000006,1755.339200000003,1755.839,1755.839,1758.2405,1763,1758.2405,5,1758.246700000003,4,2,122,21,1,1,0.3,Time
,,996804,001,女,22,2025-06-04_10h44.04.633,Serial_Dependence_U,2023.2.3,Win32,126.58227848063959,,,,,,1758.247100000009,258,4,1758.247100000009,258,,,,1761.999900000006,1762.4995000000001,1761.491900000006,1761.999900000006,1759.258200000003,1761.491799999997,1762.4995000000001,1762.999299999997,1762.999299999997,1766.1,2359,1766.100100000009,5,1766.106900000006,4,3,123,7,1,1.2,0.7,Time
,,996804,001,女,22,2025-06-04_10h44.04.633,Serial_Dependence_U,2023.2.3,Win32,126.58227848063959,,,,,,1766.107299999997,106,4,1766.107400000006,106,,,,1770.283100000009,1770.783200000003,1769.775600000009,1770.2830000000001,1767.108400000006,1769.775400000006,1770.783299999997,1771.283200000003,1771.283200000003,1773.016200000003,1050,1773.016299999997,1,1773.022900000006,4,4,124,14,1,1.6,0.3,Time
,,996804,001,女,22,2025-06-04_10h44.04.633,Serial_Dependence_U,2023.2.3,Win32,126.58227848063959,,,,,,1773.023200000003,103,4,1773.023299999997,103,,,,1776.809100000009,1777.307400000006,1776.300299999997,1776.809,1774.033299999997,1776.300200000003,1777.307400000006,1777.807600000009,1777.807700000003,1779.266100000009,1016,1779.266200000003,2,1779.2722999999971,4,5,125,22,1,1.2,0.3,Time
,,996804,001,女,22,2025-06-04_10h44.04.633,Serial_Dependence_U,2023.2.3,Win32,126.58227848063959,,,,,,1779.2726000000089,281,4,1779.272700000003,281,,,,1783.249799999997,1783.749900000006,1782.742100000009,1783.249799999997,1780.275600000009,1782.742,1783.749900000006,1784.249799999997,1784.249900000006,1786.309799999997,1517,1786.3099000000059,4,1786.3161000000089,4,6,126,13,1,1.4,0.3,Time
,,996804,001,女,22,2025-06-04_10h44.04.633,Serial_Dependence_U,2023.2.3,Win32,126.58227848063959,,,,,,1786.3165,179,4,1786.316600000009,179,,,,1790.26,1790.7595000000001,1789.7515,1790.259900000006,1787.3185,1789.751400000006,1790.7595000000001,1791.258799999997,1791.258799999997,1793.6115,1464,1793.6115,3,1793.618,4,7,127,28,1,1.4,0.7,Time
,,996804,001,女,22,2025-06-04_10h44.04.633,Serial_Dependence_U,2023.2.3,Win32,126.58227848063959,,,,,,1793.6182999999971,192,4,1793.618400000006,192,,,,1797.7619000000059,1798.261400000006,1797.253900000006,1797.761700000003,1794.620400000006,1797.253799999997,1798.261400000006,1798.761700000003,1798.761799999997,1801.046100000009,1750,1801.046100000009,4,1801.052400000006,4,8,128,9,1,1.6,0.7,Time
,,996804,001,女,22,2025-06-04_10h44.04.633,Serial_Dependence_U,2023.2.3,Win32,126.58227848063959,,,,,,1801.052799999997,139,4,1801.052900000006,139,,,,1805.204,1805.703600000009,1804.695799999997,1805.203799999997,1802.0625,1804.6956000000089,1805.703600000009,1806.204700000003,1806.204799999997,1807.462700000003,586,1807.462700000003,1,1807.468600000009,4,9,129,29,1,1.6,0.7,Time
,,996804,001,女,22,2025-06-04_10h44.04.633,Serial_Dependence_U,2023.2.3,Win32,126.58227848063959,,,,,,1807.468900000006,323,4,1807.469,323,,,,1810.838600000009,1811.337299999997,1810.3302999999971,1810.8385,1808.463600000009,1810.330200000003,1811.337299999997,1811.838,1811.838,1813.772,774,1813.772200000003,3,1813.778400000006,4,10,130,20,1,0.8,0.3,Time
,,996804,001,女,22,2025-06-04_10h44.04.633,Serial_Dependence_U,2023.2.3,Win32,126.58227848063959,,,,,,1813.778700000003,340,4,1813.778799999997,340,,,,1817.757700000003,1818.256400000006,1817.255799999997,1817.757600000009,1814.788400000006,1817.255799999997,1818.256400000006,1818.756900000006,1818.757,1820.683900000006,1384,1820.684,3,1820.690100000009,4,11,131,23,1,1.4,0.3,Time
,,996804,001,女,22,2025-06-04_10h44.04.633,Serial_Dependence_U,2023.2.3,Win32,126.58227848063959,,,,,,1820.6904000000059,181,4,1820.690600000009,181,,,,1824.443100000009,1824.942400000006,1823.935400000006,1824.443,1821.7015000000001,1823.935400000006,1824.942400000006,1825.4421000000088,1825.442200000003,1827.233799999997,1219,1827.233799999997,3,1827.239700000003,4,12,132,17,1,1.2,0.7,Time
,,996804,001,女,22,2025-06-04_10h44.04.633,Serial_Dependence_U,2023.2.3,Win32,126.58227848063959,,,,,,1827.2401000000089,119,4,1827.240200000003,119,,,,1831.4176000000089,1831.9115,1830.909400000006,1831.4176000000089,1828.243100000009,1830.909299999997,1831.9115,1832.413299999997,1832.413400000006,1834.1495,1268,1834.149700000003,2,1834.156,4,13,133,4,1,1.6,0.3,Time
,,996804,001,女,22,2025-06-04_10h44.04.633,Serial_Dependence_U,2023.2.3,Win32,126.58227848063959,,,,,,1834.1562999999971,227,4,1834.1565,227,,,,1837.528700000003,1838.028,1837.020200000003,1837.528600000009,1835.157900000006,1837.020100000009,1838.028,1838.528200000003,1838.528200000003,1840.1285,1133,1840.1286000000089,5,1840.1345000000001,4,14,134,10,1,0.8,0.3,Time
,,996804,001,女,22,2025-06-04_10h44.04.633,Serial_Dependence_U,2023.2.3,Win32,126.58227848063959,,,,,,1840.134799999997,158,4,1840.134799999997,158,,,,1844.293600000009,1844.792299999997,1843.784600000009,1844.293299999997,1841.145200000003,1843.7845,1844.792299999997,1845.291700000003,1845.291799999997,1847.375299999997,1516,1847.375400000006,2,1847.381600000009,4,15,135,19,1,1.6,0.7,Time
,,996804,001,女,22,2025-06-04_10h44.04.633,Serial_Dependence_U,2023.2.3,Win32,126.58227848063959,,,,,,1847.382,169,4,1847.382,169,,,,1851.3347000000028,1851.8339000000058,1850.826100000009,1851.3345000000002,1848.3927000000028,1850.8259999999998,1851.8339000000058,1852.3331000000092,1852.3331000000092,1854.425600000009,1534,1854.4257000000032,4,1854.4324000000058,4,16,136,18,1,1.4,0.7,Time
,,996804,001,女,22,2025-06-04_10h44.04.633,Serial_Dependence_U,2023.2.3,Win32,126.58227848063959,,,,,,1854.432799999997,272,4,1854.433200000003,272,,,,1857.7797999999968,1858.278799999997,1857.2711000000088,1857.7794999999999,1855.437400000006,1857.271,1858.278799999997,1858.777799999997,1858.7779000000062,1859.696900000006,374,1859.696900000006,1,1859.7030000000002,4,17,137,15,1,0.8,0.7,Time
,,996804,001,女,22,2025-06-04_10h44.04.633,Serial_Dependence_U,2023.2.3,Win32,126.58227848063959,,,,,,1859.7032999999972,82,4,1859.703400000006,82,,,,1863.6501000000092,1864.149299999997,1863.1414000000061,1863.6499999999999,1860.7086000000088,1863.1412999999968,1864.149400000006,1864.6492000000028,1864.649400000006,1884.9575000000002,1423,1884.957600000009,3,1884.9639000000059,4,18,138,8,1,1.4,0.7,Time
,,996804,001,女,22,2025-06-04_10h44.04.633,Serial_Dependence_U,2023.2.3,Win32,126.58227848063959,,,,,,1884.9642999999971,354,4,1884.964400000006,354,,,,1888.549400000006,1889.0490000000002,1888.0416000000089,1888.5492000000029,1885.974,1888.0414000000058,1889.049100000009,1889.5481000000088,1889.5482000000031,1891.765600000009,1524,1891.7657000000029,5,1891.772600000009,4,19,139,11,1,1,0.3,Time
,,996804,001,女,22,2025-06-04_10h44.04.633,Serial_Dependence_U,2023.2.3,Win32,126.58227848063959,,,,,,1891.772900000006,326,4,1891.773200000003,326,,,,1895.5571000000089,1896.057799999997,1895.0492999999972,1895.5571000000089,1892.7826000000089,1895.049100000009,1896.057900000006,1896.5572000000031,1896.557299999997,1899.121700000003,1732,1899.121799999997,5,1899.127700000003,4,20,140,2,1,1.2,0.3,Time
,,996804,001,女,22,2025-06-04_10h44.04.633,Serial_Dependence_U,2023.2.3,Win32,126.58227848063959,,,,,,1899.128,343,4,1899.1281000000088,343,,,,1902.8907999999972,1903.3894000000062,1902.388400000006,1902.8907999999972,1900.124,1902.388400000006,1903.3894000000062,1903.8894000000062,1903.8894000000062,1906.498799999997,1686,1906.4989000000062,5,1906.5052999999969,4,21,141,12,1,1.2,0.3,Time
,,996804,001,女,22,2025-06-04_10h44.04.633,Serial_Dependence_U,2023.2.3,Win32,126.58227848063959,,,,,,1906.5055,311,4,1906.5056000000088,311,,,,1910.050299999997,1910.5485,1909.5420000000001,1910.050299999997,1907.5082000000032,1909.5419000000059,1910.5485,1911.049100000009,1911.049100000009,1913.5827999999972,1784,1913.5827999999972,5,1913.589100000009,4,22,142,26,1,1,0.7,Time
,,996804,001,女,22,2025-06-04_10h44.04.633,Serial_Dependence_U,2023.2.3,Win32,126.58227848063959,,,,,,1913.589400000006,309,4,1913.5894999999998,309,,,,1916.9345,1917.434299999997,1916.4260000000002,1916.9344000000058,1914.5915000000002,1916.4259000000059,1917.434299999997,1917.934200000003,1917.934299999997,1920.184600000009,1266,1920.184600000009,5,1920.191,4,23,143,25,1,0.8,0.7,Time
,,996804,001,女,22,2025-06-04_10h44.04.633,Serial_Dependence_U,2023.2.3,Win32,126.58227848063959,,,,,,1920.1914000000058,338,4,1920.1915000000001,338,,,,1923.577600000009,1924.0766000000087,1923.069400000006,1923.5775,1921.200600000009,1923.0692999999972,1924.0766000000087,1924.575900000006,1924.5759999999998,1926.6762000000028,1194,1926.6762999999971,5,1926.6827000000028,4,24,144,0,1,0.8,0.3,Time
,,996804,001,女,22,2025-06-04_10h44.04.633,Serial_Dependence_U,2023.2.3,Win32,126.58227848063959,,,,,,1926.6830000000002,235,4,1926.683100000009,235,,,,1930.4352999999971,1930.9349000000059,1929.9274000000062,1930.4352999999971,1927.693600000009,1929.927200000003,1930.9349000000059,1931.4352000000029,1931.4352000000029,1934.1274999999998,1925,1934.1276000000091,5,1934.133799999997,4,25,145,27,1,1.2,0.7,Time
,,996804,001,女,22,2025-06-04_10h44.04.633,Serial_Dependence_U,2023.2.3,Win32,126.58227848063959,,,,,,1934.134100000009,62,4,1934.134200000003,62,,,,1937.4905,1937.990600000009,1936.9824999999998,1937.490299999997,1935.1447000000028,1936.982400000006,1937.9907000000028,1938.4910000000002,1938.4910000000002,1941.666299999997,2007,1941.666299999997,5,1941.6734000000058,4,26,146,5,1,0.8,0.7,Time
,,996804,001,女,22,2025-06-04_10h44.04.633,Serial_Dependence_U,2023.2.3,Win32,126.58227848063959,,,,,,1941.673799999997,54,4,1941.673900000006,54,,,,1945.2167999999972,1945.7151000000088,1944.7082999999968,1945.216700000003,1942.6746000000091,1944.708200000003,1945.7151000000088,1946.2162000000028,1946.2162000000028,1949.3919000000058,1959,1949.3919000000058,5,1949.397400000006,4,27,147,6,1,1,0.7,Time
,,996804,001,女,22,2025-06-04_10h44.04.633,Serial_Dependence_U,2023.2.3,Win32,126.58227848063959,,,,,,1949.397600000009,194,4,1949.397700000003,194,,,,1953.575600000009,1954.074799999997,1953.0674999999999,1953.5755000000001,1950.4001000000092,1953.0674999999999,1954.074799999997,1954.5749000000058,1954.5749000000058,1957.168200000003,1907,1957.1682999999969,4,1957.1746000000091,4,28,148,24,1,1.6,0.3,Time
,,996804,001,女,22,2025-06-04_10h44.04.633,Serial_Dependence_U,2023.2.3,Win32,126.58227848063959,,,,,,1957.1749000000061,121,4,1957.175,121,,,,1960.7267000000031,1961.226799999997,1960.218600000009,1960.7266000000088,1958.1845,1960.2184000000059,1961.226799999997,1961.7279999999998,1961.7281000000091,1964.636400000006,1851,1964.6366000000091,5,1964.643200000003,4,29,149,16,1,1,0.7,Time
,,996804,001,女,22,2025-06-04_10h44.04.633,Serial_Dependence_U,2023.2.3,Win32,126.58227848063959,,,,,,1964.643400000006,80,5,2198.148,80,s,233.48469999998815,,2201.694400000006,2202.1907000000033,2201.186600000009,2201.694400000006,2199.1451000000093,2201.1865000000003,2202.190799999997,2202.685200000003,2202.6852999999974,2205.0744000000063,1693,2205.0745,5,2205.0802999999974,5,0,150,6,1,1,0.7,Time
,,996804,001,女,22,2025-06-04_10h44.04.633,Serial_Dependence_U,2023.2.3,Win32,126.58227848063959,,,,,,2205.080700000003,226,5,2205.0827999999974,226,,,,2208.418799999997,2208.9176000000093,2207.9167000000034,2208.4187000000034,2206.0837000000033,2207.9167000000034,2208.917700000003,2209.417200000003,2209.417200000003,2211.1600000000003,1191,2211.160100000009,5,2211.1665000000003,5,1,151,5,1,0.8,0.7,Time
,,996804,001,女,22,2025-06-04_10h44.04.633,Serial_Dependence_U,2023.2.3,Win32,126.58227848063959,,,,,,2211.166900000006,30,5,2211.1670000000004,30,,,,2215.309600000009,2215.8089000000064,2214.8017999999975,2215.3095000000003,2212.1687000000034,2214.801700000003,2215.809,2216.308799999997,2216.3089000000064,2218.6587999999974,1826,2218.6587999999974,4,2218.6650000000004,5,2,152,9,1,1.6,0.7,Time
,,996804,001,女,22,2025-06-04_10h44.04.633,Serial_Dependence_U,2023.2.3,Win32,126.58227848063959,,,,,,2218.6652999999974,283,5,2218.6654000000062,283,,,,2222.601799999997,2223.101299999997,2222.1007999999974,2222.6017000000033,2219.668,2222.100700000003,2223.101299999997,2223.6015,2223.6015,2225.9525000000003,1829,2225.952600000009,5,2225.958600000009,5,3,153,28,1,1.4,0.7,Time
,,996804,001,女,22,2025-06-04_10h44.04.633,Serial_Dependence_U,2023.2.3,Win32,126.58227848063959,,,,,,2225.958900000006,56,5,2225.959100000009,56,,,,2229.936100000009,2230.430400000006,2229.4280000000003,2229.936,2226.961100000009,2229.427900000006,2230.430400000006,2230.9305000000004,2230.9305000000004,2233.250799999997,1752,2233.2509000000064,4,2233.2574000000063,5,4,154,23,1,1.4,0.3,Time
,,996804,001,女,22,2025-06-04_10h44.04.633,Serial_Dependence_U,2023.2.3,Win32,126.58227848063959,,,,,,2233.258100000009,113,5,2233.2582000000034,113,,,,2236.6341000000093,2237.133600000009,2236.1252999999974,2236.6340000000005,2234.2590000000005,2236.125200000003,2237.133700000003,2237.6332999999972,2237.633400000006,2240.059400000006,1735,2240.0595000000003,5,2240.0652999999975,5,5,155,0,1,0.8,0.3,Time
,,996804,001,女,22,2025-06-04_10h44.04.633,Serial_Dependence_U,2023.2.3,Win32,126.58227848063959,,,,,,2240.065600000009,79,5,2240.065799999997,79,,,,2243.810400000006,2244.309400000006,2243.302100000009,2243.810200000003,2241.0687999999973,2243.3019000000063,2244.309400000006,2244.810400000006,2244.8105,2247.2980000000002,1794,2247.298100000009,5,2247.304600000009,5,6,156,27,1,1.2,0.7,Time
,,996804,001,女,22,2025-06-04_10h44.04.633,Serial_Dependence_U,2023.2.3,Win32,126.58227848063959,,,,,,2247.304900000006,255,5,2247.3050000000003,255,,,,2251.0569000000064,2251.5567000000033,2250.548700000003,2251.056799999997,2248.3151000000094,2250.548600000009,2251.5567000000033,2252.055900000006,2252.056,2254.522700000003,1933,2254.5227999999975,5,2254.5292999999974,5,7,157,7,1,1.2,0.7,Time
,,996804,001,女,22,2025-06-04_10h44.04.633,Serial_Dependence_U,2023.2.3,Win32,126.58227848063959,,,,,,2254.5296000000094,178,5,2254.5296000000094,178,,,,2258.108,2258.6065000000003,2257.5987999999975,2258.1079000000063,2255.5327000000034,2257.598700000003,2258.6065000000003,2259.1067999999973,2259.106900000006,2261.323700000003,1441,2261.3237999999974,5,2261.3297999999972,5,8,158,1,1,1,0.3,Time
,,996804,001,女,22,2025-06-04_10h44.04.633,Serial_Dependence_U,2023.2.3,Win32,126.58227848063959,,,,,,2261.3300000000004,287,5,2261.330100000009,287,,,,2265.118200000003,2265.617400000006,2264.6095,2265.1181000000092,2262.340299999997,2264.609400000006,2265.6175000000003,2266.117400000006,2266.1175000000003,2268.5009000000064,1724,2268.501,5,2268.507600000009,5,9,159,22,1,1.2,0.3,Time
,,996804,001,女,22,2025-06-04_10h44.04.633,Serial_Dependence_U,2023.2.3,Win32,126.58227848063959,,,,,,2268.5080000000003,357,5,2268.5082000000034,357,,,,2272.2534000000064,2272.7527999999975,2271.7455000000004,2272.253299999997,2269.5102000000034,2271.745400000006,2272.7527999999975,2273.253100000009,2273.253100000009,2275.6450000000004,1892,2275.6451000000093,5,2275.651100000009,5,10,160,17,1,1.2,0.7,Time
,,996804,001,女,22,2025-06-04_10h44.04.633,Serial_Dependence_U,2023.2.3,Win32,126.58227848063959,,,,,,2275.651400000006,54,5,2275.6515000000004,54,,,,2279.6372000000033,2280.137,2279.128600000009,2279.637100000009,2276.6617000000033,2279.1284000000064,2280.137,2280.6362999999974,2280.6364000000062,2282.7957000000033,1631,2282.7957000000033,4,2282.802,5,11,161,3,1,1.4,0.3,Time
,,996804,001,女,22,2025-06-04_10h44.04.633,Serial_Dependence_U,2023.2.3,Win32,126.58227848063959,,,,,,2282.802299999997,276,5,2282.8024000000064,276,,,,2286.588,2287.0872999999974,2286.079100000009,2286.5879000000064,2283.8125000000005,2286.0789000000063,2287.0872999999974,2287.5882000000033,2287.588299999997,2289.932299999997,1757,2289.932299999997,5,2289.938299999997,5,12,162,12,1,1.2,0.3,Time
,,996804,001,女,22,2025-06-04_10h44.04.633,Serial_Dependence_U,2023.2.3,Win32,126.58227848063959,,,,,,2289.938600000009,285,5,2289.9387000000033,285,,,,2294.123200000003,2294.6172000000033,2293.6152000000034,2294.1231000000093,2290.9489000000062,2293.615100000009,2294.617299999997,2295.1172000000033,2295.1172000000033,2296.976900000006,1534,2296.9770000000003,3,2296.9832000000033,5,13,163,14,1,1.6,0.3,Time
,,996804,001,女,22,2025-06-04_10h44.04.633,Serial_Dependence_U,2023.2.3,Win32,126.58227848063959,,,,,,2296.9837000000034,50,5,2296.9837999999972,50,,,,2300.3562000000034,2300.855799999997,2299.8475000000003,2300.356100000009,2297.98,2299.847400000006,2300.855799999997,2301.355799999997,2301.3559000000064,2303.6905,1701,2303.6905,5,2303.6965000000005,5,14,164,20,1,0.8,0.3,Time
,,996804,001,女,22,2025-06-04_10h44.04.633,Serial_Dependence_U,2023.2.3,Win32,126.58227848063959,,,,,,2303.6967999999974,100,5,2303.6969000000063,100,,,,2307.2682999999975,2307.767400000006,2306.7592999999974,2307.268200000003,2304.691700000003,2306.7591000000093,2307.767400000006,2308.267600000009,2308.267700000003,2310.476600000009,1732,2310.4767000000033,5,2310.483100000009,5,15,165,11,1,1,0.3,Time
,,996804,001,女,22,2025-06-04_10h44.04.633,Serial_Dependence_U,2023.2.3,Win32,126.58227848063959,,,,,,2310.483299999997,258,5,2310.4835000000003,258,,,,2314.025200000003,2314.520700000003,2313.5237000000034,2314.0251000000094,2311.4849000000063,2313.523600000009,2314.520799999997,2315.0242999999973,2315.0242999999973,2317.6324000000063,2058,2317.6325,5,2317.6386000000093,5,16,166,26,1,1,0.7,Time
,,996804,001,女,22,2025-06-04_10h44.04.633,Serial_Dependence_U,2023.2.3,Win32,126.58227848063959,,,,,,2317.639,13,5,2317.639100000009,13,,,,2321.0164000000063,2321.5132999999973,2320.506700000003,2321.016299999997,2318.6414000000063,2320.506700000003,2321.5132999999973,2322.0072999999975,2322.0074000000063,2324.9047000000032,1982,2324.9047000000032,5,2324.9114000000063,5,17,167,10,1,0.8,0.3,Time
,,996804,001,女,22,2025-06-04_10h44.04.633,Serial_Dependence_U,2023.2.3,Win32,126.58227848063959,,,,,,2324.911799999997,279,5,2324.9119000000064,279,,,,2328.264,2328.764,2327.7551000000094,2328.2639000000063,2325.9221000000093,2327.7551000000094,2328.764,2329.2639000000063,2329.2639000000063,2332.1735000000003,2049,2332.1735000000003,5,2332.179600000009,5,18,168,25,1,0.8,0.7,Time
,,996804,001,女,22,2025-06-04_10h44.04.633,Serial_Dependence_U,2023.2.3,Win32,126.58227848063959,,,,,,2332.179900000006,14,5,2332.180100000009,14,,,,2335.7237999999975,2336.2237999999975,2335.216400000006,2335.723700000003,2333.182600000009,2335.2162999999973,2336.2237999999975,2336.7236000000094,2336.7236000000094,2338.882799999997,1575,2338.8829000000064,5,2338.8892000000033,5,19,169,16,1,1,0.7,Time
,,996804,001,女,22,2025-06-04_10h44.04.633,Serial_Dependence_U,2023.2.3,Win32,126.58227848063959,,,,,,2338.8895,159,5,2338.8897000000034,159,,,,2342.8657999999973,2343.3655000000003,2342.357700000003,2342.865700000003,2339.890700000003,2342.3576000000094,2343.365600000009,2343.864799999997,2343.8649000000064,2345.9075000000003,1717,2345.907600000009,4,2345.9136000000094,5,20,170,13,1,1.4,0.3,Time
,,996804,001,女,22,2025-06-04_10h44.04.633,Serial_Dependence_U,2023.2.3,Win32,126.58227848063959,,,,,,2345.9139000000064,242,5,2345.914,242,,,,2349.249700000003,2349.7482999999975,2348.7490000000003,2349.249600000009,2346.916,2348.7489000000064,2349.7482999999975,2350.2489000000064,2350.2489000000064,2353.0274000000063,1969,2353.0275,5,2353.0337999999974,5,21,171,15,1,0.8,0.7,Time
,,996804,001,女,22,2025-06-04_10h44.04.633,Serial_Dependence_U,2023.2.3,Win32,126.58227848063959,,,,,,2353.0342000000032,358,5,2353.034299999997,358,,,,2357.180700000003,2357.6802000000034,2356.6761000000092,2357.1806000000092,2354.0356000000093,2356.6761000000092,2357.6802999999973,2358.1797000000033,2358.179799999997,2360.631100000009,2209,2360.6312000000034,5,2360.637400000006,5,22,172,19,1,1.6,0.7,Time
,,996804,001,女,22,2025-06-04_10h44.04.633,Serial_Dependence_U,2023.2.3,Win32,126.58227848063959,,,,,,2360.6377000000034,353,5,2360.6377999999972,353,,,,2364.574600000009,2365.074299999997,2364.0741000000094,2364.5745,2361.6400000000003,2364.0741000000094,2365.0744000000063,2365.575100000009,2365.5752000000034,2367.9762000000032,1990,2367.976299999997,5,2367.9824000000062,5,23,173,8,1,1.4,0.7,Time
,,996804,001,女,22,2025-06-04_10h44.04.633,Serial_Dependence_U,2023.2.3,Win32,126.58227848063959,,,,,,2367.982700000003,127,5,2367.982799999997,127,,,,2371.9359000000063,2372.435200000003,2371.427600000009,2371.9359000000063,2368.994,2371.4275000000002,2372.4352999999974,2372.9355,2372.9355,2375.4440000000004,2044,2375.4440000000004,5,2375.450600000009,5,24,174,18,1,1.4,0.7,Time
,,996804,001,女,22,2025-06-04_10h44.04.633,Serial_Dependence_U,2023.2.3,Win32,126.58227848063959,,,,,,2375.450900000006,207,5,2375.451,207,,,,2379.228600000009,2379.728600000009,2378.7207999999973,2379.2285,2376.4530000000004,2378.720700000003,2379.728600000009,2380.2284000000063,2380.2285,2383.847100000009,1600,2383.847100000009,5,2383.8534000000063,5,25,175,2,1,1.2,0.3,Time
,,996804,001,女,22,2025-06-04_10h44.04.633,Serial_Dependence_U,2023.2.3,Win32,126.58227848063959,,,,,,2383.853600000009,11,5,2383.853799999997,11,,,,2387.9985,2388.497900000006,2387.489799999997,2387.9984000000063,2384.8570000000004,2387.4897000000033,2388.498,2388.997900000006,2388.998,2391.106600000009,1811,2391.106700000003,4,2391.1130000000003,5,26,176,29,1,1.6,0.7,Time
,,996804,001,女,22,2025-06-04_10h44.04.633,Serial_Dependence_U,2023.2.3,Win32,126.58227848063959,,,,,,2391.1132999999973,102,5,2391.113400000006,102,,,,2395.2912000000033,2395.790700000003,2394.783400000006,2395.2912000000033,2392.115100000009,2394.7832999999973,2395.790700000003,2396.2907999999975,2396.2909000000063,2399.2994000000062,2066,2399.2994000000062,4,2399.306,5,27,177,24,1,1.6,0.3,Time
,,996804,001,女,22,2025-06-04_10h44.04.633,Serial_Dependence_U,2023.2.3,Win32,126.58227848063959,,,,,,2399.3064000000063,235,5,2399.3065,235,,,,2403.4907999999973,2403.9907999999973,2402.9829000000063,2403.490700000003,2400.316400000006,2402.982700000003,2403.9907999999973,2404.4915,2404.4915,2407.7592999999974,2466,2407.7594000000063,5,2407.7657999999974,5,28,178,4,1,1.6,0.3,Time
,,996804,001,女,22,2025-06-04_10h44.04.633,Serial_Dependence_U,2023.2.3,Win32,126.58227848063959,,,,,,2407.7661000000094,249,5,2407.766200000003,249,,,,2411.336700000003,2411.836400000006,2410.8292000000033,2411.336600000009,2408.767700000003,2410.8292000000033,2411.8365000000003,2412.335799999997,2412.3359000000064,2414.662100000009,1619,2414.6622000000034,5,2414.6684000000064,5,29,179,21,1,1,0.3,Time
,,996804,001,女,22,2025-06-04_10h44.04.633,Serial_Dependence_U,2023.2.3,Win32,126.58227848063959,,,,,,2414.6687000000034,247,6,2975.1910000000003,247,s,560.5059999999999,,2978.568100000009,2979.068100000009,2978.059100000009,2978.5679000000064,2976.1941000000093,2978.059100000009,2979.068100000009,2979.5654000000063,2979.5654000000063,2981.3085,1107,2981.3085,5,2981.314100000009,6,0,180,20,1,0.8,0.3,Time
,,996804,001,女,22,2025-06-04_10h44.04.633,Serial_Dependence_U,2023.2.3,Win32,126.58227848063959,,,,,,2981.314400000006,232,6,2981.316100000009,232,,,,2985.2925,2985.789100000009,2984.785100000009,2985.292400000006,2982.3174000000063,2984.785100000009,2985.789100000009,2986.2839000000063,2986.2839000000063,2988.3754000000063,1608,2988.3755,4,2988.3821000000094,6,1,181,3,1,1.4,0.3,Time
,,996804,001,女,22,2025-06-04_10h44.04.633,Serial_Dependence_U,2023.2.3,Win32,126.58227848063959,,,,,,2988.3825,266,6,2988.382600000009,266,,,,2991.9494000000063,2992.4489000000062,2991.448400000006,2991.949299999997,2989.385,2991.4482999999973,2992.4489000000062,2992.949299999997,2992.949299999997,2995.2412999999974,1607,2995.2414000000063,5,2995.247400000006,6,2,182,21,1,1,0.3,Time
,,996804,001,女,22,2025-06-04_10h44.04.633,Serial_Dependence_U,2023.2.3,Win32,126.58227848063959,,,,,,2995.2476000000092,181,6,2995.2477999999974,181,,,,2999.025799999997,2999.5246000000093,2998.5245000000004,2999.0257000000033,2996.2572999999975,2998.524400000006,2999.5246000000093,3000.0246000000093,3000.024700000003,3002.2076000000093,1665,3002.207700000003,5,3002.2140000000004,6,3,183,2,1,1.2,0.3,Time
,,996804,001,女,22,2025-06-04_10h44.04.633,Serial_Dependence_U,2023.2.3,Win32,126.58227848063959,,,,,,3002.2142999999974,285,6,3002.2142999999974,285,,,,3006.399700000003,3006.8992999999973,3005.8915,3006.3996000000093,3003.224299999997,3005.891299999997,3006.8992999999973,3007.3996000000093,3007.399700000003,3009.8922999999972,1815,3009.8925000000004,4,3009.8987000000034,6,4,184,14,1,1.6,0.3,Time
,,996804,001,女,22,2025-06-04_10h44.04.633,Serial_Dependence_U,2023.2.3,Win32,126.58227848063959,,,,,,3009.899200000003,346,6,3009.8992999999973,346,,,,3013.649700000003,3014.149200000003,3013.1417000000033,3013.649700000003,3010.9091000000094,3013.141600000009,3014.1492999999973,3014.6492999999973,3014.6492999999973,3017.483299999997,2092,3017.4835000000003,5,3017.4897000000033,6,5,185,17,1,1.2,0.7,Time
,,996804,001,女,22,2025-06-04_10h44.04.633,Serial_Dependence_U,2023.2.3,Win32,126.58227848063959,,,,,,3017.4900000000002,98,6,3017.490100000009,98,,,,3021.0665000000004,3021.566600000009,3020.5659000000064,3021.066299999997,3018.499100000009,3020.5659000000064,3021.566600000009,3022.0655,3022.0655,3024.6437000000033,1839,3024.643799999997,5,3024.6501000000094,6,6,186,1,1,1,0.3,Time
,,996804,001,女,22,2025-06-04_10h44.04.633,Serial_Dependence_U,2023.2.3,Win32,126.58227848063959,,,,,,3024.6504000000064,305,6,3024.650600000009,305,,,,3028.7949000000062,3029.293900000006,3028.2869000000064,3028.7949000000062,3025.653400000006,3028.286799999997,3029.2940000000003,3029.793900000006,3029.793900000006,3031.6749000000063,1415,3031.675,2,3031.6820000000002,6,7,187,19,1,1.6,0.7,Time
,,996804,001,女,22,2025-06-04_10h44.04.633,Serial_Dependence_U,2023.2.3,Win32,126.58227848063959,,,,,,3031.6825000000003,357,6,3031.682600000009,357,,,,3035.4585,3035.9570000000003,3034.9502000000034,3035.4584000000063,3032.6834000000063,3034.950100000009,3035.9570000000003,3036.456900000006,3036.456900000006,3038.609200000003,1495,3038.609200000003,4,3038.615900000006,6,8,188,22,1,1.2,0.3,Time
,,996804,001,女,22,2025-06-04_10h44.04.633,Serial_Dependence_U,2023.2.3,Win32,126.58227848063959,,,,,,3038.616200000003,50,6,3038.6164000000063,50,,,,3042.5925,3043.0927000000033,3042.084700000003,3042.5924000000064,3039.618200000003,3042.0846000000092,3043.092799999997,3043.592,3043.5921000000094,3045.983100000009,1722,3045.9832000000033,4,3045.990600000009,6,9,189,13,1,1.4,0.3,Time
,,996804,001,女,22,2025-06-04_10h44.04.633,Serial_Dependence_U,2023.2.3,Win32,126.58227848063959,,,,,,3045.990900000006,287,6,3045.9910000000004,287,,,,3049.5302000000033,3050.030100000009,3049.0265000000004,3049.53,3046.9930000000004,3049.026400000006,3050.030100000009,3050.532900000006,3050.532900000006,3054.145799999997,1581,3054.145799999997,5,3054.152600000009,6,10,190,16,1,1,0.7,Time
,,996804,001,女,22,2025-06-04_10h44.04.633,Serial_Dependence_U,2023.2.3,Win32,126.58227848063959,,,,,,3054.1529000000064,150,6,3054.1530000000002,150,,,,3057.4967000000033,3057.9964000000064,3056.9880000000003,3057.496600000009,3055.1552000000033,3056.987799999997,3057.9965,3058.4961000000094,3058.4961000000094,3061.0457000000033,1740,3061.0457000000033,5,3061.0519000000063,6,11,191,5,1,0.8,0.7,Time
,,996804,001,女,22,2025-06-04_10h44.04.633,Serial_Dependence_U,2023.2.3,Win32,126.58227848063959,,,,,,3061.0522000000033,281,6,3061.052299999997,281,,,,3064.4300000000003,3064.929200000003,3063.9212999999972,3064.4300000000003,3062.0552000000034,3063.9212000000034,3064.929200000003,3065.429299999997,3065.429299999997,3067.8127999999974,1517,3067.813,5,3067.820100000009,6,12,192,0,1,0.8,0.3,Time
,,996804,001,女,22,2025-06-04_10h44.04.633,Serial_Dependence_U,2023.2.3,Win32,126.58227848063959,,,,,,3067.820600000009,235,6,3067.820900000006,235,,,,3071.362900000006,3071.8621000000094,3070.854900000006,3071.362799999997,3068.8216000000093,3070.854700000003,3071.862200000003,3072.3624000000063,3072.3625,3074.6124000000063,1633,3074.6124000000063,5,3074.618400000006,6,13,193,26,1,1,0.7,Time
,,996804,001,女,22,2025-06-04_10h44.04.633,Serial_Dependence_U,2023.2.3,Win32,126.58227848063959,,,,,,3074.618700000003,64,6,3074.6189000000063,64,,,,3078.5715000000005,3079.070299999997,3078.062400000006,3078.571400000006,3075.6292999999973,3078.0622999999973,3079.0704000000064,3079.5707999999972,3079.5707999999972,3081.6324000000063,1608,3081.6325,4,3081.6389000000063,6,14,194,28,1,1.4,0.7,Time
,,996804,001,女,22,2025-06-04_10h44.04.633,Serial_Dependence_U,2023.2.3,Win32,126.58227848063959,,,,,,3081.6392000000033,118,6,3081.639299999997,118,,,,3085.7909000000063,3086.2902999999974,3085.2830000000004,3085.7907999999975,3082.6485000000002,3085.282900000006,3086.2902999999974,3086.7905,3086.790700000003,3089.1072999999974,1751,3089.1074000000062,4,3089.1132999999973,6,15,195,29,1,1.6,0.7,Time
,,996804,001,女,22,2025-06-04_10h44.04.633,Serial_Dependence_U,2023.2.3,Win32,126.58227848063959,,,,,,3089.1136000000092,130,6,3089.1136000000092,130,,,,3092.4826000000094,3092.9817999999973,3091.981700000003,3092.4824000000062,3090.1155000000003,3091.981600000009,3092.9817999999973,3093.4817999999973,3093.481900000006,3096.0062999999973,1857,3096.0062999999973,5,3096.012900000006,6,16,196,10,1,0.8,0.3,Time
,,996804,001,女,22,2025-06-04_10h44.04.633,Serial_Dependence_U,2023.2.3,Win32,126.58227848063959,,,,,,3096.013200000003,90,6,3096.0132999999973,90,,,,3099.965600000009,3100.4649000000063,3099.4575000000004,3099.9655000000002,3097.023900000006,3099.457400000006,3100.465,3100.965100000009,3100.9652000000033,3103.6316000000093,1930,3103.6316000000093,5,3103.6382999999973,6,17,197,18,1,1.4,0.7,Time
,,996804,001,女,22,2025-06-04_10h44.04.633,Serial_Dependence_U,2023.2.3,Win32,126.58227848063959,,,,,,3103.6386000000093,14,6,3103.638700000003,14,,,,3107.3905000000004,3107.889900000006,3106.8822999999975,3107.3902999999973,3104.648600000009,3106.882200000003,3107.889900000006,3108.3895,3108.3895,3111.0977999999973,2143,3111.0977999999973,5,3111.1042000000034,6,18,198,7,1,1.2,0.7,Time
,,996804,001,女,22,2025-06-04_10h44.04.633,Serial_Dependence_U,2023.2.3,Win32,126.58227848063959,,,,,,3111.1045000000004,337,6,3111.104600000009,337,,,,3115.2816000000093,3115.7812999999974,3114.773900000006,3115.281400000006,3112.106900000006,3114.773799999997,3115.7812999999974,3116.281400000006,3116.281400000006,3119.1087999999972,2306,3119.108900000006,5,3119.115299999997,6,19,199,24,1,1.6,0.3,Time
,,996804,001,女,22,2025-06-04_10h44.04.633,Serial_Dependence_U,2023.2.3,Win32,126.58227848063959,,,,,,3119.1155000000003,217,6,3119.115600000009,217,,,,3122.695900000006,3123.1949000000063,3122.187200000003,3122.6957999999972,3120.1256000000094,3122.187100000009,3123.1949000000063,3123.6947999999975,3123.6949000000063,3126.544700000003,2169,3126.5447999999974,5,3126.5511000000092,6,20,200,11,1,1,0.3,Time
,,996804,001,女,22,2025-06-04_10h44.04.633,Serial_Dependence_U,2023.2.3,Win32,126.58227848063959,,,,,,3126.5512999999974,331,6,3126.551400000006,331,,,,3130.095299999997,3130.594,3129.5870000000004,3130.0952000000034,3127.5537999999974,3129.5870000000004,3130.594,3131.0947000000033,3131.0947000000033,3133.602700000003,1858,3133.602700000003,5,3133.6092999999973,6,21,201,6,1,1,0.7,Time
,,996804,001,女,22,2025-06-04_10h44.04.633,Serial_Dependence_U,2023.2.3,Win32,126.58227848063959,,,,,,3133.6096000000093,188,6,3133.609700000003,188,,,,3137.3869000000063,3137.8862999999974,3136.8790000000004,3137.3869000000063,3134.6117999999974,3136.8787000000034,3137.8862999999974,3138.385600000009,3138.385700000003,3140.408400000006,1771,3140.4085000000005,5,3140.414900000006,6,22,202,12,1,1.2,0.3,Time
,,996804,001,女,22,2025-06-04_10h44.04.633,Serial_Dependence_U,2023.2.3,Win32,126.58227848063959,,,,,,3140.4152999999974,212,6,3140.4152999999974,212,,,,3144.367299999997,3144.8664000000063,3143.8587999999972,3144.3672000000033,3141.4240000000004,3143.8587000000034,3144.8664000000063,3145.3664000000063,3145.3665,3147.199200000003,1410,3147.199299999997,3,3147.2052999999974,6,23,203,8,1,1.4,0.7,Time
,,996804,001,女,22,2025-06-04_10h44.04.633,Serial_Dependence_U,2023.2.3,Win32,126.58227848063959,,,,,,3147.2056000000093,241,6,3147.205700000003,241,,,,3151.383900000006,3151.8827000000033,3150.8752999999974,3151.383900000006,3148.208900000006,3150.8752999999974,3151.8827000000033,3152.3832999999972,3152.3832999999972,3154.128600000009,1419,3154.128600000009,2,3154.134799999997,6,24,204,4,1,1.6,0.3,Time
,,996804,001,女,22,2025-06-04_10h44.04.633,Serial_Dependence_U,2023.2.3,Win32,126.58227848063959,,,,,,3154.135,56,6,3154.135100000009,56,,,,3157.8799000000063,3158.3795000000005,3157.3712000000032,3157.8797999999974,3155.137100000009,3157.3711000000094,3158.3796000000093,3158.8795000000005,3158.8795000000005,3160.924700000003,1567,3160.924700000003,5,3160.9314000000063,6,25,205,27,1,1.2,0.7,Time
,,996804,001,女,22,2025-06-04_10h44.04.633,Serial_Dependence_U,2023.2.3,Win32,126.58227848063959,,,,,,3160.931799999997,254,6,3160.9319000000064,254,,,,3164.275600000009,3164.7747999999974,3163.7672999999972,3164.2755,3161.9345000000003,3163.7672999999972,3164.7749000000063,3165.2754000000064,3165.2754000000064,3167.184,1838,3167.184100000009,5,3167.1902999999975,6,26,206,15,1,0.8,0.7,Time
,,996804,001,女,22,2025-06-04_10h44.04.633,Serial_Dependence_U,2023.2.3,Win32,126.58227848063959,,,,,,3167.190600000009,37,6,3167.1907000000033,37,,,,3171.1672999999973,3171.6665000000003,3170.659,3171.167200000003,3168.1925,3170.659,3171.666600000009,3172.1667000000034,3172.1667000000034,3173.7104000000063,1068,3173.7105,2,3173.7169000000063,6,27,207,23,1,1.4,0.3,Time
,,996804,001,女,22,2025-06-04_10h44.04.633,Serial_Dependence_U,2023.2.3,Win32,126.58227848063959,,,,,,3173.7172000000032,111,6,3173.7172000000032,111,,,,3177.0719000000063,3177.572,3176.563299999997,3177.0717999999974,3174.727100000009,3176.5632000000032,3177.572,3178.0710000000004,3178.0710000000004,3179.830700000003,1475,3179.830700000003,5,3179.836600000009,6,28,208,25,1,0.8,0.7,Time
,,996804,001,女,22,2025-06-04_10h44.04.633,Serial_Dependence_U,2023.2.3,Win32,126.58227848063959,,,,,,3179.836900000006,101,6,3179.8370000000004,101,,,,3183.981100000009,3184.4804000000063,3183.4725000000003,3183.981,3180.838900000006,3183.472400000006,3184.4805,3184.9802999999974,3184.9804000000063,3191.364600000009,1525,3191.364600000009,3,3191.371600000009,6,29,209,9,1,1.6,0.7,Time
,,996804,001,女,22,2025-06-04_10h44.04.633,Serial_Dependence_U,2023.2.3,Win32,126.58227848063959,,,,,,3191.372100000009,131,7,3544.6915000000004,131,s,353.2974999999997,,3548.672600000009,3549.1721000000093,3548.164299999997,3548.6725,3545.701200000003,3548.1642000000033,3549.1721000000093,3549.672200000003,3549.6722999999974,3551.6392000000033,1417,3551.639299999997,3,3551.6456000000094,7,0,210,13,1,1.4,0.3,Time
,,996804,001,女,22,2025-06-04_10h44.04.633,Serial_Dependence_U,2023.2.3,Win32,126.58227848063959,,,,,,3551.646,142,7,3551.648100000009,142,,,,3555.8167999999973,3556.3155,3555.3162000000034,3555.816700000003,3552.6495000000004,3555.316100000009,3556.3155,3556.816100000009,3556.816100000009,3559.1340000000005,1859,3559.1341000000093,4,3559.1406000000093,7,1,211,4,1,1.6,0.3,Time
,,996804,001,女,22,2025-06-04_10h44.04.633,Serial_Dependence_U,2023.2.3,Win32,126.58227848063959,,,,,,3559.1409000000062,257,7,3559.141,257,,,,3562.7180000000003,3563.217299999997,3562.2097999999974,3562.717900000006,3560.142400000006,3562.209700000003,3563.217299999997,3563.7175,3563.717600000009,3565.7590000000005,1627,3565.7591000000093,5,3565.765200000003,7,2,212,21,1,1,0.3,Time
,,996804,001,女,22,2025-06-04_10h44.04.633,Serial_Dependence_U,2023.2.3,Win32,126.58227848063959,,,,,,3565.7656000000093,94,7,3565.7656000000093,94,,,,3569.109700000003,3569.609400000006,3568.6015,3569.1095,3566.7685,3568.6015,3569.6095,3570.1092999999973,3570.1092999999973,3572.727400000006,1939,3572.7275000000004,5,3572.733600000009,7,3,213,15,1,0.8,0.7,Time
,,996804,001,女,22,2025-06-04_10h44.04.633,Serial_Dependence_U,2023.2.3,Win32,126.58227848063959,,,,,,3572.7337999999972,251,7,3572.733900000006,251,,,,3576.7104000000063,3577.206900000006,3576.2077999999974,3576.7104000000063,3573.7437999999975,3576.207700000003,3577.207100000009,3577.708,3577.7081000000094,3580.640700000003,1775,3580.6409000000062,4,3580.647400000006,7,4,214,23,1,1.4,0.3,Time
,,996804,001,女,22,2025-06-04_10h44.04.633,Serial_Dependence_U,2023.2.3,Win32,126.58227848063959,,,,,,3580.6479000000063,198,7,3580.6479000000063,198,,,,3584.5994000000064,3585.099,3584.094,3584.599100000009,3581.658100000009,3584.093900000006,3585.099100000009,3585.5986000000094,3585.5986000000094,3587.673700000003,1733,3587.673700000003,4,3587.680100000009,7,5,215,28,1,1.4,0.7,Time
,,996804,001,女,22,2025-06-04_10h44.04.633,Serial_Dependence_U,2023.2.3,Win32,126.58227848063959,,,,,,3587.680400000006,26,7,3587.6805000000004,26,,,,3591.6577000000034,3592.1572000000033,3591.1497999999974,3591.6575000000003,3588.6827999999973,3591.149700000003,3592.1572000000033,3592.657100000009,3592.657100000009,3594.716200000003,1782,3594.716200000003,4,3594.722400000006,7,6,216,3,1,1.4,0.3,Time
,,996804,001,女,22,2025-06-04_10h44.04.633,Serial_Dependence_U,2023.2.3,Win32,126.58227848063959,,,,,,3594.7227999999973,154,7,3594.7231000000093,154,,,,3598.4665000000005,3598.9654000000064,3597.9579000000062,3598.4665000000005,3595.7244000000064,3597.9577999999974,3598.9655000000002,3599.4649000000063,3599.4649000000063,3601.7025000000003,1836,3601.702600000009,5,3601.7096000000092,7,7,217,7,1,1.2,0.7,Time
,,996804,001,女,22,2025-06-04_10h44.04.633,Serial_Dependence_U,2023.2.3,Win32,126.58227848063959,,,,,,3601.71,33,7,3601.7101000000093,33,,,,3605.452100000009,3605.9512999999974,3604.9437000000034,3605.4519000000064,3602.711299999997,3604.943600000009,3605.9512999999974,3606.451200000003,3606.4512999999974,3608.956600000009,2050,3608.9567000000034,5,3608.963100000009,7,8,218,27,1,1.2,0.7,Time
,,996804,001,女,22,2025-06-04_10h44.04.633,Serial_Dependence_U,2023.2.3,Win32,126.58227848063959,,,,,,3608.963299999997,89,7,3608.963400000006,89,,,,3612.740700000003,3613.237600000009,3612.232799999997,3612.740600000009,3609.9647999999975,3612.232700000003,3613.237600000009,3613.731299999997,3613.7315000000003,3615.770700000003,1544,3615.7709000000063,4,3615.777,7,9,219,22,1,1.2,0.3,Time
,,996804,001,女,22,2025-06-04_10h44.04.633,Serial_Dependence_U,2023.2.3,Win32,126.58227848063959,,,,,,3615.777200000003,104,7,3615.7774000000063,104,,,,3619.3207999999972,3619.8207999999972,3618.8132000000032,3619.3207000000034,3616.780100000009,3618.813,3619.820900000006,3620.320100000009,3620.3202000000033,3622.446700000003,1781,3622.446700000003,5,3622.4527999999973,7,10,220,6,1,1,0.7,Time
,,996804,001,女,22,2025-06-04_10h44.04.633,Serial_Dependence_U,2023.2.3,Win32,126.58227848063959,,,,,,3622.453200000003,345,7,3622.4535,345,,,,3626.0377999999973,3626.5380000000005,3625.5297000000032,3626.037700000003,3623.463,3625.5296000000094,3626.5380000000005,3627.0372999999972,3627.037400000006,3629.4625,1817,3629.4626000000094,5,3629.468900000006,7,11,221,1,1,1,0.3,Time
,,996804,001,女,22,2025-06-04_10h44.04.633,Serial_Dependence_U,2023.2.3,Win32,126.58227848063959,,,,,,3629.4691000000093,91,7,3629.469200000003,91,,,,3633.6462000000033,3634.145799999997,3633.1380000000004,3633.646100000009,3630.470900000006,3633.1380000000004,3634.145799999997,3634.645700000003,3634.645700000003,3636.7285,1577,3636.728600000009,3,3636.7347999999974,7,12,222,14,1,1.6,0.3,Time
,,996804,001,女,22,2025-06-04_10h44.04.633,Serial_Dependence_U,2023.2.3,Win32,126.58227848063959,,,,,,3636.7352000000033,6,7,3636.735299999997,6,,,,3640.8715,3641.371,3640.3705000000004,3640.8714000000064,3637.7382000000034,3640.3702999999973,3641.371,3641.8706000000093,3641.870700000003,3644.720100000009,2166,3644.7202000000034,5,3644.7265,7,13,223,9,1,1.6,0.7,Time
,,996804,001,女,22,2025-06-04_10h44.04.633,Serial_Dependence_U,2023.2.3,Win32,126.58227848063959,,,,,,3644.726900000006,211,7,3644.727100000009,211,,,,3648.112900000006,3648.612299999997,3647.604700000003,3648.112799999997,3645.737799999997,3647.604700000003,3648.612299999997,3649.112200000003,3649.112200000003,3650.945100000009,1160,3650.945100000009,5,3650.9519000000064,7,14,224,0,1,0.8,0.3,Time
,,996804,001,女,22,2025-06-04_10h44.04.633,Serial_Dependence_U,2023.2.3,Win32,126.58227848063959,,,,,,3650.9522000000034,331,7,3650.952299999997,331,,,,3654.5045000000005,3655.0045000000005,3653.9964000000064,3654.5042999999973,3651.9622999999974,3653.996299999997,3655.0045000000005,3655.5034000000064,3655.5035000000003,3657.929299999997,1627,3657.9294000000064,5,3657.9355,7,15,225,16,1,1,0.7,Time
,,996804,001,女,22,2025-06-04_10h44.04.633,Serial_Dependence_U,2023.2.3,Win32,126.58227848063959,,,,,,3657.9357999999975,264,7,3657.9359000000063,264,,,,3661.8804000000064,3662.3801000000094,3661.3715,3661.880299999997,3658.9387000000033,3661.3715,3662.3802000000032,3662.88,3662.88,3664.888700000003,1924,3664.8887999999974,5,3664.895200000003,7,16,226,8,1,1.4,0.7,Time
,,996804,001,女,22,2025-06-04_10h44.04.633,Serial_Dependence_U,2023.2.3,Win32,126.58227848063959,,,,,,3664.8956000000094,151,7,3664.8956000000094,151,,,,3668.6667999999972,3669.1670000000004,3668.1587999999974,3668.6667000000034,3665.897400000006,3668.158700000003,3669.167100000009,3669.666400000006,3669.6665000000003,3672.6592000000032,2382,3672.659299999997,5,3672.665700000003,7,17,227,2,1,1.2,0.3,Time
,,996804,001,女,22,2025-06-04_10h44.04.633,Serial_Dependence_U,2023.2.3,Win32,126.58227848063959,,,,,,3672.666100000009,276,7,3672.666100000009,276,,,,3676.4062999999974,3676.905100000009,3675.902799999997,3676.4061000000092,3673.668100000009,3675.902799999997,3676.9052000000033,3677.4055000000003,3677.405600000009,3680.021299999997,2101,3680.021299999997,5,3680.028100000009,7,18,228,17,1,1.2,0.7,Time
,,996804,001,女,22,2025-06-04_10h44.04.633,Serial_Dependence_U,2023.2.3,Win32,126.58227848063959,,,,,,3680.0285000000003,45,7,3680.028600000009,45,,,,3683.573100000009,3684.0712999999973,3683.0642999999973,3683.5730000000003,3681.0307000000034,3683.0642000000034,3684.0712999999973,3684.5719000000063,3684.572,3687.512100000009,2150,3687.5122000000033,5,3687.5190000000002,7,19,229,26,1,1,0.7,Time
,,996804,001,女,22,2025-06-04_10h44.04.633,Serial_Dependence_U,2023.2.3,Win32,126.58227848063959,,,,,,3687.519400000006,51,7,3687.5195000000003,51,,,,3691.6945,3692.1937999999973,3691.1932000000033,3691.694400000006,3688.5297000000032,3691.193100000009,3692.193900000006,3692.6937000000034,3692.6937999999973,3694.665200000003,1940,3694.665200000003,4,3694.6712000000034,7,20,230,24,1,1.6,0.3,Time
,,996804,001,女,22,2025-06-04_10h44.04.633,Serial_Dependence_U,2023.2.3,Win32,126.58227848063959,,,,,,3694.6715000000004,34,7,3694.671600000009,34,,,,3698.826799999997,3699.326,3698.318,3698.8267000000033,3695.6817000000033,3698.318,3699.3261000000093,3699.826,3699.8261000000093,3701.4842999999973,1260,3701.484400000006,2,3701.490600000009,7,21,231,19,1,1.6,0.7,Time
,,996804,001,女,22,2025-06-04_10h44.04.633,Serial_Dependence_U,2023.2.3,Win32,126.58227848063959,,,,,,3701.490900000006,25,7,3701.4910000000004,25,,,,3704.8731000000093,3705.372900000006,3704.3644000000063,3704.873,3702.501299999997,3704.3642999999975,3705.372900000006,3705.8720000000003,3705.872100000009,3708.3732999999975,1799,3708.3734000000063,5,3708.380299999997,7,22,232,20,1,0.8,0.3,Time
,,996804,001,女,22,2025-06-04_10h44.04.633,Serial_Dependence_U,2023.2.3,Win32,126.58227848063959,,,,,,3708.3807000000033,129,7,3708.3807000000033,129,,,,3711.731600000009,3712.231600000009,3711.224,3711.7315000000003,3709.3902999999973,3711.2237999999975,3712.231600000009,3712.731700000003,3712.731700000003,3715.289900000006,1939,3715.289900000006,5,3715.296100000009,7,23,233,25,1,0.8,0.7,Time
,,996804,001,女,22,2025-06-04_10h44.04.633,Serial_Dependence_U,2023.2.3,Win32,126.58227848063959,,,,,,3715.296400000006,244,7,3715.2965000000004,244,,,,3719.240299999997,3719.7397000000033,3718.731600000009,3719.2402000000034,3716.2990000000004,3718.7315000000003,3719.739799999997,3720.2402000000034,3720.2402000000034,3722.505799999997,2028,3722.505900000006,5,3722.511799999997,7,24,234,18,1,1.4,0.7,Time
,,996804,001,女,22,2025-06-04_10h44.04.633,Serial_Dependence_U,2023.2.3,Win32,126.58227848063959,,,,,,3722.512100000009,326,7,3722.5122000000033,326,,,,3725.8900000000003,3726.389900000006,3725.3822999999975,3725.889900000006,3723.514799999997,3725.3822999999975,3726.3900000000003,3726.889,3726.889,3729.966700000003,2359,3729.9667999999974,5,3729.9730000000004,7,25,235,10,1,0.8,0.3,Time
,,996804,001,女,22,2025-06-04_10h44.04.633,Serial_Dependence_U,2023.2.3,Win32,126.58227848063959,,,,,,3729.973400000006,325,7,3729.973400000006,325,,,,3733.3277999999973,3733.8267000000033,3732.8195,3733.327700000003,3730.9842999999973,3732.819400000006,3733.826799999997,3734.3272000000034,3734.327299999997,3737.1102000000033,2167,3737.110299999997,5,3737.1169000000064,7,26,236,5,1,0.8,0.7,Time
,,996804,001,女,22,2025-06-04_10h44.04.633,Serial_Dependence_U,2023.2.3,Win32,126.58227848063959,,,,,,3737.1172000000033,41,7,3737.117299999997,41,,,,3740.703200000003,3741.201600000009,3740.194400000006,3740.7031000000093,3738.127700000003,3740.194200000003,3741.2017000000033,3741.6966000000093,3741.696700000003,3744.172,1832,3744.172,5,3744.178400000006,7,27,237,11,1,1,0.3,Time
,,996804,001,女,22,2025-06-04_10h44.04.633,Serial_Dependence_U,2023.2.3,Win32,126.58227848063959,,,,,,3744.1787999999974,143,7,3744.179,143,,,,3747.955100000009,3748.454900000006,3747.447299999997,3747.9550000000004,3745.1806000000092,3747.447299999997,3748.454900000006,3748.9547999999972,3748.9547999999972,3751.4127999999973,2041,3751.412900000006,5,3751.419200000003,7,28,238,12,1,1.2,0.3,Time
,,996804,001,女,22,2025-06-04_10h44.04.633,Serial_Dependence_U,2023.2.3,Win32,126.58227848063959,,,,,,3751.4196000000093,135,7,3751.4196000000093,135,,,,3755.571700000003,3756.0671000000093,3755.063,3755.5716000000093,3752.430100000009,3755.0629000000063,3756.0671000000093,3756.561600000009,3756.561600000009,3759.2864000000063,2409,3759.2864000000063,5,3759.293299999997,7,29,239,29,1,1.6,0.7,Time
,,996804,001,女,22,2025-06-04_10h44.04.633,Serial_Dependence_U,2023.2.3,Win32,126.58227848063959,,,,,,3759.2935,144,8,3827.436299999997,144,s,68.12759999999389,,3831.3832000000034,3831.882600000009,3830.8751000000093,3831.383100000009,3828.439700000003,3830.8750000000005,3831.8827000000033,3832.3822999999975,3832.3824000000063,3834.3909000000062,1591,3834.391,4,3834.3970000000004,8,0,240,18,1,1.4,0.7,Time
,,996804,001,女,22,2025-06-04_10h44.04.633,Serial_Dependence_U,2023.2.3,Win32,126.58227848063959,,,,,,3834.3972999999974,292,8,3834.398600000009,292,,,,3838.5780000000004,3839.0772000000034,3838.0692999999974,3838.5780000000004,3835.400600000009,3838.069200000003,3839.077299999997,3839.577,3839.577100000009,3842.1467000000034,1568,3842.1467999999973,3,3842.153100000009,8,1,241,4,1,1.6,0.3,Time
,,996804,001,女,22,2025-06-04_10h44.04.633,Serial_Dependence_U,2023.2.3,Win32,126.58227848063959,,,,,,3842.153400000006,273,8,3842.1535000000003,273,,,,3845.9235000000003,3846.4232000000034,3845.421400000006,3845.923400000006,3843.1557000000034,3845.4212999999972,3846.4232000000034,3846.9229000000064,3846.923100000009,3849.6510000000003,1905,3849.651100000009,5,3849.6574000000064,8,2,242,2,1,1.2,0.3,Time
,,996804,001,女,22,2025-06-04_10h44.04.633,Serial_Dependence_U,2023.2.3,Win32,126.58227848063959,,,,,,3849.657799999997,81,8,3849.657900000006,81,,,,3853.0062999999973,3853.505299999997,3852.4972999999973,3853.0062999999973,3850.6605000000004,3852.497100000009,3853.5054000000064,3854.0054000000064,3854.0054000000064,3856.739600000009,1898,3856.739600000009,5,3856.7470000000003,8,3,243,15,1,0.8,0.7,Time
,,996804,001,女,22,2025-06-04_10h44.04.633,Serial_Dependence_U,2023.2.3,Win32,126.58227848063959,,,,,,3856.7472999999973,241,8,3856.747400000006,241,,,,3860.1235,3860.623200000003,3859.615100000009,3860.1235,3857.748,3859.6150000000002,3860.6232999999975,3861.1232999999975,3861.1234000000063,3862.7097999999974,835,3862.709900000006,3,3862.716100000009,8,4,244,10,1,0.8,0.3,Time
,,996804,001,女,22,2025-06-04_10h44.04.633,Serial_Dependence_U,2023.2.3,Win32,126.58227848063959,,,,,,3862.7165000000005,32,8,3862.7165000000005,32,,,,3866.481299999997,3866.98,3865.980600000009,3866.4812000000034,3863.711100000009,3865.9804000000063,3866.9801000000093,3867.479600000009,3867.479600000009,3869.335,1228,3869.3351000000093,3,3869.341100000009,8,5,245,12,1,1.2,0.3,Time
,,996804,001,女,22,2025-06-04_10h44.04.633,Serial_Dependence_U,2023.2.3,Win32,126.58227848063959,,,,,,3869.341400000006,183,8,3869.3415000000005,183,,,,3873.3239000000062,3873.8237999999974,3872.815600000009,3873.3237999999974,3870.3495000000003,3872.815600000009,3873.8237999999974,3874.323400000006,3874.3235000000004,3876.5355000000004,1930,3876.5355000000004,5,3876.541900000006,8,6,246,3,1,1.4,0.3,Time
,,996804,001,女,22,2025-06-04_10h44.04.633,Serial_Dependence_U,2023.2.3,Win32,126.58227848063959,,,,,,3876.542200000003,328,8,3876.5422999999973,328,,,,3880.2869000000064,3880.785400000006,3879.785700000003,3880.286799999997,3877.5527000000034,3879.7856000000093,3880.785400000006,3881.286200000003,3881.2862999999975,3883.823100000009,1709,3883.823100000009,5,3883.829600000009,8,7,247,7,1,1.2,0.7,Time
,,996804,001,女,22,2025-06-04_10h44.04.633,Serial_Dependence_U,2023.2.3,Win32,126.58227848063959,,,,,,3883.8300000000004,184,8,3883.830100000009,184,,,,3887.376400000006,3887.8755,3886.8682999999974,3887.376299999997,3884.832100000009,3886.8681000000092,3887.8755,3888.3757000000032,3888.375799999997,3891.2837999999974,2028,3891.2839000000063,5,3891.2900000000004,8,8,248,16,1,1,0.7,Time
,,996804,001,女,22,2025-06-04_10h44.04.633,Serial_Dependence_U,2023.2.3,Win32,126.58227848063959,,,,,,3891.290200000003,249,8,3891.2902999999974,249,,,,3895.228600000009,3895.727100000009,3894.7264000000064,3895.228600000009,3892.2929000000063,3894.726299999997,3895.727100000009,3896.2277999999974,3896.2277999999974,3898.853100000009,2108,3898.853100000009,5,3898.859400000006,8,9,249,8,1,1.4,0.7,Time
,,996804,001,女,22,2025-06-04_10h44.04.633,Serial_Dependence_U,2023.2.3,Win32,126.58227848063959,,,,,,3898.859700000003,291,8,3898.859799999997,291,,,,3902.996600000009,3903.4950000000003,3902.4951000000087,3902.9965000000007,3899.861600000009,3902.4950000000003,3903.4951000000087,3903.9952000000035,3903.9952999999973,3906.595600000009,2147,3906.595600000009,5,3906.601799999997,8,10,250,9,1,1.6,0.7,Time
,,996804,001,女,22,2025-06-04_10h44.04.633,Serial_Dependence_U,2023.2.3,Win32,126.58227848063959,,,,,,3906.6021000000096,155,8,3906.6022000000034,155,,,,3910.7465000000007,3911.2465000000007,3910.2385,3910.746400000006,3907.604799999997,3910.2385,3911.246600000009,3911.746400000006,3911.7465000000007,3914.8249000000064,2275,3914.8250000000003,5,3914.8315000000007,8,11,251,29,1,1.6,0.7,Time
,,996804,001,女,22,2025-06-04_10h44.04.633,Serial_Dependence_U,2023.2.3,Win32,126.58227848063959,,,,,,3914.8317999999977,321,8,3914.832,321,,,,3918.8161000000096,3919.315799999997,3918.3082000000036,3918.8159000000064,3915.841100000009,3918.308100000009,3919.315799999997,3919.8156000000095,3919.8157000000033,3922.6742000000036,2247,3922.6742000000036,5,3922.681,8,12,252,13,1,1.4,0.3,Time
