Scale_setup.started,Scale_setup.stopped,participant,session,sex,age,date,expName,psychopyVersion,OS,frameRate,Intro.started,Intro.stopped,key_resp_2.keys,key_resp_2.rt,key_resp_2.duration,block.started,direction,Block_id,block.stopped,trial_direction,Block_resp_2.keys,Block_resp_2.rt,Block_resp_2.duration,ITI.started,ITI.stopped,Mask_2.started,Mask_2.stopped,encoding.started,encoding.stopped,Cue.started,Cue.stopped,Response.started,Response.stopped,keyDuration,Feedback_Time.started,FeedbackID_T,Feedback_Time.stopped,trials.thisRepN,trials.thisTrialN,trials.thisN,trials.thisIndex,trials.ran,TimeDur,Coherence1,TrialType
0.0005000000000165983,0.0013999999761722393,czr,001,f,20,2025-06-03_18h59.27.766,Serial_Dependence_U,2023.2.3,Win32,60.240963855400565,,,,,,,,,,,,,,,,,,,,,,,,,,,,,,,,,,,
,,czr,001,f,20,2025-06-03_18h59.27.766,Serial_Dependence_U,2023.2.3,Win32,60.240963855400565,46.20600000000002,379.1776000000238,space,332.92929999995226,,,,,,,,,,,,,,,,,,,,,,,,,,,,,,,
,,czr,001,f,20,2025-06-03_18h59.27.766,Serial_Dependence_U,2023.2.3,Win32,60.240963855400565,,,,,,379.1897000000477,264,0,388.7275,264,s,9.509899999976255,,392.89230000007154,393.39180000007156,392.3838999999762,392.89210000002385,389.7366000000239,392.3838000000715,393.3922000000477,393.9112000000477,393.91139999997614,402.3145,171,402.31489999997615,1,403.3118000000715,0,0,0,19,1,1.6,0.7,Time
,,czr,001,f,20,2025-06-03_18h59.27.766,Serial_Dependence_U,2023.2.3,Win32,60.240963855400565,,,,,,403.3128000000715,313,0,403.31489999997615,313,,,,406.9015,407.3915,406.3927000000477,406.90139999997615,404.3368000000715,406.39260000002383,407.39160000002386,407.89239999997613,407.89260000002383,420.9542000000477,273,420.95430000007156,1,421.9561000000238,0,1,1,16,1,1,0.7,Time
,,czr,001,f,20,2025-06-03_18h59.27.766,Serial_Dependence_U,2023.2.3,Win32,60.240963855400565,,,,,,421.9566000000238,251,0,421.9568000000715,251,,,,425.71860000002386,426.21439999997614,425.2153999999761,425.7185,422.958,425.2152000000477,426.21439999997614,426.7102000000477,426.7103000000715,464.64020000004774,314,464.6403999999762,1,465.61670000004773,0,2,2,17,1,1.2,0.7,Time
,,czr,001,f,20,2025-06-03_18h59.27.766,Serial_Dependence_U,2023.2.3,Win32,60.240963855400565,,,,,,465.6172000000477,266,0,465.61760000002386,266,,,,469.6312000000477,470.1236000000238,469.12420000004767,469.63100000000003,466.65820000004766,469.12399999999997,470.1236000000238,470.6235,470.6237000000477,498.3363999999762,4154,498.33650000000006,5,499.3397000000477,0,3,3,13,1,1.4,0.3,Time
,,czr,001,f,20,2025-06-03_18h59.27.766,Serial_Dependence_U,2023.2.3,Win32,60.240963855400565,,,,,,499.3402000000477,208,0,499.3403999999761,208,,,,502.69989999997614,503.1966000000238,502.1728000000715,502.69980000007155,500.32720000004764,502.1726000000238,503.1966000000238,503.6721000000238,503.6721000000238,508.2123999999762,4023,508.21250000000003,5,509.2116000000239,0,4,4,5,1,0.8,0.7,Time
,,czr,001,f,20,2025-06-03_18h59.27.766,Serial_Dependence_U,2023.2.3,Win32,60.240963855400565,,,,,,509.21200000000005,255,0,509.2123000000715,255,,,,513.2085,513.7070000000001,512.6813000000716,513.2083000000716,510.24570000004775,512.6811000000239,513.7070000000001,514.2073000000714,514.2073000000714,519.9227000000476,4550,519.9227000000476,5,520.9008999999762,0,5,5,18,1,1.4,0.7,Time
,,czr,001,f,20,2025-06-03_18h59.27.766,Serial_Dependence_U,2023.2.3,Win32,60.240963855400565,,,,,,520.9013000000716,211,0,520.9016000000238,211,,,,524.8728000000715,525.3488000000716,524.365,524.8727000000476,521.9151000000238,524.3648000000715,525.3488000000716,525.8273000000715,525.8273999999763,525.9798999999762,129,525.9802000000477,1,526.9722000000477,0,6,6,28,1,1.4,0.7,Time
,,czr,001,f,20,2025-06-03_18h59.27.766,Serial_Dependence_U,2023.2.3,Win32,60.240963855400565,,,,,,526.9727000000478,291,0,526.973,291,,,,530.9678000000715,531.4547000000478,530.461600000024,530.9677000000477,527.9791000000239,530.4613999999763,531.4547000000478,531.9546000000239,531.9548000000716,537.6286000000239,5060,537.6287000000477,5,538.6082000000476,0,7,7,23,1,1.4,0.3,Time
,,czr,001,f,20,2025-06-03_18h59.27.766,Serial_Dependence_U,2023.2.3,Win32,60.240963855400565,,,,,,538.6086000000239,350,0,538.6088000000716,350,,,,542.1883000000714,542.6542000000477,541.6723000000716,542.1882000000478,539.6220000000001,541.6722000000477,542.6543000000715,543.140100000024,543.1402000000478,548.6548999999761,5043,548.655,5,549.6382000000476,0,8,8,26,1,1,0.7,Time
,,czr,001,f,20,2025-06-03_18h59.27.766,Serial_Dependence_U,2023.2.3,Win32,60.240963855400565,,,,,,549.6386000000239,161,0,549.6388000000716,161,,,,553.21,553.6907000000476,552.6796000000238,553.2098000000715,550.6176000000239,552.6793999999761,553.6907000000476,554.1890000000001,554.1891000000239,559.0613000000715,3948,559.0613999999762,5,560.0612000000476,0,9,9,1,1,1,0.3,Time
,,czr,001,f,20,2025-06-03_18h59.27.766,Serial_Dependence_U,2023.2.3,Win32,60.240963855400565,,,,,,560.0616000000239,298,0,560.0618000000716,298,,,,563.8503999999762,564.3203999999762,563.3254999999999,563.8502000000476,561.088,563.3253999999761,564.3205,564.8085000000001,564.808600000024,568.1236000000238,2912,568.1237000000476,5,569.117,0,10,10,7,1,1.2,0.7,Time
,,czr,001,f,20,2025-06-03_18h59.27.766,Serial_Dependence_U,2023.2.3,Win32,60.240963855400565,,,,,,569.1173999999762,103,0,569.1177000000478,103,,,,573.332100000024,573.8385000000001,572.8109999999999,573.3320000000001,570.1136000000238,572.8108000000716,573.8385000000001,574.3398000000716,574.3398000000716,578.4303999999761,3333,578.4304999999999,5,579.4101000000239,0,11,11,4,1,1.6,0.3,Time
,,czr,001,f,20,2025-06-03_18h59.27.766,Serial_Dependence_U,2023.2.3,Win32,60.240963855400565,,,,,,579.4103999999761,19,0,579.4107000000477,19,,,,583.0038000000716,583.4865,582.4991000000239,583.0037000000477,580.4288000000715,582.499,583.4865,583.9866000000238,583.9867000000477,588.1490000000001,3727,588.149100000024,5,589.1183999999762,0,12,12,11,1,1,0.3,Time
,,czr,001,f,20,2025-06-03_18h59.27.766,Serial_Dependence_U,2023.2.3,Win32,60.240963855400565,,,,,,589.1187000000477,220,0,589.1189999999999,220,,,,592.4784999999999,592.9565,591.9627000000478,592.4783999999761,590.1275,591.9625000000001,592.9566000000239,593.4368999999763,593.4369999999999,597.8593999999762,3964,597.8595,5,598.8508999999763,0,13,13,15,1,0.8,0.7,Time
,,czr,001,f,20,2025-06-03_18h59.27.766,Serial_Dependence_U,2023.2.3,Win32,60.240963855400565,,,,,,598.8513999999761,207,0,598.8517000000477,207,,,,603.0618999999763,603.5550000000001,602.5541000000239,603.0618000000716,599.8918000000715,602.5538999999762,603.5551000000239,604.0551000000239,604.0552000000478,608.5685000000001,3926,608.5688999999761,5,609.5588999999761,0,14,14,14,1,1.6,0.3,Time
,,czr,001,f,20,2025-06-03_18h59.27.766,Serial_Dependence_U,2023.2.3,Win32,60.240963855400565,,,,,,609.5593000000715,140,0,609.5595000000001,140,,,,613.4033000000716,613.9058999999761,612.8763000000715,613.4033000000716,610.5707000000477,612.8761000000238,613.9058999999761,614.4023000000716,614.4023000000716,619.8900000000001,3346,619.890100000024,5,620.8528000000715,0,15,15,2,1,1.2,0.3,Time
,,czr,001,f,20,2025-06-03_18h59.27.766,Serial_Dependence_U,2023.2.3,Win32,60.240963855400565,,,,,,620.8532000000478,333,0,620.8533999999761,333,,,,624.2048000000716,624.722,623.7013000000716,624.2047000000478,621.854,623.7012000000477,624.722,625.2021000000238,625.2022000000477,631.9037000000476,3649,631.9038000000714,5,632.8827000000476,0,16,16,25,1,0.8,0.7,Time
,,czr,001,f,20,2025-06-03_18h59.27.766,Serial_Dependence_U,2023.2.3,Win32,60.240963855400565,,,,,,632.8831000000239,168,0,632.8834999999999,168,,,,636.6692000000478,637.1703000000716,636.1548000000716,636.669100000024,633.880100000024,636.154600000024,637.1703000000716,637.6683999999761,637.6683999999761,642.5083999999761,4322,642.5084999999999,5,643.4983000000716,0,17,17,12,1,1.2,0.3,Time
,,czr,001,f,20,2025-06-03_18h59.27.766,Serial_Dependence_U,2023.2.3,Win32,60.240963855400565,,,,,,643.4987000000476,257,0,643.4988000000715,257,,,,647.6959999999999,648.1848000000716,647.1763000000715,647.6958000000716,644.5207000000478,647.1761000000238,648.1848999999761,648.6680000000001,648.6681000000237,652.2866000000238,2794,652.2867000000476,5,653.2742000000476,0,18,18,29,1,1.6,0.7,Time
,,czr,001,f,20,2025-06-03_18h59.27.766,Serial_Dependence_U,2023.2.3,Win32,60.240963855400565,,,,,,653.2745,55,0,653.2748000000715,55,,,,657.4459999999999,657.9363999999762,656.9276000000239,657.4458999999761,654.2860000000001,656.9275,657.9363999999762,658.4180000000001,658.4180000000001,664.1865,4259,664.1866000000239,5,665.1647000000478,0,19,19,9,1,1.6,0.7,Time
,,czr,001,f,20,2025-06-03_18h59.27.766,Serial_Dependence_U,2023.2.3,Win32,60.240963855400565,,,,,,665.1652000000477,131,0,665.1653999999762,131,,,,668.5930000000001,669.1020000000001,668.0853000000716,668.5928000000715,666.1998000000715,668.0851000000239,669.1020000000001,669.6012000000476,669.6013000000714,678.1453000000715,3063,678.1453999999762,5,679.1572000000476,0,20,20,10,1,0.8,0.3,Time
,,czr,001,f,20,2025-06-03_18h59.27.766,Serial_Dependence_U,2023.2.3,Win32,60.240963855400565,,,,,,679.1577000000477,202,0,679.1582000000476,202,,,,682.9162000000476,683.4071000000238,682.3948000000714,682.9161000000238,680.1508000000715,682.394600000024,683.4071000000238,683.9021000000239,683.9023000000716,686.6583000000714,2208,686.6583999999762,5,687.6469999999999,0,21,21,27,1,1.2,0.7,Time
,,czr,001,f,20,2025-06-03_18h59.27.766,Serial_Dependence_U,2023.2.3,Win32,60.240963855400565,,,,,,687.6475,66,0,687.6478999999761,66,,,,691.8318000000716,692.3168000000715,691.3293000000715,691.8317000000477,688.646,691.3292000000476,692.3168000000715,692.8185000000001,692.8185000000001,696.5587000000478,2946,696.5588000000716,5,697.5740000000001,0,22,22,24,1,1.6,0.3,Time
,,czr,001,f,20,2025-06-03_18h59.27.766,Serial_Dependence_U,2023.2.3,Win32,60.240963855400565,,,,,,697.5746000000238,73,0,697.5747000000476,73,,,,701.5748999999762,702.0667000000476,701.0403000000715,701.5748000000715,698.6067000000478,701.0401000000238,702.0667000000476,702.5685000000001,702.5686000000239,706.7453999999761,3489,706.7455,5,707.739,0,23,23,8,1,1.4,0.7,Time
,,czr,001,f,20,2025-06-03_18h59.27.766,Serial_Dependence_U,2023.2.3,Win32,60.240963855400565,,,,,,707.7394999999999,156,0,707.7397000000476,156,,,,711.3518999999762,711.8518000000715,710.8344999999999,711.3518000000715,708.7733999999762,710.8343000000716,711.8518000000715,712.3328999999762,712.3330000000001,716.0613999999762,3188,716.0615,5,717.0468999999762,0,24,24,21,1,1,0.3,Time
,,czr,001,f,20,2025-06-03_18h59.27.766,Serial_Dependence_U,2023.2.3,Win32,60.240963855400565,,,,,,717.0473999999763,156,0,717.0477000000476,156,,,,720.8741000000239,721.3847000000476,720.3343000000716,720.8741000000239,718.05,720.3342000000478,721.3847000000476,721.8738999999762,721.874,726.1902000000478,3637,726.1902000000478,5,727.1896000000238,0,25,25,22,1,1.2,0.3,Time
,,czr,001,f,20,2025-06-03_18h59.27.766,Serial_Dependence_U,2023.2.3,Win32,60.240963855400565,,,,,,727.1901000000239,204,0,727.1903000000716,204,,,,730.6163000000715,731.1158999999761,730.0983000000715,730.6161000000238,728.2345,730.0981000000238,731.1158999999761,731.6017000000477,731.6018000000715,735.1398000000715,2898,735.1400000000001,5,736.1157000000476,0,26,26,0,1,0.8,0.3,Time
,,czr,001,f,20,2025-06-03_18h59.27.766,Serial_Dependence_U,2023.2.3,Win32,60.240963855400565,,,,,,736.1161000000238,227,0,736.1163000000715,227,,,,739.5206000000239,740.0162000000478,739.0052000000476,739.5205000000001,737.1373000000715,739.0050000000001,740.0163000000716,740.4988000000715,740.499,742.4253000000715,1891,742.4253999999762,5,743.4217000000476,0,27,27,20,1,0.8,0.3,Time
,,czr,001,f,20,2025-06-03_18h59.27.766,Serial_Dependence_U,2023.2.3,Win32,60.240963855400565,,,,,,743.4222000000477,325,0,743.4224999999999,325,,,,747.4361000000238,747.9178999999763,746.9228000000714,747.4359999999999,744.4338000000716,746.9226000000237,747.9178999999763,748.4153999999762,748.4155000000001,752.1508000000715,3158,752.1508999999762,5,753.1453000000715,0,28,28,3,1,1.4,0.3,Time
,,czr,001,f,20,2025-06-03_18h59.27.766,Serial_Dependence_U,2023.2.3,Win32,60.240963855400565,,,,,,753.1458000000716,333,0,753.1458999999761,333,,,,756.7494999999999,757.2486000000238,756.2227000000478,756.7493000000716,754.1601000000239,756.2225000000001,757.2486000000238,757.7484999999999,757.7486000000238,761.3902000000478,3062,761.3903000000716,5,762.3798000000716,0,29,29,6,1,1,0.7,Time
,,czr,001,f,20,2025-06-03_18h59.27.766,Serial_Dependence_U,2023.2.3,Win32,60.240963855400565,,,,,,762.380100000024,290,1,907.3216000000239,290,s,144.9185,,911.5688000000714,912.0633000000714,911.034899999976,911.5687000000476,908.3522000000476,911.034899999976,912.0633000000714,912.5628000000715,912.5628000000715,916.2177000000477,3047,916.2177000000477,5,916.2183000000714,1,0,30,14,1,1.6,0.3,Time
,,czr,001,f,20,2025-06-03_18h59.27.766,Serial_Dependence_U,2023.2.3,Win32,60.240963855400565,,,,,,916.2188000000715,250,1,916.2207000000476,250,,,,920.4492000000475,920.944,919.9159999999999,920.4491000000237,917.2507000000476,919.9158000000714,920.944,921.4483000000714,921.4483999999761,925.1168999999761,3206,925.117,5,925.1173999999762,1,1,31,4,1,1.6,0.3,Time
,,czr,001,f,20,2025-06-03_18h59.27.766,Serial_Dependence_U,2023.2.3,Win32,60.240963855400565,,,,,,925.1178999999761,354,1,925.1181000000238,354,,,,929.1283000000715,929.6282000000476,928.6199999999999,929.1282000000476,926.1393999999761,928.6198000000716,929.6282000000476,930.1271000000238,930.1271000000238,933.1577000000477,2644,933.1578000000716,5,933.1582000000476,1,2,32,3,1,1.4,0.3,Time
,,czr,001,f,20,2025-06-03_18h59.27.766,Serial_Dependence_U,2023.2.3,Win32,60.240963855400565,,,,,,933.1587000000477,125,1,933.158899999976,125,,,,936.9488000000715,937.443399999976,936.4388000000715,936.9488000000715,934.1653999999762,936.4386000000238,937.443399999976,937.9438999999761,937.944,941.2823999999762,2991,941.2823999999762,5,941.2828000000716,1,3,33,2,1,1.2,0.3,Time
,,czr,001,f,20,2025-06-03_18h59.27.766,Serial_Dependence_U,2023.2.3,Win32,60.240963855400565,,,,,,941.2833000000714,321,1,941.2835,321,,,,944.844,945.327399999976,944.3376000000237,944.8438000000715,942.2998999999761,944.3373000000715,945.3274999999999,945.8101000000238,945.8102000000476,951.4686000000238,2835,951.4686000000238,5,951.4688999999762,1,4,34,6,1,1,0.7,Time
,,czr,001,f,20,2025-06-03_18h59.27.766,Serial_Dependence_U,2023.2.3,Win32,60.240963855400565,,,,,,951.4693000000714,72,1,951.4693999999761,72,,,,955.4518999999761,955.9431000000238,954.9487000000477,955.4518000000714,952.482,954.9486000000238,955.9431000000238,956.4598000000715,956.4598000000715,959.6218000000715,2668,959.6218000000715,5,959.6222000000475,1,5,35,23,1,1.4,0.3,Time
,,czr,001,f,20,2025-06-03_18h59.27.766,Serial_Dependence_U,2023.2.3,Win32,60.240963855400565,,,,,,959.6226000000238,303,1,959.6228000000715,303,,,,963.2265,963.7281000000237,962.7004999999999,963.2263999999761,960.6127000000477,962.7004999999999,963.7282000000475,964.2096000000238,964.2096000000238,967.038399999976,2414,967.0384999999999,5,967.0388999999761,1,6,36,11,1,1,0.3,Time
,,czr,001,f,20,2025-06-03_18h59.27.766,Serial_Dependence_U,2023.2.3,Win32,60.240963855400565,,,,,,967.0393000000715,216,1,967.0394999999999,216,,,,970.8528999999762,971.3446000000238,970.3143999999761,970.8527000000477,968.0521000000238,970.3143000000714,971.3446000000238,971.8239999999998,971.8241000000237,974.8709999999999,2536,974.8711000000237,5,974.8716000000238,1,7,37,12,1,1.2,0.3,Time
,,czr,001,f,20,2025-06-03_18h59.27.766,Serial_Dependence_U,2023.2.3,Win32,60.240963855400565,,,,,,974.8721000000237,327,1,974.8722000000475,327,,,,978.2657000000477,978.7613999999762,977.7361000000237,978.2656000000238,975.874399999976,977.735899999976,978.7614999999998,979.2591000000239,979.2591000000239,981.3247000000476,1242,981.3248000000715,5,981.3253000000714,1,8,38,10,1,0.8,0.3,Time
,,czr,001,f,20,2025-06-03_18h59.27.766,Serial_Dependence_U,2023.2.3,Win32,60.240963855400565,,,,,,981.3258000000715,208,1,981.3261000000239,208,,,,984.6763000000715,985.1758000000714,984.1598000000715,984.6761000000238,982.3183000000715,984.1597000000477,985.1758000000714,985.6869999999999,985.6871000000237,989.2845,3051,989.2846000000238,5,989.284899999976,1,9,39,15,1,0.8,0.7,Time
,,czr,001,f,20,2025-06-03_18h59.27.766,Serial_Dependence_U,2023.2.3,Win32,60.240963855400565,,,,,,989.2853000000714,173,1,989.2855,173,,,,993.2161000000237,993.7103000000716,992.71,993.2159999999999,990.2762000000475,992.7097000000476,993.7103999999761,994.2004999999999,994.2004999999999,997.7546000000239,3200,997.7547000000477,5,997.7549999999999,1,10,40,28,1,1.4,0.7,Time
,,czr,001,f,20,2025-06-03_18h59.27.766,Serial_Dependence_U,2023.2.3,Win32,60.240963855400565,,,,,,997.7555,303,1,997.7557000000477,303,,,,1001.1657000000475,1001.6441000000239,1000.619899999976,1001.1656000000237,998.7637000000477,1000.619899999976,1001.6441000000239,1002.143399999976,1002.1434999999999,1004.7326000000237,2047,1004.7327000000475,5,1004.733,1,11,41,5,1,0.8,0.7,Time
,,czr,001,f,20,2025-06-03_18h59.27.766,Serial_Dependence_U,2023.2.3,Win32,60.240963855400565,,,,,,1004.7335,140,1,1004.7337000000477,140,,,,1008.6987000000477,1009.1938000000714,1008.1663000000715,1008.6986000000238,1005.7318000000714,1008.1661000000238,1009.1938000000714,1009.6771000000238,1009.6771000000238,1012.5258000000715,2265,1012.5258999999762,5,1012.5263000000714,1,12,42,18,1,1.4,0.7,Time
,,czr,001,f,20,2025-06-03_18h59.27.766,Serial_Dependence_U,2023.2.3,Win32,60.240963855400565,,,,,,1012.5267000000476,27,1,1012.527,27,,,,1016.0922000000476,1016.595399999976,1015.5826000000238,1016.0919999999999,1013.5171000000239,1015.5823999999761,1016.595399999976,1017.0913000000714,1017.0913999999761,1019.5822000000476,2035,1019.5822000000476,5,1019.5826000000238,1,13,43,21,1,1,0.3,Time
,,czr,001,f,20,2025-06-03_18h59.27.766,Serial_Dependence_U,2023.2.3,Win32,60.240963855400565,,,,,,1019.5831000000237,77,1,1019.5833999999761,77,,,,1023.341899999976,1023.8432000000475,1022.8309999999999,1023.3418000000715,1020.5992000000476,1022.830899999976,1023.8433000000714,1024.3246000000238,1024.3246000000238,1027.4322000000477,2546,1027.4323000000716,5,1027.4328000000714,1,14,44,7,1,1.2,0.7,Time
,,czr,001,f,20,2025-06-03_18h59.27.766,Serial_Dependence_U,2023.2.3,Win32,60.240963855400565,,,,,,1027.4332000000477,11,1,1027.4334999999999,11,,,,1031.3987000000477,1031.924399999976,1030.8931000000239,1031.3985,1028.4481000000237,1030.893,1031.924399999976,1032.425600000024,1032.425600000024,1035.0582000000477,2326,1035.0582000000477,5,1035.0588000000714,1,15,45,8,1,1.4,0.7,Time
,,czr,001,f,20,2025-06-03_18h59.27.766,Serial_Dependence_U,2023.2.3,Win32,60.240963855400565,,,,,,1035.0593000000715,339,1,1035.0594999999998,339,,,,1038.649899999976,1039.1595,1038.1248999999762,1038.6498000000715,1036.048,1038.1248000000714,1039.1595,1039.6407000000477,1039.6408000000715,1040.2326000000237,118,1040.232899999976,1,1040.2335,1,16,46,1,1,1,0.3,Time
,,czr,001,f,20,2025-06-03_18h59.27.766,Serial_Dependence_U,2023.2.3,Win32,60.240963855400565,,,,,,1040.2343999999762,174,1,1040.2348000000716,174,,,,1044.4485,1044.9406000000238,1043.9247000000476,1044.4483999999761,1041.2636000000239,1043.9244999999999,1044.9407000000476,1045.4385,1045.4385,1047.8532000000475,2154,1047.8532000000475,5,1047.8536000000238,1,17,47,24,1,1.6,0.3,Time
,,czr,001,f,20,2025-06-03_18h59.27.766,Serial_Dependence_U,2023.2.3,Win32,60.240963855400565,,,,,,1047.854100000024,167,1,1047.8543000000716,167,,,,1051.4155,1051.9155,1050.9078000000716,1051.4153999999762,1048.8742000000477,1050.9077000000477,1051.9156000000237,1052.4257000000475,1052.4258000000714,1055.2018000000714,2366,1055.2018999999761,5,1055.2022000000477,1,18,48,26,1,1,0.7,Time
,,czr,001,f,20,2025-06-03_18h59.27.766,Serial_Dependence_U,2023.2.3,Win32,60.240963855400565,,,,,,1055.2027000000476,50,1,1055.203,50,,,,1058.6493000000714,1059.1402000000476,1058.104,1058.648899999976,1056.2314999999999,1058.1038000000715,1059.1402000000476,1059.629,1059.629,1060.7187000000476,189,1060.7188000000715,1,1060.7192000000477,1,19,49,0,1,0.8,0.3,Time
,,czr,001,f,20,2025-06-03_18h59.27.766,Serial_Dependence_U,2023.2.3,Win32,60.240963855400565,,,,,,1060.7196000000238,219,1,1060.7198999999762,219,,,,1064.3162000000477,1064.791899999976,1063.8058000000715,1064.3161000000239,1061.7633999999762,1063.8057000000476,1064.791899999976,1065.2933000000714,1065.2933999999761,1068.1045,2367,1068.1046000000238,5,1068.1048999999762,1,20,50,16,1,1,0.7,Time
,,czr,001,f,20,2025-06-03_18h59.27.766,Serial_Dependence_U,2023.2.3,Win32,60.240963855400565,,,,,,1068.1056000000237,349,1,1068.1057000000476,349,,,,1072.2391000000239,1072.7231000000238,1071.7341000000238,1072.239,1069.088,1071.733899999976,1072.7232000000477,1073.2157000000477,1073.2158000000716,1076.1476000000239,2556,1076.1476000000239,5,1076.1481000000238,1,21,51,29,1,1.6,0.7,Time
,,czr,001,f,20,2025-06-03_18h59.27.766,Serial_Dependence_U,2023.2.3,Win32,60.240963855400565,,,,,,1076.1485,102,1,1076.1486000000239,102,,,,1079.9473000000714,1080.4228999999762,1079.4458000000716,1079.9472000000476,1077.1734999999999,1079.4457000000477,1080.423,1080.924899999976,1080.924899999976,1083.1481000000238,2145,1083.1481000000238,5,1083.1485,1,22,52,22,1,1.2,0.3,Time
,,czr,001,f,20,2025-06-03_18h59.27.766,Serial_Dependence_U,2023.2.3,Win32,60.240963855400565,,,,,,1083.1488000000716,68,1,1083.149,68,,,,1087.2822000000476,1087.790899999976,1086.7663000000714,1087.2821000000238,1084.1302000000476,1086.7661000000237,1087.791,1088.2726000000239,1088.2728000000716,1091.167899999976,2580,1091.167899999976,5,1091.1683000000714,1,23,53,9,1,1.6,0.7,Time
,,czr,001,f,20,2025-06-03_18h59.27.766,Serial_Dependence_U,2023.2.3,Win32,60.240963855400565,,,,,,1091.1687000000477,335,1,1091.1689999999999,335,,,,1094.584,1095.0738999999762,1094.0575,1094.5838000000715,1092.1928999999761,1094.057399999976,1095.0739999999998,1095.5726000000238,1095.5727000000477,1096.1575,116,1096.1575,1,1096.157899999976,1,24,54,20,1,0.8,0.3,Time
,,czr,001,f,20,2025-06-03_18h59.27.766,Serial_Dependence_U,2023.2.3,Win32,60.240963855400565,,,,,,1096.1586000000239,88,1,1096.1587000000477,88,,,,1100.3343000000714,1100.824399999976,1099.8233999999761,1100.3343000000714,1097.1826000000237,1099.8232000000476,1100.824399999976,1101.2896000000237,1101.2896000000237,1104.4302000000475,2783,1104.4302000000475,5,1104.4305,1,25,55,19,1,1.6,0.7,Time
,,czr,001,f,20,2025-06-03_18h59.27.766,Serial_Dependence_U,2023.2.3,Win32,60.240963855400565,,,,,,1104.431,101,1,1104.4313000000716,101,,,,1108.3944999999999,1108.876,1107.8809999999999,1108.394399999976,1105.4128999999762,1107.8809999999999,1108.876,1109.355399999976,1109.355399999976,1110.1612000000475,147,1110.1613000000714,1,1110.1618999999762,1,26,56,13,1,1.4,0.3,Time
,,czr,001,f,20,2025-06-03_18h59.27.766,Serial_Dependence_U,2023.2.3,Win32,60.240963855400565,,,,,,1110.1627000000476,58,1,1110.1631000000239,58,,,,1113.5286000000237,1114.0238000000716,1113.0062000000476,1113.5285,1111.168899999976,1113.0061000000237,1114.0238000000716,1114.5053999999761,1114.5053999999761,1117.750399999976,2853,1117.750399999976,5,1117.7507000000476,1,27,57,25,1,0.8,0.7,Time
,,czr,001,f,20,2025-06-03_18h59.27.766,Serial_Dependence_U,2023.2.3,Win32,60.240963855400565,,,,,,1117.7513000000715,23,1,1117.751399999976,23,,,,1121.5157000000477,1122.0091000000239,1120.9972000000475,1121.5156000000238,1118.7661000000237,1120.9971000000237,1122.0091000000239,1122.4888000000715,1122.4888000000715,1126.2568999999762,2883,1126.2571000000237,5,1126.2575,1,28,58,27,1,1.2,0.7,Time
,,czr,001,f,20,2025-06-03_18h59.27.766,Serial_Dependence_U,2023.2.3,Win32,60.240963855400565,,,,,,1126.258,315,1,1126.2583000000716,315,,,,1130.0497000000476,1130.556,1129.5447000000477,1130.0497000000476,1127.2892000000477,1129.5445,1130.556100000024,1131.055399999976,1131.055399999976,1133.6019999999999,1939,1133.6019999999999,5,1133.6023000000714,1,29,59,17,1,1.2,0.7,Time
,,czr,001,f,20,2025-06-03_18h59.27.766,Serial_Dependence_U,2023.2.3,Win32,60.240963855400565,,,,,,1133.6027000000477,88,2,1264.5396000000237,88,s,130.91420000004769,,1267.9326000000237,1268.4343999999762,1267.406600000024,1267.9325,1265.5311000000238,1267.4065,1268.4343999999762,1268.9343000000715,1268.9343000000715,1270.3367000000476,919,1270.3368000000714,4,1270.3371000000238,2,0,60,20,1,0.8,0.3,Time
,,czr,001,f,20,2025-06-03_18h59.27.766,Serial_Dependence_U,2023.2.3,Win32,60.240963855400565,,,,,,1270.3377000000476,161,2,1270.3395,161,,,,1273.7582000000477,1274.252600000024,1273.2192000000477,1273.758100000024,1271.3513999999761,1273.2188999999762,1274.252600000024,1274.7532000000476,1274.7533000000715,1276.4987000000476,1257,1276.4988000000715,5,1276.4992000000477,2,1,61,10,1,0.8,0.3,Time
,,czr,001,f,20,2025-06-03_18h59.27.766,Serial_Dependence_U,2023.2.3,Win32,60.240963855400565,,,,,,1276.4998000000714,218,2,1276.5001000000238,218,,,,1279.8506000000239,1280.3508000000716,1279.3287000000475,1279.8506000000239,1277.493600000024,1279.3287000000475,1280.3508000000716,1280.8368000000714,1280.8368999999761,1282.6862000000476,1428,1282.6863000000715,5,1282.6867000000477,2,2,62,25,1,0.8,0.7,Time
,,czr,001,f,20,2025-06-03_18h59.27.766,Serial_Dependence_U,2023.2.3,Win32,60.240963855400565,,,,,,1282.6873999999762,132,2,1282.6877000000477,132,,,,1286.8613999999761,1287.3527000000477,1286.3363000000716,1286.8613000000714,1283.6965,1286.3362000000477,1287.3527000000477,1287.8338999999762,1287.8342000000475,1291.6178000000714,3209,1291.617899999976,5,1291.6182000000476,2,3,63,29,1,1.6,0.7,Time
,,czr,001,f,20,2025-06-03_18h59.27.766,Serial_Dependence_U,2023.2.3,Win32,60.240963855400565,,,,,,1291.6187000000477,206,2,1291.6188000000716,206,,,,1295.7922000000476,1296.2852000000476,1295.2833000000714,1295.7921000000238,1292.6011000000237,1295.283,1296.2852000000476,1296.7759999999998,1296.7762000000475,1299.0288999999761,1912,1299.0288999999761,4,1299.029399999976,2,4,64,14,1,1.6,0.3,Time
,,czr,001,f,20,2025-06-03_18h59.27.766,Serial_Dependence_U,2023.2.3,Win32,60.240963855400565,,,,,,1299.0298000000714,55,2,1299.0298999999761,55,,,,1302.9945,1303.4848000000716,1302.4921000000238,1302.9943999999762,1300.004,1302.491899999976,1303.4848000000716,1303.966899999976,1303.966899999976,1306.2907000000475,1956,1306.2907000000475,5,1306.2912000000476,2,5,65,13,1,1.4,0.3,Time
,,czr,001,f,20,2025-06-03_18h59.27.766,Serial_Dependence_U,2023.2.3,Win32,60.240963855400565,,,,,,1306.2917000000477,8,2,1306.2918000000716,8,,,,1309.859899999976,1310.368,1309.3508000000716,1309.8597000000477,1307.2842000000476,1309.3507000000477,1310.3681000000238,1310.85,1310.85,1312.7078000000715,1367,1312.707899999976,5,1312.708399999976,2,6,66,11,1,1,0.3,Time
,,czr,001,f,20,2025-06-03_18h59.27.766,Serial_Dependence_U,2023.2.3,Win32,60.240963855400565,,,,,,1312.7091000000237,116,2,1312.709399999976,116,,,,1316.9415,1317.4344999999998,1316.4071000000238,1316.9415,1313.7177000000477,1316.406899999976,1317.4344999999998,1317.934899999976,1317.934899999976,1320.2907000000475,1978,1320.2908000000714,4,1320.2912000000476,2,7,67,24,1,1.6,0.3,Time
,,czr,001,f,20,2025-06-03_18h59.27.766,Serial_Dependence_U,2023.2.3,Win32,60.240963855400565,,,,,,1320.2915,188,2,1320.2917000000477,188,,,,1324.0351000000237,1324.5336000000239,1323.5112000000477,1324.0349999999999,1321.274,1323.511,1324.5336000000239,1325.0336000000239,1325.0337000000477,1327.0227000000477,1534,1327.0227000000477,4,1327.023,2,8,68,27,1,1.2,0.7,Time
,,czr,001,f,20,2025-06-03_18h59.27.766,Serial_Dependence_U,2023.2.3,Win32,60.240963855400565,,,,,,1327.0233999999762,221,2,1327.0236000000239,221,,,,1330.5923999999761,1331.099899999976,1330.0668999999762,1330.5923000000714,1328.0333000000714,1330.0667000000476,1331.099899999976,1331.6001000000238,1331.6002000000476,1334.298399999976,2366,1334.2984999999999,5,1334.299,2,9,69,26,1,1,0.7,Time
,,czr,001,f,20,2025-06-03_18h59.27.766,Serial_Dependence_U,2023.2.3,Win32,60.240963855400565,,,,,,1334.2994999999999,169,2,1334.2998000000714,169,,,,1338.3016000000239,1338.7828000000716,1337.7894999999999,1338.3013999999762,1335.305,1337.789399999976,1338.7828000000716,1339.2843000000714,1339.2843999999761,1341.4083000000714,1735,1341.4083000000714,4,1341.4086000000239,2,10,70,23,1,1.4,0.3,Time
,,czr,001,f,20,2025-06-03_18h59.27.766,Serial_Dependence_U,2023.2.3,Win32,60.240963855400565,,,,,,1341.4092000000476,162,2,1341.4093999999761,162,,,,1344.8065,1345.300600000024,1344.267,1344.8063000000716,1342.4228999999762,1344.2668999999762,1345.300600000024,1345.799899999976,1345.8,1348.2238000000714,2227,1348.223899999976,5,1348.2242000000476,2,11,71,15,1,0.8,0.7,Time
,,czr,001,f,20,2025-06-03_18h59.27.766,Serial_Dependence_U,2023.2.3,Win32,60.240963855400565,,,,,,1348.2246000000239,260,2,1348.2248000000716,260,,,,1351.8056000000238,1352.3097000000475,1351.2994999999999,1351.8055,1349.2365,1351.299399999976,1352.3098000000714,1352.8172000000477,1352.8172000000477,1354.6767000000477,1463,1354.6767000000477,5,1354.6771000000238,2,12,72,1,1,1,0.3,Time
,,czr,001,f,20,2025-06-03_18h59.27.766,Serial_Dependence_U,2023.2.3,Win32,60.240963855400565,,,,,,1354.6776000000239,124,2,1354.6778000000716,124,,,,1358.4553999999762,1358.9321000000239,1357.9431000000238,1358.4553000000715,1355.6598000000715,1357.9428999999761,1358.9321000000239,1359.4343000000715,1359.4343999999762,1362.855399999976,2887,1362.855399999976,5,1362.8558000000714,2,13,73,2,1,1.2,0.3,Time
,,czr,001,f,20,2025-06-03_18h59.27.766,Serial_Dependence_U,2023.2.3,Win32,60.240963855400565,,,,,,1362.8562000000477,84,2,1362.856399999976,84,,,,1366.8243000000714,1367.316,1366.3203000000715,1366.8241000000237,1363.8725,1366.3201000000238,1367.316,1367.8152000000475,1367.8153000000714,1371.0165,2733,1371.0165,5,1371.0168999999762,2,14,74,28,1,1.4,0.7,Time
,,czr,001,f,20,2025-06-03_18h59.27.766,Serial_Dependence_U,2023.2.3,Win32,60.240963855400565,,,,,,1371.0173000000714,295,2,1371.0177000000476,295,,,,1375.2255,1375.7208000000714,1374.708399999976,1375.2253999999762,1372.0575,1374.7082000000476,1375.7208000000714,1376.2165,1376.2166000000238,1379.2897000000476,2825,1379.2898000000714,5,1379.2903000000715,2,15,75,9,1,1.6,0.7,Time
,,czr,001,f,20,2025-06-03_18h59.27.766,Serial_Dependence_U,2023.2.3,Win32,60.240963855400565,,,,,,1379.2908000000714,177,2,1379.2911000000238,177,,,,1383.0887000000475,1383.5813999999762,1382.5823000000714,1383.0886000000237,1380.3246000000238,1382.5822000000476,1383.5813999999762,1384.072,1384.0723000000714,1386.4383999999761,1933,1386.4386000000238,5,1386.438899999976,2,16,76,17,1,1.2,0.7,Time
,,czr,001,f,20,2025-06-03_18h59.27.766,Serial_Dependence_U,2023.2.3,Win32,60.240963855400565,,,,,,1386.439399999976,109,2,1386.4396000000238,109,,,,1390.2751000000237,1390.7628000000714,1389.748399999976,1390.274899999976,1387.4502000000477,1389.7482000000477,1390.7628000000714,1391.266399999976,1391.266399999976,1391.7098999999762,101,1391.71,1,1391.710399999976,2,17,77,12,1,1.2,0.3,Time
,,czr,001,f,20,2025-06-03_18h59.27.766,Serial_Dependence_U,2023.2.3,Win32,60.240963855400565,,,,,,1391.711,358,2,1391.7112000000477,358,,,,1395.2785,1395.7813999999762,1394.7759999999998,1395.278399999976,1392.7212000000477,1394.7758999999762,1395.7815,1396.2643999999761,1396.2645,1398.8122000000476,2054,1398.8122000000476,5,1398.8126000000238,2,18,78,6,1,1,0.7,Time
,,czr,001,f,20,2025-06-03_18h59.27.766,Serial_Dependence_U,2023.2.3,Win32,60.240963855400565,,,,,,1398.8129999999999,119,2,1398.8132000000476,119,,,,1402.9722000000477,1403.4655,1402.4576000000238,1402.9722000000477,1399.8246000000238,1402.4573000000714,1403.4655,1403.9473000000714,1403.9473999999761,1406.8252000000477,2438,1406.8252000000477,5,1406.8256000000238,2,19,79,19,1,1.6,0.7,Time
,,czr,001,f,20,2025-06-03_18h59.27.766,Serial_Dependence_U,2023.2.3,Win32,60.240963855400565,,,,,,1406.8261000000239,148,2,1406.826399999976,148,,,,1410.6465,1411.1473000000715,1410.120899999976,1410.6463999999762,1407.8882000000476,1410.1207000000477,1411.1473999999762,1411.6472000000476,1411.6473000000715,1414.2472000000475,2267,1414.2473000000714,5,1414.2476000000238,2,20,80,7,1,1.2,0.7,Time
,,czr,001,f,20,2025-06-03_18h59.27.766,Serial_Dependence_U,2023.2.3,Win32,60.240963855400565,,,,,,1414.248,157,2,1414.2483000000714,157,,,,1417.6215,1418.1153000000716,1417.101899999976,1417.6213999999761,1415.2213000000716,1417.1018000000715,1418.1153000000716,1418.6161000000238,1418.6162000000477,1419.9473999999761,914,1419.9475,4,1419.9478000000715,2,21,81,0,1,0.8,0.3,Time
,,czr,001,f,20,2025-06-03_18h59.27.766,Serial_Dependence_U,2023.2.3,Win32,60.240963855400565,,,,,,1419.9483000000714,96,2,1419.9485,96,,,,1423.5159999999998,1424.0156000000238,1423.0092000000477,1423.515899999976,1420.9712000000477,1423.009,1424.0156000000238,1424.5313999999762,1424.5315,1426.656899999976,1652,1426.657,5,1426.6573999999762,2,22,82,16,1,1,0.7,Time
,,czr,001,f,20,2025-06-03_18h59.27.766,Serial_Dependence_U,2023.2.3,Win32,60.240963855400565,,,,,,1426.6578000000716,293,2,1426.6581000000238,293,,,,1430.6633000000716,1431.1655,1430.1363999999762,1430.6632000000477,1427.6652000000477,1430.1363000000715,1431.1655,1431.6653000000715,1431.6655,1434.571,2569,1434.571,5,1434.5713000000715,2,23,83,8,1,1.4,0.7,Time
,,czr,001,f,20,2025-06-03_18h59.27.766,Serial_Dependence_U,2023.2.3,Win32,60.240963855400565,,,,,,1434.5718000000716,156,2,1434.5721000000237,156,,,,1437.932,1438.416600000024,1437.4305,1437.932,1435.5873000000715,1437.4303000000714,1438.4167000000477,1438.9136000000237,1438.9137000000476,1440.7543000000715,1517,1440.7543999999762,5,1440.7547000000477,2,24,84,5,1,0.8,0.7,Time
,,czr,001,f,20,2025-06-03_18h59.27.766,Serial_Dependence_U,2023.2.3,Win32,60.240963855400565,,,,,,1440.7551000000237,44,2,1440.7553999999761,44,,,,1444.7045,1445.1983999999761,1444.19,1444.7043999999762,1441.7496000000237,1444.1898000000715,1445.1983999999761,1445.6796000000238,1445.6796000000238,1448.0371000000239,1979,1448.0372000000477,5,1448.037399999976,2,25,85,18,1,1.4,0.7,Time
,,czr,001,f,20,2025-06-03_18h59.27.766,Serial_Dependence_U,2023.2.3,Win32,60.240963855400565,,,,,,1448.038,345,2,1448.0382000000477,345,,,,1451.6298000000716,1452.133399999976,1451.1207000000477,1451.6298000000716,1449.0533999999761,1451.1206000000238,1452.1335,1452.6293999999762,1452.6296000000239,1453.087,56,1453.0872000000477,1,1453.0878000000714,2,26,86,21,1,1,0.3,Time
,,czr,001,f,20,2025-06-03_18h59.27.766,Serial_Dependence_U,2023.2.3,Win32,60.240963855400565,,,,,,1453.0888000000714,20,2,1453.0892000000476,20,,,,1457.2701000000238,1457.7681000000239,1456.7636000000239,1457.2701000000238,1454.0866000000237,1456.7633000000715,1457.7681000000239,1458.2648000000715,1458.264899999976,1459.3374999999999,278,1459.3376000000237,1,1459.3378999999761,2,27,87,4,1,1.6,0.3,Time
,,czr,001,f,20,2025-06-03_18h59.27.766,Serial_Dependence_U,2023.2.3,Win32,60.240963855400565,,,,,,1459.3384999999998,280,2,1459.3386000000237,280,,,,1463.1441000000239,1463.6461000000238,1462.6388000000716,1463.144,1460.363100000024,1462.6387000000477,1463.6462000000477,1464.1473000000715,1464.1473000000715,1464.6538000000714,160,1464.6538999999761,1,1464.6542000000477,2,28,88,22,1,1.2,0.3,Time
,,czr,001,f,20,2025-06-03_18h59.27.766,Serial_Dependence_U,2023.2.3,Win32,60.240963855400565,,,,,,1464.6548999999761,103,2,1464.6552000000477,103,,,,1468.6895,1469.1837000000476,1468.1536000000237,1468.689399999976,1465.6696000000238,1468.153399999976,1469.1838000000714,1469.678899999976,1469.678899999976,1470.1802000000475,71,1470.1803000000714,1,1470.1808000000715,2,29,89,3,1,1.4,0.3,Time
,,czr,001,f,20,2025-06-03_18h59.27.766,Serial_Dependence_U,2023.2.3,Win32,60.240963855400565,,,,,,1470.1813000000716,44,3,1580.9108999999762,44,s,110.70610000002375,,1585.067,1585.561,1584.5656000000238,1585.0668000000715,1581.9173000000715,1584.565399999976,1585.5611000000238,1586.0529999999999,1586.0531000000237,1588.8538999999762,2239,1588.854,5,1588.854399999976,3,0,90,29,1,1.6,0.7,Time
,,czr,001,f,20,2025-06-03_18h59.27.766,Serial_Dependence_U,2023.2.3,Win32,60.240963855400565,,,,,,1588.8547000000476,173,3,1588.8567000000476,173,,,,1592.216899999976,1592.709,1591.715,1592.2168000000715,1589.882399999976,1591.714899999976,1592.709,1593.1923000000716,1593.192399999976,1595.0265,1439,1595.0266000000238,5,1595.027100000024,3,1,91,15,1,0.8,0.7,Time
,,czr,001,f,20,2025-06-03_18h59.27.766,Serial_Dependence_U,2023.2.3,Win32,60.240963855400565,,,,,,1595.0276000000238,8,3,1595.0278999999762,8,,,,1598.4489999999998,1598.9421000000239,1597.9476000000238,1598.4488999999762,1596.065,1597.9475,1598.9421000000239,1599.4473000000714,1599.4473000000714,1600.9453999999762,67,1600.945600000024,1,1600.945899999976,3,2,92,10,1,0.8,0.3,Time
,,czr,001,f,20,2025-06-03_18h59.27.766,Serial_Dependence_U,2023.2.3,Win32,60.240963855400565,,,,,,1600.9463000000715,89,3,1600.9465,89,,,,1605.1603000000714,1605.6643000000715,1604.6487000000477,1605.1602000000476,1601.957899999976,1604.6486000000239,1605.664399999976,1606.1602000000476,1606.1602000000476,1608.2116000000237,1601,1608.2117000000476,3,1608.2121000000238,3,3,93,4,1,1.6,0.3,Time
,,czr,001,f,20,2025-06-03_18h59.27.766,Serial_Dependence_U,2023.2.3,Win32,60.240963855400565,,,,,,1608.2124999999999,254,3,1608.2127000000476,254,,,,1612.0096000000237,1612.4955,1611.492899999976,1612.009399999976,1609.2492000000477,1611.4928000000714,1612.4955,1612.998100000024,1612.9982000000477,1615.7253000000715,2066,1615.7253999999762,5,1615.7258000000716,3,4,94,17,1,1.2,0.7,Time
,,czr,001,f,20,2025-06-03_18h59.27.766,Serial_Dependence_U,2023.2.3,Win32,60.240963855400565,,,,,,1615.7263000000714,98,3,1615.7265,98,,,,1619.6983000000714,1620.1933000000715,1619.1817000000476,1619.6981000000237,1616.7187000000476,1619.1815,1620.1933000000715,1620.6751000000238,1620.6751000000238,1621.2661000000237,92,1621.2662000000475,1,1621.2665,3,5,95,23,1,1.4,0.3,Time
,,czr,001,f,20,2025-06-03_18h59.27.766,Serial_Dependence_U,2023.2.3,Win32,60.240963855400565,,,,,,1621.267,63,3,1621.2673000000714,63,,,,1624.8745,1625.3764999999999,1624.369899999976,1624.8741000000239,1622.2978000000714,1624.3698000000716,1625.3764999999999,1625.8748000000714,1625.8748000000714,1626.4185,159,1626.4185,1,1626.418899999976,3,6,96,1,1,1,0.3,Time
,,czr,001,f,20,2025-06-03_18h59.27.766,Serial_Dependence_U,2023.2.3,Win32,60.240963855400565,,,,,,1626.4193000000714,100,3,1626.4197000000477,100,,,,1629.753899999976,1630.2437000000477,1629.252600000024,1629.7537000000477,1627.4018000000715,1629.2523999999762,1630.2437000000477,1630.7471000000237,1630.7471000000237,1633.3926000000238,2277,1633.3926000000238,5,1633.3928999999762,3,7,97,5,1,0.8,0.7,Time
,,czr,001,f,20,2025-06-03_18h59.27.766,Serial_Dependence_U,2023.2.3,Win32,60.240963855400565,,,,,,1633.393399999976,346,3,1633.3936000000238,346,,,,1637.337,1637.8245,1636.827399999976,1637.3368999999761,1634.392399999976,1636.8273000000715,1637.8245,1638.318399999976,1638.3184999999999,1641.5265,2410,1641.5266000000238,5,1641.5268999999762,3,8,98,8,1,1.4,0.7,Time
,,czr,001,f,20,2025-06-03_18h59.27.766,Serial_Dependence_U,2023.2.3,Win32,60.240963855400565,,,,,,1641.5275,171,3,1641.5277000000476,171,,,,1645.1022000000476,1645.5908000000716,1644.5858999999762,1645.1021000000237,1642.5318000000714,1644.5858000000715,1645.5908000000716,1646.0797000000475,1646.0797000000475,1649.6422000000475,2764,1649.6423000000714,5,1649.6426000000238,3,9,99,6,1,1,0.7,Time
,,czr,001,f,20,2025-06-03_18h59.27.766,Serial_Dependence_U,2023.2.3,Win32,60.240963855400565,,,,,,1649.6432000000477,206,3,1649.6435,206,,,,1653.3973999999762,1653.877600000024,1652.8852000000477,1653.3973000000715,1650.6452000000477,1652.885,1653.8777000000475,1654.3808000000715,1654.380899999976,1657.1303000000714,2057,1657.1303999999761,5,1657.1308000000715,3,10,100,27,1,1.2,0.7,Time
,,czr,001,f,20,2025-06-03_18h59.27.766,Serial_Dependence_U,2023.2.3,Win32,60.240963855400565,,,,,,1657.1312000000476,61,3,1657.1315,61,,,,1660.5433999999761,1661.0403000000715,1660.0188000000715,1660.5433999999761,1658.1633000000716,1660.0186000000238,1661.0403000000715,1661.5276000000238,1661.5276000000238,1662.8407000000477,114,1662.8408000000716,1,1662.8412000000476,3,11,101,25,1,0.8,0.7,Time
,,czr,001,f,20,2025-06-03_18h59.27.766,Serial_Dependence_U,2023.2.3,Win32,60.240963855400565,,,,,,1662.8417000000477,355,3,1662.841899999976,355,,,,1666.4182000000476,1666.9147000000476,1665.9093000000714,1666.4181000000237,1663.8437000000476,1665.9091000000237,1666.9147000000476,1667.4417000000476,1667.4418999999762,1668.1691000000237,175,1668.1692000000476,1,1668.1693999999761,3,12,102,21,1,1,0.3,Time
,,czr,001,f,20,2025-06-03_18h59.27.766,Serial_Dependence_U,2023.2.3,Win32,60.240963855400565,,,,,,1668.1698000000715,10,3,1668.1699999999998,10,,,,1671.959399999976,1672.4598000000715,1671.4473000000714,1671.9593000000714,1669.1822000000477,1671.4472000000476,1672.4598000000715,1672.9585,1672.9585,1675.9471000000237,2499,1675.9472000000476,5,1675.9476000000238,3,13,103,7,1,1.2,0.7,Time
,,czr,001,f,20,2025-06-03_18h59.27.766,Serial_Dependence_U,2023.2.3,Win32,60.240963855400565,,,,,,1675.9479999999999,300,3,1675.9482000000476,300,,,,1679.5132000000476,1680.0077000000476,1679.0011000000238,1679.513,1676.9675,1679.0008000000714,1680.0078000000715,1680.5252000000476,1680.5253000000714,1683.2461000000237,2115,1683.2461000000237,5,1683.2465,3,14,104,26,1,1,0.7,Time
,,czr,001,f,20,2025-06-03_18h59.27.766,Serial_Dependence_U,2023.2.3,Win32,60.240963855400565,,,,,,1683.2468000000715,99,3,1683.2469999999998,99,,,,1687.2403000000716,1687.7235,1686.7308000000714,1687.2402000000477,1684.245,1686.7307000000476,1687.7235,1688.2243999999762,1688.2243999999762,1688.7097000000476,141,1688.7098999999762,1,1688.7103000000716,3,15,105,3,1,1.4,0.3,Time
,,czr,001,f,20,2025-06-03_18h59.27.766,Serial_Dependence_U,2023.2.3,Win32,60.240963855400565,,,,,,1688.7107000000476,230,3,1688.7108999999762,230,,,,1692.1127000000477,1692.6415,1691.5743000000714,1692.1125,1689.7008000000715,1691.5742000000475,1692.6415,1693.1409999999998,1693.1409999999998,1693.6147000000476,1,1693.6148000000715,1,1693.6151000000239,3,16,106,0,1,0.8,0.3,Time
,,czr,001,f,20,2025-06-03_18h59.27.766,Serial_Dependence_U,2023.2.3,Win32,60.240963855400565,,,,,,1693.6156000000237,331,3,1693.6157000000476,331,,,,1697.798399999976,1698.2777000000476,1697.2843000000714,1697.7983000000715,1694.645899999976,1697.2841000000237,1698.2777000000476,1698.7561000000237,1698.7562000000476,1701.481,2394,1701.4811000000238,5,1701.481399999976,3,17,107,9,1,1.6,0.7,Time
,,czr,001,f,20,2025-06-03_18h59.27.766,Serial_Dependence_U,2023.2.3,Win32,60.240963855400565,,,,,,1701.4818999999761,99,3,1701.4821000000238,99,,,,1705.4505,1705.9451000000238,1704.9297000000477,1705.450399999976,1702.4956000000238,1704.9296000000238,1705.9452000000476,1706.4392000000475,1706.4392000000475,1709.7635,2838,1709.7635,5,1709.763899999976,3,18,108,28,1,1.4,0.7,Time
,,czr,001,f,20,2025-06-03_18h59.27.766,Serial_Dependence_U,2023.2.3,Win32,60.240963855400565,,,,,,1709.7643999999761,226,3,1709.7646000000238,226,,,,1713.3905,1713.8911000000237,1712.8803999999761,1713.3903999999761,1710.778399999976,1712.8802000000476,1713.8911000000237,1714.388899999976,1714.389,1714.9328999999761,116,1714.933,1,1714.9333000000715,3,19,109,11,1,1,0.3,Time
,,czr,001,f,20,2025-06-03_18h59.27.766,Serial_Dependence_U,2023.2.3,Win32,60.240963855400565,,,,,,1714.9337000000476,350,3,1714.9338999999761,350,,,,1718.7898999999761,1719.2908000000714,1718.2733000000715,1718.7898999999761,1715.9906000000237,1718.2731000000238,1719.2908000000714,1719.7891000000238,1719.7892000000477,1720.3772000000477,122,1720.3772000000477,1,1720.377600000024,3,20,110,22,1,1.2,0.3,Time
,,czr,001,f,20,2025-06-03_18h59.27.766,Serial_Dependence_U,2023.2.3,Win32,60.240963855400565,,,,,,1720.3781000000238,76,3,1720.3782000000476,76,,,,1724.5858000000715,1725.077,1724.0688000000714,1724.5857000000476,1721.3899999999999,1724.0687000000476,1725.077,1725.5722000000476,1725.5722000000476,1726.0608000000714,79,1726.0611000000238,1,1726.0617000000477,3,21,111,14,1,1.6,0.3,Time
,,czr,001,f,20,2025-06-03_18h59.27.766,Serial_Dependence_U,2023.2.3,Win32,60.240963855400565,,,,,,1726.0625,216,3,1726.062899999976,216,,,,1729.622399999976,1730.1219999999998,1729.1188000000716,1729.6223000000714,1727.0772000000477,1729.1187000000477,1730.1219999999998,1730.6238000000715,1730.6238000000715,1732.8313000000715,1771,1732.8316000000239,5,1732.8323999999761,3,22,112,16,1,1,0.7,Time
,,czr,001,f,20,2025-06-03_18h59.27.766,Serial_Dependence_U,2023.2.3,Win32,60.240963855400565,,,,,,1732.8328000000715,90,3,1732.8331000000237,90,,,,1736.2292000000477,1736.725899999976,1735.7155,1736.229100000024,1733.8455,1735.7152000000476,1736.725899999976,1737.2218000000714,1737.2218999999761,1738.0627000000477,302,1738.0628000000715,1,1738.0631000000237,3,23,113,20,1,0.8,0.3,Time
,,czr,001,f,20,2025-06-03_18h59.27.766,Serial_Dependence_U,2023.2.3,Win32,60.240963855400565,,,,,,1738.0637000000477,318,3,1738.063899999976,318,,,,1742.0541000000237,1742.5383000000716,1741.546,1742.0541000000237,1739.09,1741.5458000000715,1742.538399999976,1743.039399999976,1743.039399999976,1745.168899999976,1803,1745.1689999999999,4,1745.1693000000714,3,24,114,18,1,1.4,0.7,Time
,,czr,001,f,20,2025-06-03_18h59.27.766,Serial_Dependence_U,2023.2.3,Win32,60.240963855400565,,,,,,1745.1697000000477,307,3,1745.1699999999998,307,,,,1749.3718000000715,1749.8743000000716,1748.8395,1749.3717000000477,1746.1612000000475,1748.8393000000715,1749.8743000000716,1750.3727000000476,1750.3728000000715,1750.866399999976,120,1750.8664999999999,1,1750.8668000000714,3,25,115,24,1,1.6,0.3,Time
,,czr,001,f,20,2025-06-03_18h59.27.766,Serial_Dependence_U,2023.2.3,Win32,60.240963855400565,,,,,,1750.8672000000477,295,3,1750.8673000000715,295,,,,1754.9955,1755.4945,1754.4821000000238,1754.9953000000714,1751.8477000000476,1754.4818999999761,1755.4945,1755.993,1755.9931000000238,1758.3581000000238,2015,1758.3581000000238,4,1758.358600000024,3,26,116,19,1,1.6,0.7,Time
,,czr,001,f,20,2025-06-03_18h59.27.766,Serial_Dependence_U,2023.2.3,Win32,60.240963855400565,,,,,,1758.3591000000238,275,3,1758.3596000000239,275,,,,1762.369,1762.8377000000476,1761.8609999999999,1762.368899999976,1759.3786000000239,1761.8609999999999,1762.8377000000476,1763.3315,1763.3315,1763.7811000000238,103,1763.7812000000476,1,1763.7815,3,27,117,13,1,1.4,0.3,Time
,,czr,001,f,20,2025-06-03_18h59.27.766,Serial_Dependence_U,2023.2.3,Win32,60.240963855400565,,,,,,1763.782,193,3,1763.7822000000476,193,,,,1767.5964999999999,1768.0923999999761,1767.0797000000475,1767.596399999976,1764.805,1767.0795,1768.0923999999761,1768.5707000000477,1768.5707000000477,1770.2231000000238,1195,1770.2232000000477,3,1770.2235,3,28,118,2,1,1.2,0.3,Time
,,czr,001,f,20,2025-06-03_18h59.27.766,Serial_Dependence_U,2023.2.3,Win32,60.240963855400565,,,,,,1770.224,90,3,1770.2243000000715,90,,,,1774.0148000000715,1774.4937000000477,1773.5052000000476,1774.0147000000477,1771.2265,1773.5049999999999,1774.4937000000477,1774.971,1774.971,1775.53,1,1775.5301000000238,1,1775.530399999976,3,29,119,12,1,1.2,0.3,Time
,,czr,001,f,20,2025-06-03_18h59.27.766,Serial_Dependence_U,2023.2.3,Win32,60.240963855400565,,,,,,1775.530899999976,134,4,1954.4560000000001,134,s,178.90360000002374,,1958.0504999999998,1958.5324999999998,1957.4940000000001,1958.0503000000713,1955.449,1957.4938000000716,1958.5324999999998,1959.0352000000476,1959.0353000000714,1961.7579999999998,2177,1961.7581000000237,5,1961.758399999976,4,0,120,6,1,1,0.7,Time
,,czr,001,f,20,2025-06-03_18h59.27.766,Serial_Dependence_U,2023.2.3,Win32,60.240963855400565,,,,,,1961.7588000000715,199,4,1961.7606000000237,199,,,,1965.5367000000479,1966.0504999999998,1965.0228999999763,1965.536600000024,1962.7894999999999,1965.0228000000716,1966.0504999999998,1966.554100000024,1966.554100000024,1969.3580000000002,2471,1969.3581000000236,5,1969.358399999976,4,1,121,27,1,1.2,0.7,Time
,,czr,001,f,20,2025-06-03_18h59.27.766,Serial_Dependence_U,2023.2.3,Win32,60.240963855400565,,,,,,1969.358899999976,238,4,1969.3591000000238,238,,,,1973.5403000000715,1974.0337000000477,1973.0081000000237,1973.5402000000477,1970.3628000000713,1973.0079999999998,1974.0338000000716,1974.5324999999998,1974.5326000000236,1977.529,2352,1977.529,5,1977.5293999999762,4,2,122,29,1,1.6,0.7,Time
,,czr,001,f,20,2025-06-03_18h59.27.766,Serial_Dependence_U,2023.2.3,Win32,60.240963855400565,,,,,,1977.5297000000478,49,4,1977.5299999999997,49,,,,1981.3501000000238,1981.848600000024,1980.8177000000478,1981.35,1978.5462000000475,1980.817600000024,1981.848600000024,1982.353,1982.353,1983.2058999999763,143,1983.2058999999763,1,1983.2064999999998,4,3,123,22,1,1.2,0.3,Time
,,czr,001,f,20,2025-06-03_18h59.27.766,Serial_Dependence_U,2023.2.3,Win32,60.240963855400565,,,,,,1983.2071000000237,142,4,1983.2073000000714,142,,,,1986.6365,1987.132,1986.132600000024,1986.6363999999762,1984.2592000000477,1986.1325000000002,1987.132100000024,1987.614899999976,1987.614899999976,1988.3258999999762,170,1988.3258999999762,1,1988.3263999999763,4,4,124,0,1,0.8,0.3,Time
,,czr,001,f,20,2025-06-03_18h59.27.766,Serial_Dependence_U,2023.2.3,Win32,60.240963855400565,,,,,,1988.3268000000717,102,4,1988.3269999999998,102,,,,1991.9043000000715,1992.3993000000714,1991.3883000000715,1991.9041000000238,1989.340100000024,1991.3883000000715,1992.3993999999761,1992.8813000000714,1992.8813000000714,1995.5378999999762,2092,1995.538,5,1995.5387000000478,4,5,125,26,1,1,0.7,Time
,,czr,001,f,20,2025-06-03_18h59.27.766,Serial_Dependence_U,2023.2.3,Win32,60.240963855400565,,,,,,1995.5391000000236,174,4,1995.539399999976,174,,,,1999.5394999999999,2000.0336000000239,1999.0144999999998,1999.539399999976,1996.5765000000001,1999.014399999976,2000.0336000000239,2000.5311000000238,2000.5311000000238,2003.4392000000475,2456,2003.4393000000714,5,2003.4397000000477,4,6,126,18,1,1.4,0.7,Time
,,czr,001,f,20,2025-06-03_18h59.27.766,Serial_Dependence_U,2023.2.3,Win32,60.240963855400565,,,,,,2003.440100000024,223,4,2003.4403999999763,223,,,,2007.6081000000236,2008.0823999999761,2007.1046000000238,2007.6078999999763,2004.4495000000002,2007.1045,2008.0823999999761,2008.5865,2008.5865,2011.6601000000237,2722,2011.6602000000476,5,2011.660399999976,4,7,127,19,1,1.6,0.7,Time
,,czr,001,f,20,2025-06-03_18h59.27.766,Serial_Dependence_U,2023.2.3,Win32,60.240963855400565,,,,,,2011.6608000000715,180,4,2011.661,180,,,,2015.4818999999761,2015.9825,2014.9723000000713,2015.4818000000714,2012.6978000000713,2014.9722000000475,2015.982600000024,2016.4477000000475,2016.4477000000475,2019.3044999999997,2557,2019.3046000000236,5,2019.3053000000714,4,8,128,7,1,1.2,0.7,Time
,,czr,001,f,20,2025-06-03_18h59.27.766,Serial_Dependence_U,2023.2.3,Win32,60.240963855400565,,,,,,2019.3058000000715,271,4,2019.306,271,,,,2022.694600000024,2023.1506000000236,2022.1878000000715,2022.6945,2020.3097000000475,2022.1876000000238,2023.1506000000236,2023.6472000000476,2023.6473000000715,2024.8377000000478,680,2024.8378000000716,2,2024.8381000000236,4,9,129,20,1,0.8,0.3,Time
,,czr,001,f,20,2025-06-03_18h59.27.766,Serial_Dependence_U,2023.2.3,Win32,60.240963855400565,,,,,,2024.8386000000237,58,4,2024.8388000000714,58,,,,2028.4415,2028.930399999976,2027.9232000000475,2028.441399999976,2025.8893000000717,2027.9229999999998,2028.930399999976,2029.4139999999998,2029.4139999999998,2031.7916000000237,1893,2031.7916000000237,5,2031.791899999976,4,10,130,16,1,1,0.7,Time
,,czr,001,f,20,2025-06-03_18h59.27.766,Serial_Dependence_U,2023.2.3,Win32,60.240963855400565,,,,,,2031.793100000024,241,4,2031.7933000000717,241,,,,2036.0298000000716,2036.5301000000236,2035.5037000000475,2036.029600000024,2032.8416000000238,2035.5034999999998,2036.5301000000236,2037.0136000000239,2037.0137000000477,2037.5391000000236,146,2037.5391000000236,1,2037.5394999999999,4,11,131,24,1,1.6,0.3,Time
,,czr,001,f,20,2025-06-03_18h59.27.766,Serial_Dependence_U,2023.2.3,Win32,60.240963855400565,,,,,,2037.54,31,4,2037.5402000000477,31,,,,2040.9002000000478,2041.380100000024,2040.3935000000001,2040.900100000024,2038.5483000000713,2040.3933999999763,2041.380100000024,2041.8635,2041.8637000000476,2044.2107000000478,1979,2044.2108000000717,5,2044.2112000000475,4,12,132,25,1,0.8,0.7,Time
,,czr,001,f,20,2025-06-03_18h59.27.766,Serial_Dependence_U,2023.2.3,Win32,60.240963855400565,,,,,,2044.2117000000476,307,4,2044.2118000000714,307,,,,2047.6043000000714,2048.133,2047.0713999999762,2047.6042000000475,2045.2362000000476,2047.0712000000476,2048.133,2048.6323999999763,2048.6325,2050.8398999999763,1575,2050.840100000024,5,2050.8405,4,13,133,5,1,0.8,0.7,Time
,,czr,001,f,20,2025-06-03_18h59.27.766,Serial_Dependence_U,2023.2.3,Win32,60.240963855400565,,,,,,2050.841,137,4,2050.8412000000476,137,,,,2054.7875,2055.2812000000476,2054.2783000000713,2054.787399999976,2051.834899999976,2054.2781000000236,2055.2813000000715,2055.762899999976,2055.763,2058.2588000000715,2048,2058.2588000000715,5,2058.2592000000477,4,14,134,28,1,1.4,0.7,Time
,,czr,001,f,20,2025-06-03_18h59.27.766,Serial_Dependence_U,2023.2.3,Win32,60.240963855400565,,,,,,2058.2595,134,4,2058.2598000000717,134,,,,2062.0798000000714,2062.5834999999997,2061.5743999999763,2062.0798000000714,2059.2873000000714,2061.5742000000478,2062.5834999999997,2063.063399999976,2063.063399999976,2063.5033000000717,100,2063.5035,1,2063.504,4,15,135,2,1,1.2,0.3,Time
,,czr,001,f,20,2025-06-03_18h59.27.766,Serial_Dependence_U,2023.2.3,Win32,60.240963855400565,,,,,,2063.504600000024,327,4,2063.5048999999763,327,,,,2066.908,2067.3961000000236,2066.4023999999763,2066.908,2064.5138000000716,2066.4023000000716,2067.3961000000236,2067.91,2067.91,2068.3578999999763,136,2068.3578999999763,1,2068.3582000000474,4,16,136,10,1,0.8,0.3,Time
,,czr,001,f,20,2025-06-03_18h59.27.766,Serial_Dependence_U,2023.2.3,Win32,60.240963855400565,,,,,,2068.3587000000475,246,4,2068.3588000000714,246,,,,2071.7208000000714,2072.196,2071.219,2071.7207000000476,2069.3797000000477,2071.2188000000715,2072.196,2072.6976000000236,2072.6977000000475,2074.8418000000715,1821,2074.8418000000715,5,2074.8423000000716,4,17,137,15,1,0.8,0.7,Time
,,czr,001,f,20,2025-06-03_18h59.27.766,Serial_Dependence_U,2023.2.3,Win32,60.240963855400565,,,,,,2074.8427000000474,237,4,2074.842899999976,237,,,,2078.8297000000475,2079.3123000000714,2078.324,2078.8297000000475,2075.8368000000714,2078.3238000000715,2079.312399999976,2079.7998999999763,2079.7998999999763,2080.287,26,2080.2871000000237,1,2080.2878000000715,4,18,138,13,1,1.4,0.3,Time
,,czr,001,f,20,2025-06-03_18h59.27.766,Serial_Dependence_U,2023.2.3,Win32,60.240963855400565,,,,,,2080.2883999999763,247,4,2080.2888000000717,247,,,,2084.4971000000237,2084.9793000000714,2083.996,2084.497,2081.3223000000717,2083.9958000000715,2084.979399999976,2085.4622000000477,2085.4623000000715,2086.0955,109,2086.0955,1,2086.096100000024,4,19,139,4,1,1.6,0.3,Time
,,czr,001,f,20,2025-06-03_18h59.27.766,Serial_Dependence_U,2023.2.3,Win32,60.240963855400565,,,,,,2086.096600000024,69,4,2086.0968000000717,69,,,,2090.0908000000713,2090.5963999999763,2089.589,2090.0907000000475,2087.1193000000717,2089.588899999976,2090.5965,2091.098,2091.098100000024,2091.6933000000713,212,2091.693399999976,1,2091.6937000000476,4,20,140,3,1,1.4,0.3,Time
,,czr,001,f,20,2025-06-03_18h59.27.766,Serial_Dependence_U,2023.2.3,Win32,60.240963855400565,,,,,,2091.694,29,4,2091.6942000000477,29,,,,2095.3697000000475,2095.8632000000475,2094.8358000000717,2095.3697000000475,2092.761100000024,2094.835600000024,2095.8632000000475,2096.366100000024,2096.366100000024,2097.412399999976,275,2097.4125,1,2097.412899999976,4,21,141,1,1,1,0.3,Time
,,czr,001,f,20,2025-06-03_18h59.27.766,Serial_Dependence_U,2023.2.3,Win32,60.240963855400565,,,,,,2097.413600000024,38,4,2097.4139999999998,38,,,,2101.0518999999763,2101.5285,2100.520600000024,2101.0518000000716,2098.437,2100.5205,2101.5285,2102.0118999999763,2102.0118999999763,2102.5208999999763,168,2102.5208999999763,1,2102.5213000000713,4,22,142,21,1,1,0.3,Time
,,czr,001,f,20,2025-06-03_18h59.27.766,Serial_Dependence_U,2023.2.3,Win32,60.240963855400565,,,,,,2102.5216000000237,340,4,2102.522600000024,340,,,,2106.7027000000476,2107.1962000000476,2106.1691000000237,2106.7026000000237,2103.52,2106.168899999976,2107.1962000000476,2107.661700000048,2107.6618000000713,2110.7908999999763,2800,2110.791,5,2110.791399999976,4,23,143,9,1,1.6,0.7,Time
,,czr,001,f,20,2025-06-03_18h59.27.766,Serial_Dependence_U,2023.2.3,Win32,60.240963855400565,,,,,,2110.792,306,4,2110.7921000000238,306,,,,2114.411899999976,2114.9297000000474,2113.9025,2114.4118000000713,2111.8048000000713,2113.9023999999763,2114.9297000000474,2115.4467000000477,2115.4467000000477,2117.569100000024,1733,2117.569100000024,5,2117.5695,4,24,144,11,1,1,0.3,Time
,,czr,001,f,20,2025-06-03_18h59.27.766,Serial_Dependence_U,2023.2.3,Win32,60.240963855400565,,,,,,2117.5698999999763,124,4,2117.570100000024,124,,,,2121.6261000000236,2122.128399999976,2121.1014999999998,2121.625899999976,2118.625,2121.101399999976,2122.1285,2122.6118999999762,2122.612,2123.1098000000716,151,2123.1098999999763,1,2123.110200000048,4,25,145,23,1,1.4,0.3,Time
,,czr,001,f,20,2025-06-03_18h59.27.766,Serial_Dependence_U,2023.2.3,Win32,60.240963855400565,,,,,,2123.111,269,4,2123.1113000000714,269,,,,2127.087600000024,2127.5776000000237,2126.5723000000717,2127.0875,2124.116,2126.5718000000716,2127.5776000000237,2128.069399999976,2128.069399999976,2131.6956000000237,3163,2131.6957000000475,5,2131.696,4,26,146,8,1,1.4,0.7,Time
,,czr,001,f,20,2025-06-03_18h59.27.766,Serial_Dependence_U,2023.2.3,Win32,60.240963855400565,,,,,,2131.6965,261,4,2131.696600000024,261,,,,2135.486399999976,2135.9791000000237,2134.968,2135.4862000000476,2132.737,2134.967899999976,2135.9791000000237,2136.4655,2136.4656000000236,2138.785600000024,1906,2138.785600000024,5,2138.786,4,27,147,17,1,1.2,0.7,Time
,,czr,001,f,20,2025-06-03_18h59.27.766,Serial_Dependence_U,2023.2.3,Win32,60.240963855400565,,,,,,2138.7863999999763,222,4,2138.786600000024,222,,,,2142.6008999999763,2143.1073000000715,2142.085,2142.6008000000716,2139.7945,2142.0848000000715,2143.107399999976,2143.6123999999763,2143.6124999999997,2144.1196000000236,151,2144.1198000000713,1,2144.1203000000714,4,28,148,12,1,1.2,0.3,Time
,,czr,001,f,20,2025-06-03_18h59.27.766,Serial_Dependence_U,2023.2.3,Win32,60.240963855400565,,,,,,2144.121100000024,151,4,2144.121399999976,151,,,,2148.3015,2148.777,2147.786600000024,2148.3013000000715,2145.1214999999997,2147.7865,2148.777100000024,2149.2788000000714,2149.2788000000714,2151.5351000000237,2047,2151.5351000000237,4,2151.5355,4,29,149,14,1,1.6,0.3,Time
,,czr,001,f,20,2025-06-03_18h59.27.766,Serial_Dependence_U,2023.2.3,Win32,60.240963855400565,,,,,,2151.535899999976,37,5,2295.4313000000716,37,s,143.87089999997625,,2299.002399999976,2299.5087000000476,2298.492399999976,2299.0023000000715,2296.439899999976,2298.4921000000236,2299.5087000000476,2300.006399999976,2300.006399999976,2302.447,1902,2302.447100000024,5,2302.4476000000236,5,0,150,16,1,1,0.7,Time
,,czr,001,f,20,2025-06-03_18h59.27.766,Serial_Dependence_U,2023.2.3,Win32,60.240963855400565,,,,,,2302.4481000000237,257,5,2302.4501000000237,257,,,,2306.208200000048,2306.7129999999997,2305.683600000024,2306.208,2303.449,2305.6835,2306.7131000000236,2307.1895,2307.189600000024,2309.786100000024,2123,2309.7862000000478,5,2309.786600000024,5,1,151,27,1,1.2,0.7,Time
,,czr,001,f,20,2025-06-03_18h59.27.766,Serial_Dependence_U,2023.2.3,Win32,60.240963855400565,,,,,,2309.786899999976,208,5,2309.7872000000475,208,,,,2313.1378000000714,2313.6295,2312.6298999999763,2313.1377000000475,2310.7968000000715,2312.629600000024,2313.629600000024,2314.1225,2314.122600000024,2316.3997000000477,1690,2316.3998000000715,5,2316.4008000000713,5,2,152,5,1,0.8,0.7,Time
,,czr,001,f,20,2025-06-03_18h59.27.766,Serial_Dependence_U,2023.2.3,Win32,60.240963855400565,,,,,,2316.4011000000237,58,5,2316.4012000000475,58,,,,2319.799,2320.307399999976,2319.285600000024,2319.7988000000714,2317.4133999999763,2319.2855,2320.307399999976,2320.81,2320.810100000024,2321.294899999976,131,2321.295100000024,1,2321.2956000000236,5,3,153,10,1,0.8,0.3,Time
,,czr,001,f,20,2025-06-03_18h59.27.766,Serial_Dependence_U,2023.2.3,Win32,60.240963855400565,,,,,,2321.2962000000475,79,5,2321.296399999976,79,,,,2325.456200000048,2325.9411000000237,2324.945399999976,2325.456,2322.3044999999997,2324.9453000000713,2325.9412000000475,2326.4223000000716,2326.4223000000716,2329.469600000024,2559,2329.469700000048,5,2329.47,5,4,154,9,1,1.6,0.7,Time
,,czr,001,f,20,2025-06-03_18h59.27.766,Serial_Dependence_U,2023.2.3,Win32,60.240963855400565,,,,,,2329.4705,135,5,2329.4707000000476,135,,,,2333.4323000000713,2333.9238000000714,2332.9081000000238,2333.4321000000236,2330.459399999976,2332.9081000000238,2333.923899999976,2334.405399999976,2334.4055,2336.863899999976,2045,2336.864,5,2336.8643000000716,5,5,155,8,1,1.4,0.7,Time
,,czr,001,f,20,2025-06-03_18h59.27.766,Serial_Dependence_U,2023.2.3,Win32,60.240963855400565,,,,,,2336.864700000048,86,5,2336.864899999976,86,,,,2340.6536000000237,2341.138600000024,2340.139100000024,2340.6535,2337.8811000000237,2340.139,2341.138600000024,2341.6388999999763,2341.6388999999763,2344.3798999999763,2422,2344.3798999999763,5,2344.380200000048,5,6,156,17,1,1.2,0.7,Time
,,czr,001,f,20,2025-06-03_18h59.27.766,Serial_Dependence_U,2023.2.3,Win32,60.240963855400565,,,,,,2344.3806000000236,213,5,2344.3808000000713,213,,,,2348.5625,2349.0572000000475,2348.0373000000714,2348.5625,2345.3887000000477,2348.0371000000237,2349.0572000000475,2349.5562000000477,2349.5563000000716,2352.8831000000237,2812,2352.8832000000475,5,2352.8836000000238,5,7,157,29,1,1.6,0.7,Time
,,czr,001,f,20,2025-06-03_18h59.27.766,Serial_Dependence_U,2023.2.3,Win32,60.240963855400565,,,,,,2352.883899999976,318,5,2352.884100000024,318,,,,2356.488899999976,2356.975,2355.9798000000715,2356.4888000000715,2353.882100000024,2355.9797000000476,2356.975,2357.479899999976,2357.48,2358.1753000000713,161,2358.1753000000713,1,2358.1756000000237,5,8,158,21,1,1,0.3,Time
,,czr,001,f,20,2025-06-03_18h59.27.766,Serial_Dependence_U,2023.2.3,Win32,60.240963855400565,,,,,,2358.176,288,5,2358.1762000000476,288,,,,2361.5171000000237,2362.0397000000476,2361.0065,2361.516899999976,2359.1626000000238,2361.0065,2362.0397000000476,2362.526399999976,2362.5265,2364.8953999999762,1816,2364.8955,5,2364.8959999999997,5,9,159,15,1,0.8,0.7,Time
,,czr,001,f,20,2025-06-03_18h59.27.766,Serial_Dependence_U,2023.2.3,Win32,60.240963855400565,,,,,,2364.8965,306,5,2364.8967000000475,306,,,,2368.4723000000713,2368.9712000000477,2367.962899999976,2368.4723000000713,2365.907,2367.962700000048,2368.9712000000477,2369.4712000000477,2369.4713000000716,2371.854899999976,2009,2371.855,5,2371.8553000000716,5,10,160,6,1,1,0.7,Time
,,czr,001,f,20,2025-06-03_18h59.27.766,Serial_Dependence_U,2023.2.3,Win32,60.240963855400565,,,,,,2371.855899999976,97,5,2371.8561000000236,97,,,,2375.8455,2376.3375,2375.3117000000475,2375.845399999976,2372.8373000000715,2375.3116000000236,2376.337600000024,2376.839100000024,2376.8392000000476,2380.193899999976,2798,2380.194,5,2380.194399999976,5,11,161,18,1,1.4,0.7,Time
,,czr,001,f,20,2025-06-03_18h59.27.766,Serial_Dependence_U,2023.2.3,Win32,60.240963855400565,,,,,,2380.1948999999763,103,5,2380.195100000024,103,,,,2384.004,2384.504399999976,2383.478100000024,2384.004,2381.2122000000477,2383.478,2384.504399999976,2385.0228999999763,2385.0228999999763,2385.710700000048,44,2385.710700000048,1,2385.7111000000236,5,12,162,12,1,1.2,0.3,Time
,,czr,001,f,20,2025-06-03_18h59.27.766,Serial_Dependence_U,2023.2.3,Win32,60.240963855400565,,,,,,2385.7115,60,5,2385.7117000000476,60,,,,2389.1607000000477,2389.6552000000474,2388.6425,2389.1607000000477,2386.7443000000717,2388.6423000000714,2389.6552000000474,2390.137399999976,2390.137399999976,2390.555600000024,44,2390.5557000000476,1,2390.556,5,13,163,20,1,0.8,0.3,Time
,,czr,001,f,20,2025-06-03_18h59.27.766,Serial_Dependence_U,2023.2.3,Win32,60.240963855400565,,,,,,2390.5563999999763,308,5,2390.556600000024,308,,,,2394.5685,2395.072399999976,2394.060100000024,2394.5685,2391.571,2394.06,2395.072399999976,2395.5616000000236,2395.5616000000236,2396.087,133,2396.0872000000477,1,2396.0875,5,14,164,23,1,1.4,0.3,Time
,,czr,001,f,20,2025-06-03_18h59.27.766,Serial_Dependence_U,2023.2.3,Win32,60.240963855400565,,,,,,2396.0882000000474,212,5,2396.088399999976,212,,,,2400.0788999999763,2400.5743000000716,2399.5668000000715,2400.0788000000716,2397.1304999999998,2399.5666000000238,2400.5743000000716,2401.073600000024,2401.0737000000477,2403.5302000000474,2212,2403.5303000000713,5,2403.5308000000714,5,15,165,28,1,1.4,0.7,Time
,,czr,001,f,20,2025-06-03_18h59.27.766,Serial_Dependence_U,2023.2.3,Win32,60.240963855400565,,,,,,2403.531399999976,101,5,2403.5317000000477,101,,,,2406.9603000000716,2407.436899999976,2406.4278000000713,2406.960100000024,2404.5543000000716,2406.4276000000236,2407.436899999976,2407.9416000000238,2407.9416000000238,2408.5293999999762,1,2408.5293999999762,1,2408.5298000000716,5,16,166,0,1,0.8,0.3,Time
,,czr,001,f,20,2025-06-03_18h59.27.766,Serial_Dependence_U,2023.2.3,Win32,60.240963855400565,,,,,,2408.5303000000713,263,5,2408.530399999976,263,,,,2412.554100000024,2413.0553000000714,2412.048,2412.5538999999762,2409.5803000000715,2412.047700000048,2413.0553000000714,2413.553600000024,2413.5537000000477,2414.532,96,2414.532100000024,1,2414.532399999976,5,17,167,13,1,1.4,0.3,Time
,,czr,001,f,20,2025-06-03_18h59.27.766,Serial_Dependence_U,2023.2.3,Win32,60.240963855400565,,,,,,2414.533,155,5,2414.5333000000714,155,,,,2418.371200000048,2418.853100000024,2417.843,2418.371100000024,2415.555,2417.843,2418.853100000024,2419.3424999999997,2419.3424999999997,2419.9775,266,2419.9775,1,2419.977899999976,5,18,168,2,1,1.2,0.3,Time
,,czr,001,f,20,2025-06-03_18h59.27.766,Serial_Dependence_U,2023.2.3,Win32,60.240963855400565,,,,,,2419.9783000000716,317,5,2419.9785,317,,,,2423.5834999999997,2424.086899999976,2423.0608999999763,2423.5833999999763,2420.9892000000477,2423.0607000000477,2424.086899999976,2424.570200000048,2424.570200000048,2425.170899999976,111,2425.170899999976,1,2425.1713000000714,5,19,169,11,1,1,0.3,Time
,,czr,001,f,20,2025-06-03_18h59.27.766,Serial_Dependence_U,2023.2.3,Win32,60.240963855400565,,,,,,2425.1717000000476,350,5,2425.171899999976,350,,,,2429.326600000024,2429.802899999976,2428.8251000000237,2429.3265,2426.1778000000713,2428.8248000000713,2429.802899999976,2430.3028000000713,2430.302899999976,2430.960899999976,201,2430.960899999976,1,2430.9613000000713,5,20,170,19,1,1.6,0.7,Time
,,czr,001,f,20,2025-06-03_18h59.27.766,Serial_Dependence_U,2023.2.3,Win32,60.240963855400565,,,,,,2430.9617000000476,217,5,2430.9618000000714,217,,,,2435.194,2435.6878000000715,2434.671,2435.193899999976,2432.0048000000716,2434.6708000000713,2435.6878999999763,2436.169399999976,2436.169399999976,2436.8485,227,2436.848600000024,1,2436.8488000000716,5,21,171,24,1,1.6,0.3,Time
,,czr,001,f,20,2025-06-03_18h59.27.766,Serial_Dependence_U,2023.2.3,Win32,60.240963855400565,,,,,,2436.849200000048,168,5,2436.8493000000713,168,,,,2441.0373000000714,2441.5191000000236,2440.5344999999998,2441.0373000000714,2437.858,2440.534399999976,2441.5191000000236,2442.0208999999763,2442.0208999999763,2443.1427000000476,963,2443.1428000000715,1,2443.143100000024,5,22,172,14,1,1.6,0.3,Time
,,czr,001,f,20,2025-06-03_18h59.27.766,Serial_Dependence_U,2023.2.3,Win32,60.240963855400565,,,,,,2443.1435,192,5,2443.143700000048,192,,,,2447.0087000000476,2447.5023000000715,2446.4693000000716,2447.0085,2444.1928000000717,2446.4692000000477,2447.5023000000715,2448.0067000000477,2448.0067000000477,2449.5215,1147,2449.5217000000475,3,2449.521899999976,5,23,173,22,1,1.2,0.3,Time
,,czr,001,f,20,2025-06-03_18h59.27.766,Serial_Dependence_U,2023.2.3,Win32,60.240963855400565,,,,,,2449.522399999976,153,5,2449.522600000024,153,,,,2453.536899999976,2454.0383000000716,2453.031100000024,2453.536700000048,2450.553600000024,2453.030899999976,2454.0383999999763,2454.5396000000237,2454.5397000000476,2455.029100000024,125,2455.029100000024,1,2455.0293999999762,5,24,174,3,1,1.4,0.3,Time
,,czr,001,f,20,2025-06-03_18h59.27.766,Serial_Dependence_U,2023.2.3,Win32,60.240963855400565,,,,,,2455.0298000000716,343,5,2455.0298000000716,343,,,,2458.796399999976,2459.2853000000714,2458.275399999976,2458.796399999976,2456.0358000000715,2458.2753000000716,2459.2853000000714,2459.7907000000478,2459.7908000000716,2462.5707000000475,2479,2462.5707000000475,5,2462.5711000000238,5,25,175,7,1,1.2,0.7,Time
,,czr,001,f,20,2025-06-03_18h59.27.766,Serial_Dependence_U,2023.2.3,Win32,60.240963855400565,,,,,,2462.5715,180,5,2462.571600000024,180,,,,2466.2084999999997,2466.685100000024,2465.6762000000476,2466.2084999999997,2463.5791000000236,2465.676,2466.685100000024,2467.1852000000476,2467.1853000000715,2468.5775,901,2468.5776000000237,2,2468.577899999976,5,26,176,1,1,1,0.3,Time
,,czr,001,f,20,2025-06-03_18h59.27.766,Serial_Dependence_U,2023.2.3,Win32,60.240963855400565,,,,,,2468.578399999976,213,5,2468.5785,213,,,,2472.1753000000713,2472.67,2471.652700000048,2472.1752000000474,2469.608399999976,2471.6525,2472.67,2473.1567000000477,2473.1567000000477,2475.513399999976,1987,2475.5135,5,2475.5138999999763,5,27,177,26,1,1,0.7,Time
,,czr,001,f,20,2025-06-03_18h59.27.766,Serial_Dependence_U,2023.2.3,Win32,60.240963855400565,,,,,,2475.5143000000717,204,5,2475.5144999999998,204,,,,2478.86,2479.353600000024,2478.3543000000714,2478.8598999999763,2476.5093999999763,2478.3542000000475,2479.353600000024,2479.8348000000715,2479.834899999976,2482.203,1875,2482.203100000024,5,2482.203399999976,5,28,178,25,1,0.8,0.7,Time
,,czr,001,f,20,2025-06-03_18h59.27.766,Serial_Dependence_U,2023.2.3,Win32,60.240963855400565,,,,,,2482.204,31,5,2482.2042000000474,31,,,,2486.4133000000716,2486.9028000000717,2485.9023999999763,2486.4132000000477,2483.235100000024,2485.902100000024,2486.902899999976,2487.4012000000475,2487.4013000000714,2487.9257000000475,162,2487.9258000000714,1,2487.926100000024,5,29,179,4,1,1.6,0.3,Time
,,czr,001,f,20,2025-06-03_18h59.27.766,Serial_Dependence_U,2023.2.3,Win32,60.240963855400565,,,,,,2487.926600000024,167,6,2631.588399999976,167,s,143.63850000000002,,2635.0043000000715,2635.4972000000475,2634.471700000048,2635.0042000000476,2632.587700000048,2634.471600000024,2635.4972000000475,2635.9996000000237,2635.9997000000476,2637.793200000048,1355,2637.793200000048,5,2637.7934999999998,6,0,180,10,1,0.8,0.3,Time
,,czr,001,f,20,2025-06-03_18h59.27.766,Serial_Dependence_U,2023.2.3,Win32,60.240963855400565,,,,,,2637.793899999976,149,6,2637.7955,149,,,,2641.5652000000478,2642.0653999999763,2641.063399999976,2641.565100000024,2638.8092000000474,2641.063,2642.0653999999763,2642.5645,2642.5645,2645.122,2004,2645.1221000000237,5,2645.1225,6,1,181,27,1,1.2,0.7,Time
,,czr,001,f,20,2025-06-03_18h59.27.766,Serial_Dependence_U,2023.2.3,Win32,60.240963855400565,,,,,,2645.1228000000715,85,6,2645.123,85,,,,2648.5378000000715,2649.031600000024,2647.994100000024,2648.5377000000476,2646.1162000000477,2647.994,2649.031600000024,2649.5133000000715,2649.513399999976,2651.3471000000236,1546,2651.3472000000475,5,2651.3475,6,2,182,0,1,0.8,0.3,Time
,,czr,001,f,20,2025-06-03_18h59.27.766,Serial_Dependence_U,2023.2.3,Win32,60.240963855400565,,,,,,2651.347899999976,60,6,2651.3482000000477,60,,,,2654.9693999999763,2655.463399999976,2654.425899999976,2654.9693000000716,2652.3473000000713,2654.4258000000714,2655.463399999976,2655.9653000000717,2655.9653000000717,2658.215200000048,2088,2658.215200000048,5,2658.2155,6,3,183,21,1,1,0.3,Time
,,czr,001,f,20,2025-06-03_18h59.27.766,Serial_Dependence_U,2023.2.3,Win32,60.240963855400565,,,,,,2658.216,158,6,2658.2162000000476,158,,,,2662.0035,2662.4835,2661.4868000000715,2662.003399999976,2659.2373999999763,2661.486600000024,2662.4835,2662.963399999976,2662.9635,2665.6543999999762,2283,2665.6545,5,2665.6548000000716,6,4,184,7,1,1.2,0.7,Time
,,czr,001,f,20,2025-06-03_18h59.27.766,Serial_Dependence_U,2023.2.3,Win32,60.240963855400565,,,,,,2665.6553000000713,350,6,2665.6555,350,,,,2669.447100000024,2669.9485,2668.937399999976,2669.447,2666.6725,2668.9373000000714,2669.948600000024,2670.464600000024,2670.4647000000477,2673.268,2537,2673.268,5,2673.2683999999763,6,5,185,17,1,1.2,0.7,Time
,,czr,001,f,20,2025-06-03_18h59.27.766,Serial_Dependence_U,2023.2.3,Win32,60.240963855400565,,,,,,2673.268700000048,85,6,2673.269,85,,,,2676.8398000000716,2677.3483000000715,2676.3243000000716,2676.8398000000716,2674.253200000048,2676.324100000024,2677.3483000000715,2677.829399999976,2677.829399999976,2680.0082000000475,1902,2680.0083000000714,5,2680.0087000000476,6,6,186,26,1,1,0.7,Time
,,czr,001,f,20,2025-06-03_18h59.27.766,Serial_Dependence_U,2023.2.3,Win32,60.240963855400565,,,,,,2680.009100000024,204,6,2680.0093000000716,204,,,,2683.6041000000237,2684.0795,2683.091600000024,2683.603899999976,2681.0245,2683.091399999976,2684.0796000000237,2684.5807000000477,2684.5807000000477,2685.336,253,2685.3361000000236,1,2685.336399999976,6,7,187,11,1,1,0.3,Time
,,czr,001,f,20,2025-06-03_18h59.27.766,Serial_Dependence_U,2023.2.3,Win32,60.240963855400565,,,,,,2685.336899999976,274,6,2685.337100000024,274,,,,2688.738899999976,2689.2471000000237,2688.2363000000714,2688.738899999976,2686.352399999976,2688.2362000000476,2689.2471000000237,2689.734100000024,2689.734100000024,2690.4212000000475,307,2690.4213000000714,1,2690.4217000000476,6,8,188,20,1,0.8,0.3,Time
,,czr,001,f,20,2025-06-03_18h59.27.766,Serial_Dependence_U,2023.2.3,Win32,60.240963855400565,,,,,,2690.422,332,6,2690.4222000000477,332,,,,2694.6238000000717,2695.1123999999763,2694.113600000024,2694.623600000024,2691.438,2694.113399999976,2695.1123999999763,2695.5955,2695.5956000000238,2696.1365,212,2696.1365,1,2696.137,6,9,189,24,1,1.6,0.3,Time
,,czr,001,f,20,2025-06-03_18h59.27.766,Serial_Dependence_U,2023.2.3,Win32,60.240963855400565,,,,,,2696.1375,180,6,2696.1378000000714,180,,,,2699.705399999976,2700.198600000024,2699.196,2699.7052000000476,2697.1403000000714,2699.195899999976,2700.198600000024,2700.6955,2700.6955,2702.9206000000236,1912,2702.9207000000474,5,2702.921,6,10,190,6,1,1,0.7,Time
,,czr,001,f,20,2025-06-03_18h59.27.766,Serial_Dependence_U,2023.2.3,Win32,60.240963855400565,,,,,,2702.921399999976,63,6,2702.9217000000476,63,,,,2706.9125,2707.398100000024,2706.402700000048,2706.912399999976,2703.9532000000477,2706.4025,2707.398100000024,2707.897399999976,2707.8975,2711.12,2795,2711.12,5,2711.120399999976,6,11,191,18,1,1.4,0.7,Time
,,czr,001,f,20,2025-06-03_18h59.27.766,Serial_Dependence_U,2023.2.3,Win32,60.240963855400565,,,,,,2711.1208000000715,69,6,2711.121,69,,,,2715.3313000000717,2715.828399999976,2714.8256000000238,2715.331200000048,2712.1582000000476,2714.825399999976,2715.828399999976,2716.329899999976,2716.33,2716.802100000024,126,2716.802200000048,1,2716.8026000000236,6,12,192,14,1,1.6,0.3,Time
,,czr,001,f,20,2025-06-03_18h59.27.766,Serial_Dependence_U,2023.2.3,Win32,60.240963855400565,,,,,,2716.802899999976,266,6,2716.8031000000237,266,,,,2720.7885,2721.281,2720.268600000024,2720.7885,2717.802899999976,2720.2685,2721.281100000024,2721.764200000048,2721.764200000048,2722.5758000000715,125,2722.5758000000715,1,2722.5763999999763,6,13,193,13,1,1.4,0.3,Time
,,czr,001,f,20,2025-06-03_18h59.27.766,Serial_Dependence_U,2023.2.3,Win32,60.240963855400565,,,,,,2722.5768000000717,260,6,2722.576899999976,260,,,,2726.5548000000713,2727.063,2726.0527000000475,2726.5547000000474,2723.5793000000713,2726.0526000000236,2727.063100000024,2727.5638000000713,2727.5638000000713,2728.2817000000477,134,2728.2818000000716,1,2728.282399999976,6,14,194,23,1,1.4,0.3,Time
,,czr,001,f,20,2025-06-03_18h59.27.766,Serial_Dependence_U,2023.2.3,Win32,60.240963855400565,,,,,,2728.2827000000475,237,6,2728.282899999976,237,,,,2732.329899999976,2732.8063000000716,2731.7458000000715,2732.3297000000475,2729.3055,2731.7457000000477,2732.8063000000716,2733.301399999976,2733.3015,2745.4365,2678,2745.4367000000475,5,2745.437,6,15,195,8,1,1.4,0.7,Time
,,czr,001,f,20,2025-06-03_18h59.27.766,Serial_Dependence_U,2023.2.3,Win32,60.240963855400565,,,,,,2745.4373000000714,62,6,2745.4375,62,,,,2749.4945,2749.977600000024,2748.9693999999763,2749.494399999976,2746.4952000000476,2748.9693000000716,2749.977600000024,2750.4825,2750.482600000024,2751.8125,863,2751.812600000024,1,2751.813,6,16,196,3,1,1.4,0.3,Time
,,czr,001,f,20,2025-06-03_18h59.27.766,Serial_Dependence_U,2023.2.3,Win32,60.240963855400565,,,,,,2751.8134999999997,343,6,2751.8137000000474,343,,,,2755.6214999999997,2756.1108000000713,2755.1008000000716,2755.621399999976,2752.8218999999763,2755.100600000024,2756.1108000000713,2756.6022000000476,2756.6022000000476,2757.1577000000475,172,2757.1578000000713,1,2757.1581000000238,6,17,197,2,1,1.2,0.3,Time
,,czr,001,f,20,2025-06-03_18h59.27.766,Serial_Dependence_U,2023.2.3,Win32,60.240963855400565,,,,,,2757.1585,90,6,2757.1588000000716,90,,,,2760.967200000048,2761.478100000024,2760.4276000000236,2760.967100000024,2758.151600000024,2760.4275,2761.478100000024,2761.979399999976,2761.9795,2762.406399999976,109,2762.4065,1,2762.4068000000716,6,18,198,12,1,1.2,0.3,Time
,,czr,001,f,20,2025-06-03_18h59.27.766,Serial_Dependence_U,2023.2.3,Win32,60.240963855400565,,,,,,2762.407200000048,112,6,2762.407399999976,112,,,,2766.1608000000715,2766.6615,2765.651399999976,2766.1607000000477,2763.3876000000237,2765.6512000000475,2766.6615,2767.1633000000716,2767.1633000000716,2767.7437000000477,124,2767.7438000000716,1,2767.7443000000717,6,19,199,22,1,1.2,0.3,Time
,,czr,001,f,20,2025-06-03_18h59.27.766,Serial_Dependence_U,2023.2.3,Win32,60.240963855400565,,,,,,2767.7447000000475,71,6,2767.744899999976,71,,,,2771.916899999976,2772.394899999976,2771.403899999976,2771.9168000000714,2768.758899999976,2771.4038000000714,2772.394899999976,2772.8935,2772.8935,2776.1839999999997,2870,2776.1842000000474,5,2776.184399999976,6,20,200,9,1,1.6,0.7,Time
,,czr,001,f,20,2025-06-03_18h59.27.766,Serial_Dependence_U,2023.2.3,Win32,60.240963855400565,,,,,,2776.185,210,6,2776.1852000000476,210,,,,2779.564600000024,2780.059899999976,2779.0527000000475,2779.5645,2777.181600000024,2779.0526000000236,2780.059899999976,2780.5615,2780.5616000000236,2782.6825,1434,2782.6827000000476,5,2782.683100000024,6,21,201,25,1,0.8,0.7,Time
,,czr,001,f,20,2025-06-03_18h59.27.766,Serial_Dependence_U,2023.2.3,Win32,60.240963855400565,,,,,,2782.683600000024,112,6,2782.6838000000716,112,,,,2786.2942000000476,2786.7953999999763,2785.7677000000476,2786.2941000000237,2783.6948000000716,2785.767399999976,2786.7953999999763,2787.293100000024,2787.293100000024,2787.750600000024,114,2787.750700000048,1,2787.7509999999997,6,22,202,1,1,1,0.3,Time
,,czr,001,f,20,2025-06-03_18h59.27.766,Serial_Dependence_U,2023.2.3,Win32,60.240963855400565,,,,,,2787.751399999976,188,6,2787.7516000000237,188,,,,2791.983399999976,2792.477899999976,2791.4386000000236,2791.9833000000713,2788.7885,2791.438399999976,2792.478,2792.976200000048,2792.9763000000717,2796.0441000000237,2664,2796.0442000000476,5,2796.0445,6,23,203,19,1,1.6,0.7,Time
,,czr,001,f,20,2025-06-03_18h59.27.766,Serial_Dependence_U,2023.2.3,Win32,60.240963855400565,,,,,,2796.045100000024,96,6,2796.0452000000478,96,,,,2800.2328000000716,2800.7268000000713,2799.7108000000717,2800.2328000000716,2797.0672000000477,2799.710700000048,2800.7268000000713,2801.219,2801.219100000024,2804.134,2467,2804.134100000024,5,2804.1343999999763,6,24,204,29,1,1.6,0.7,Time
,,czr,001,f,20,2025-06-03_18h59.27.766,Serial_Dependence_U,2023.2.3,Win32,60.240963855400565,,,,,,2804.1348000000717,109,6,2804.1349999999998,109,,,,2808.0823000000714,2808.5591000000236,2807.5765,2808.0822000000476,2805.1342000000477,2807.5763999999763,2808.5591000000236,2809.047100000024,2809.0472000000477,2811.966600000024,2483,2811.966600000024,5,2811.967,6,25,205,28,1,1.4,0.7,Time
,,czr,001,f,20,2025-06-03_18h59.27.766,Serial_Dependence_U,2023.2.3,Win32,60.240963855400565,,,,,,2811.9673000000716,148,6,2811.9676000000236,148,,,,2816.1987000000477,2816.6756000000237,2815.6645,2816.1985,2812.9817000000476,2815.6643000000713,2816.6757000000475,2817.1588999999763,2817.1588999999763,2817.7086000000236,138,2817.7088000000713,1,2817.709399999976,6,26,206,4,1,1.6,0.3,Time
,,czr,001,f,20,2025-06-03_18h59.27.766,Serial_Dependence_U,2023.2.3,Win32,60.240963855400565,,,,,,2817.71,113,6,2817.7103000000716,113,,,,2821.2625,2821.764200000048,2820.7495,2821.2623000000713,2818.7091000000237,2820.7493000000713,2821.764200000048,2822.2587000000476,2822.2587000000476,2824.5388000000717,1922,2824.5388000000717,5,2824.5392000000475,6,27,207,16,1,1,0.7,Time
,,czr,001,f,20,2025-06-03_18h59.27.766,Serial_Dependence_U,2023.2.3,Win32,60.240963855400565,,,,,,2824.5397000000476,320,6,2824.539899999976,320,,,,2827.9335,2828.414399999976,2827.3923000000714,2827.9335,2825.551,2827.3922000000475,2828.4145,2828.9145,2828.9145,2831.5503000000713,1983,2831.5503000000713,5,2831.5507000000475,6,28,208,5,1,0.8,0.7,Time
,,czr,001,f,20,2025-06-03_18h59.27.766,Serial_Dependence_U,2023.2.3,Win32,60.240963855400565,,,,,,2831.5512000000476,239,6,2831.551399999976,239,,,,2834.985,2835.4771000000237,2834.4535,2834.9848000000716,2832.5988000000716,2834.4532000000477,2835.4772000000476,2835.978899999976,2835.978899999976,2838.2333000000713,1866,2838.233399999976,5,2838.2338000000714,6,29,209,15,1,0.8,0.7,Time
,,czr,001,f,20,2025-06-03_18h59.27.766,Serial_Dependence_U,2023.2.3,Win32,60.240963855400565,,,,,,2838.2342000000476,222,7,2962.1613999999763,222,s,123.90299999999979,,2965.9417000000476,2966.438200000048,2965.4288000000715,2965.9415,2963.157200000048,2965.4287000000477,2966.438200000048,2966.9217000000476,2966.9217000000476,2967.391100000024,59,2967.391100000024,1,2967.3915,7,0,210,12,1,1.2,0.3,Time
,,czr,001,f,20,2025-06-03_18h59.27.766,Serial_Dependence_U,2023.2.3,Win32,60.240963855400565,,,,,,2967.3918000000713,249,7,2967.393899999976,249,,,,2971.3868999999763,2971.8713000000716,2970.8808000000713,2971.3868000000716,2968.4068000000716,2970.8806000000236,2971.8713000000716,2972.3725,2972.3725,2972.8452000000475,141,2972.8452000000475,1,2972.846,7,1,211,13,1,1.4,0.3,Time
,,czr,001,f,20,2025-06-03_18h59.27.766,Serial_Dependence_U,2023.2.3,Win32,60.240963855400565,,,,,,2972.8463999999763,255,7,2972.846700000048,255,,,,2977.0428999999763,2977.5212000000474,2976.5054999999998,2977.0428999999763,2973.8635,2976.5053000000717,2977.5213000000713,2978.024,2978.024,2980.4126000000238,2005,2980.4127000000476,4,2980.413100000024,7,2,212,19,1,1.6,0.7,Time
,,czr,001,f,20,2025-06-03_18h59.27.766,Serial_Dependence_U,2023.2.3,Win32,60.240963855400565,,,,,,2980.413600000024,309,7,2980.4138000000717,309,,,,2984.2218000000717,2984.723,2983.705,2984.221600000024,2981.4433000000713,2983.704899999976,2984.723,2985.2045,2985.2046000000237,2986.017,126,2986.0171000000237,1,2986.017399999976,7,3,213,22,1,1.2,0.3,Time
,,czr,001,f,20,2025-06-03_18h59.27.766,Serial_Dependence_U,2023.2.3,Win32,60.240963855400565,,,,,,2986.017899999976,300,7,2986.018100000024,300,,,,2989.813399999976,2990.3272000000475,2989.311399999976,2989.8133000000716,2987.021399999976,2989.3113000000717,2990.3272000000475,2990.823,2990.823,2993.0485,1919,2993.0486000000237,5,2993.049,7,4,214,2,1,1.2,0.3,Time
,,czr,001,f,20,2025-06-03_18h59.27.766,Serial_Dependence_U,2023.2.3,Win32,60.240963855400565,,,,,,2993.0493000000715,59,7,2993.0495,59,,,,2997.027899999976,2997.525399999976,2996.4945,2997.027700000048,2994.0331000000238,2996.4943000000717,2997.525399999976,2998.021399999976,2998.0215,2998.7142000000476,304,2998.7142000000476,1,2998.7147000000477,7,5,215,23,1,1.4,0.3,Time
,,czr,001,f,20,2025-06-03_18h59.27.766,Serial_Dependence_U,2023.2.3,Win32,60.240963855400565,,,,,,2998.7153000000717,140,7,2998.7156000000236,140,,,,3002.6715,3003.1705,3002.155399999976,3002.6715,2999.721,3002.1553000000713,3003.1705,3003.672899999976,3003.673,3006.899399999976,2779,3006.8995,5,3006.8998000000715,7,6,216,18,1,1.4,0.7,Time
,,czr,001,f,20,2025-06-03_18h59.27.766,Serial_Dependence_U,2023.2.3,Win32,60.240963855400565,,,,,,3006.9003000000716,358,7,3006.9004999999997,358,,,,3010.2778000000717,3010.7709999999997,3009.768,3010.277700000048,3007.9065,3009.767899999976,3010.7709999999997,3011.2713000000713,3011.2713000000713,3012.3675,820,3012.3675,3,3012.367899999976,7,7,217,10,1,0.8,0.3,Time
,,czr,001,f,20,2025-06-03_18h59.27.766,Serial_Dependence_U,2023.2.3,Win32,60.240963855400565,,,,,,3012.3683000000715,103,7,3012.368399999976,103,,,,3015.713899999976,3016.2207000000476,3015.209600000024,3015.713899999976,3013.369399999976,3015.209399999976,3016.2208000000714,3016.7168999999762,3016.7168999999762,3018.910899999976,1822,3018.911,5,3018.9113999999763,7,8,218,5,1,0.8,0.7,Time
,,czr,001,f,20,2025-06-03_18h59.27.766,Serial_Dependence_U,2023.2.3,Win32,60.240963855400565,,,,,,3018.9118000000713,78,7,3018.912,78,,,,3022.5218000000714,3023.0203000000715,3022.010399999976,3022.5217000000475,3019.9368000000713,3022.0103000000713,3023.0203000000715,3023.520600000024,3023.520600000024,3025.1353000000713,1350,3025.135399999976,5,3025.1357000000476,7,9,219,11,1,1,0.3,Time
,,czr,001,f,20,2025-06-03_18h59.27.766,Serial_Dependence_U,2023.2.3,Win32,60.240963855400565,,,,,,3025.1362000000477,70,7,3025.1365,70,,,,3029.337100000024,3029.8403000000717,3028.8353999999763,3029.337100000024,3026.154600000024,3028.8352000000477,3029.8403000000717,3030.337,3030.337100000024,3032.151,1383,3032.1511000000237,2,3032.151399999976,7,10,220,24,1,1.6,0.3,Time
,,czr,001,f,20,2025-06-03_18h59.27.766,Serial_Dependence_U,2023.2.3,Win32,60.240963855400565,,,,,,3032.151899999976,172,7,3032.152,172,,,,3035.5434999999998,3036.038700000048,3035.018899999976,3035.543399999976,3033.154700000048,3035.018700000048,3036.038700000048,3036.5363999999763,3036.5363999999763,3038.801100000024,1790,3038.8012000000476,5,3038.801600000024,7,11,221,15,1,0.8,0.7,Time
,,czr,001,f,20,2025-06-03_18h59.27.766,Serial_Dependence_U,2023.2.3,Win32,60.240963855400565,,,,,,3038.802200000048,296,7,3038.8026000000236,296,,,,3042.424600000024,3042.903,3041.8998999999762,3042.4245,3039.8268000000717,3041.8997000000477,3042.903,3043.385899999976,3043.386100000024,3044.776899999976,1109,3044.777,4,3044.7773000000716,7,12,222,21,1,1,0.3,Time
,,czr,001,f,20,2025-06-03_18h59.27.766,Serial_Dependence_U,2023.2.3,Win32,60.240963855400565,,,,,,3044.7778000000717,114,7,3044.777899999976,114,,,,3048.527100000024,3049.003100000024,3048.0202000000477,3048.526899999976,3045.786700000048,3048.020100000024,3049.003100000024,3049.5038000000714,3049.503899999976,3052.116899999976,2190,3052.1169999999997,5,3052.1173000000713,7,13,223,27,1,1.2,0.7,Time
,,czr,001,f,20,2025-06-03_18h59.27.766,Serial_Dependence_U,2023.2.3,Win32,60.240963855400565,,,,,,3052.1178000000714,187,7,3052.117899999976,187,,,,3055.737100000024,3056.243399999976,3055.2303000000716,3055.737100000024,3053.1605,3055.2302000000477,3056.243399999976,3056.736,3056.7361000000237,3060.035600000024,2576,3060.035600000024,5,3060.035899999976,7,14,224,1,1,1,0.3,Time
,,czr,001,f,20,2025-06-03_18h59.27.766,Serial_Dependence_U,2023.2.3,Win32,60.240963855400565,,,,,,3060.0363999999763,85,7,3060.036600000024,85,,,,3063.965,3064.4707000000476,3063.4532000000477,3063.9648999999763,3061.0137000000477,3063.453,3064.4707000000476,3064.9702000000475,3064.970399999976,3067.966,2643,3067.9661000000237,5,3067.966399999976,7,15,225,28,1,1.4,0.7,Time
,,czr,001,f,20,2025-06-03_18h59.27.766,Serial_Dependence_U,2023.2.3,Win32,60.240963855400565,,,,,,3067.9667000000477,331,7,3067.967,331,,,,3071.3337000000474,3071.8355,3070.8166000000238,3071.3336000000236,3068.951899999976,3070.816399999976,3071.8355,3072.3186000000237,3072.3186000000237,3073.8136000000236,887,3073.8136000000236,4,3073.814,7,16,226,20,1,0.8,0.3,Time
,,czr,001,f,20,2025-06-03_18h59.27.766,Serial_Dependence_U,2023.2.3,Win32,60.240963855400565,,,,,,3073.814399999976,268,7,3073.814600000024,268,,,,3077.4447000000478,3077.952899999976,3076.9438000000714,3077.444600000024,3074.865,3076.9437000000476,3077.952899999976,3078.454,3078.454,3080.731899999976,2072,3080.732,5,3080.732399999976,7,17,227,6,1,1,0.7,Time
,,czr,001,f,20,2025-06-03_18h59.27.766,Serial_Dependence_U,2023.2.3,Win32,60.240963855400565,,,,,,3080.7328999999763,167,7,3080.7332000000474,167,,,,3084.9592000000475,3085.4701000000236,3084.4281000000237,3084.9591000000237,3081.728,3084.428,3085.4701000000236,3085.9612000000475,3085.9613000000713,3088.002600000024,1463,3088.0027000000478,2,3088.003100000024,7,18,228,14,1,1.6,0.3,Time
,,czr,001,f,20,2025-06-03_18h59.27.766,Serial_Dependence_U,2023.2.3,Win32,60.240963855400565,,,,,,3088.0038000000714,357,7,3088.004,357,,,,3092.224899999976,3092.7201000000236,3091.7006000000238,3092.224899999976,3089.018600000024,3091.700399999976,3092.7201000000236,3093.2102000000477,3093.2103000000716,3095.625899999976,1906,3095.6259999999997,4,3095.626399999976,7,19,229,4,1,1.6,0.3,Time
,,czr,001,f,20,2025-06-03_18h59.27.766,Serial_Dependence_U,2023.2.3,Win32,60.240963855400565,,,,,,3095.6268000000714,227,7,3095.627,227,,,,3098.9847000000477,3099.470899999976,3098.458899999976,3098.9847000000477,3096.6253000000715,3098.4588000000713,3099.470899999976,3099.9808000000717,3099.980899999976,3102.5717000000477,2213,3102.5718000000716,5,3102.572200000048,7,20,230,25,1,0.8,0.7,Time
,,czr,001,f,20,2025-06-03_18h59.27.766,Serial_Dependence_U,2023.2.3,Win32,60.240963855400565,,,,,,3102.5724999999998,218,7,3102.5727000000475,218,,,,3105.9522000000475,3106.4372000000476,3105.451,3105.9521000000236,3103.5757000000476,3105.450899999976,3106.4372000000476,3106.940700000048,3106.9408000000717,3107.2753000000716,262,3107.275399999976,1,3107.2757000000474,7,21,231,0,1,0.8,0.3,Time
,,czr,001,f,20,2025-06-03_18h59.27.766,Serial_Dependence_U,2023.2.3,Win32,60.240963855400565,,,,,,3107.2762000000475,224,7,3107.276399999976,224,,,,3111.443399999976,3111.9526000000237,3110.9278000000713,3111.4433000000713,3108.2893000000713,3110.9277000000475,3111.9527000000476,3112.4525,3112.4525,3115.9255,2984,3115.9256000000237,5,3115.926,7,22,232,29,1,1.6,0.7,Time
,,czr,001,f,20,2025-06-03_18h59.27.766,Serial_Dependence_U,2023.2.3,Win32,60.240963855400565,,,,,,3115.926399999976,27,7,3115.9265,27,,,,3119.7019999999998,3120.2005,3119.190899999976,3119.701899999976,3116.9418000000715,3119.1908000000717,3120.2005,3120.7053000000715,3120.7053000000715,3123.7288000000713,2729,3123.728899999976,5,3123.7293000000714,7,23,233,17,1,1.2,0.7,Time
,,czr,001,f,20,2025-06-03_18h59.27.766,Serial_Dependence_U,2023.2.3,Win32,60.240963855400565,,,,,,3123.7297000000476,112,7,3123.73,112,,,,3127.292,3127.786100000024,3126.7518000000714,3127.292,3124.696,3126.7516000000237,3127.7862000000478,3128.2823000000717,3128.282399999976,3130.853100000024,2233,3130.8532000000478,5,3130.853600000024,7,24,234,26,1,1,0.7,Time
,,czr,001,f,20,2025-06-03_18h59.27.766,Serial_Dependence_U,2023.2.3,Win32,60.240963855400565,,,,,,3130.854,180,7,3130.8541000000237,180,,,,3134.4448000000716,3134.9345,3133.9288000000715,3134.444600000024,3131.874,3133.928600000024,3134.9347000000475,3135.433600000024,3135.433600000024,3137.8753000000715,2116,3137.8753999999763,5,3137.875700000048,7,25,235,16,1,1,0.7,Time
,,czr,001,f,20,2025-06-03_18h59.27.766,Serial_Dependence_U,2023.2.3,Win32,60.240963855400565,,,,,,3137.8762000000474,132,7,3137.8763000000713,132,,,,3141.8792000000476,3142.3753999999763,3141.3745,3141.8791000000238,3138.8823000000716,3141.374399999976,3142.3753999999763,3142.850600000024,3142.850600000024,3143.317100000024,69,3143.3172000000477,1,3143.3175,7,26,236,3,1,1.4,0.3,Time
,,czr,001,f,20,2025-06-03_18h59.27.766,Serial_Dependence_U,2023.2.3,Win32,60.240963855400565,,,,,,3143.317899999976,122,7,3143.3182000000475,122,,,,3147.0735,3147.5681000000236,3146.564600000024,3147.0733000000714,3144.293200000048,3146.5645,3147.5682000000475,3148.0683000000713,3148.068399999976,3151.844,2686,3151.844100000024,5,3151.8445,7,27,237,7,1,1.2,0.7,Time
,,czr,001,f,20,2025-06-03_18h59.27.766,Serial_Dependence_U,2023.2.3,Win32,60.240963855400565,,,,,,3151.844899999976,75,7,3151.8451000000236,75,,,,3156.034,3156.5163000000716,3155.5093000000716,3156.0338000000716,3152.860399999976,3155.509100000024,3156.5163000000716,3157.0041000000238,3157.0041000000238,3160.418,3144,3160.418100000024,5,3160.4184999999998,7,28,238,9,1,1.6,0.7,Time
,,czr,001,f,20,2025-06-03_18h59.27.766,Serial_Dependence_U,2023.2.3,Win32,60.240963855400565,,,,,,3160.418899999976,254,7,3160.4191000000237,254,,,,3164.3843999999763,3164.8876000000237,3163.8558000000717,3164.3843000000716,3161.4053000000713,3163.855700000048,3164.8876000000237,3165.389,3165.389,3168.1902000000478,2292,3168.1903000000716,5,3168.190700000048,7,29,239,8,1,1.4,0.7,Time
,,czr,001,f,20,2025-06-03_18h59.27.766,Serial_Dependence_U,2023.2.3,Win32,60.240963855400565,,,,,,3168.1911000000237,73,8,3170.889899999976,73,s,2.674399999976231,,3175.124399999976,3175.634600000024,3174.6003000000715,3175.1242000000475,3171.9013000000714,3174.6001000000238,3175.634700000048,3176.134100000024,3176.134100000024,3178.4605,1888,3178.460600000024,4,3178.460899999976,8,0,240,4,1,1.6,0.3,Time
,,czr,001,f,20,2025-06-03_18h59.27.766,Serial_Dependence_U,2023.2.3,Win32,60.240963855400565,,,,,,3178.461399999976,211,8,3178.4632000000474,211,,,,3182.6728000000717,3183.1712000000475,3182.139100000024,3182.672600000024,3179.466399999976,3182.1388999999763,3183.1712000000475,3183.6672000000476,3183.6673000000715,3183.95,26,3183.9502000000475,1,3183.9505,8,1,241,24,1,1.6,0.3,Time
,,czr,001,f,20,2025-06-03_18h59.27.766,Serial_Dependence_U,2023.2.3,Win32,60.240963855400565,,,,,,3183.951100000024,114,8,3183.9512000000477,114,,,,3187.331,3187.8155,3186.8163000000714,3187.3308999999763,3184.985100000024,3186.8161000000237,3187.815600000024,3188.3155,3188.315600000024,3190.903399999976,2152,3190.903399999976,5,3190.9037000000476,8,2,242,5,1,0.8,0.7,Time
,,czr,001,f,20,2025-06-03_18h59.27.766,Serial_Dependence_U,2023.2.3,Win32,60.240963855400565,,,,,,3190.904,352,8,3190.9042000000477,352,,,,3194.507600000024,3195.009700000048,3194.006399999976,3194.5075,3191.9248999999763,3194.0063000000714,3195.009700000048,3195.500899999976,3195.5009999999997,3197.2402000000475,1272,3197.2403000000713,4,3197.2408000000714,8,3,243,1,1,1,0.3,Time
,,czr,001,f,20,2025-06-03_18h59.27.766,Serial_Dependence_U,2023.2.3,Win32,60.240963855400565,,,,,,3197.2412000000477,221,8,3197.2413000000715,221,,,,3201.4558999999763,3201.9674999999997,3200.9215,3201.4557000000477,3198.2883999999763,3200.921399999976,3201.9676000000236,3202.448399999976,3202.4485,3206.3263999999763,2563,3206.3265,5,3206.3268000000717,8,4,244,19,1,1.6,0.7,Time
,,czr,001,f,20,2025-06-03_18h59.27.766,Serial_Dependence_U,2023.2.3,Win32,60.240963855400565,,,,,,3206.3273000000713,174,8,3206.3275,174,,,,3210.0596000000237,3210.553,3209.549,3210.0596000000237,3207.2998999999763,3209.548899999976,3210.5531000000237,3211.049600000024,3211.049700000048,3213.7831000000238,2263,3213.7832000000476,5,3213.783600000024,8,5,245,27,1,1.2,0.7,Time
,,czr,001,f,20,2025-06-03_18h59.27.766,Serial_Dependence_U,2023.2.3,Win32,60.240963855400565,,,,,,3213.7838999999763,138,8,3213.784200000048,138,,,,3217.379399999976,3217.8565,3216.865899999976,3217.3793000000715,3214.8175,3216.8658000000714,3217.8566000000237,3218.348,3218.348,3220.748899999976,2079,3220.749,5,3220.749399999976,8,6,246,16,1,1,0.7,Time
,,czr,001,f,20,2025-06-03_18h59.27.766,Serial_Dependence_U,2023.2.3,Win32,60.240963855400565,,,,,,3220.7498000000714,58,8,3220.750100000024,58,,,,3224.4012000000475,3224.8978999999763,3223.874899999976,3224.4008000000713,3221.7882000000477,3223.8748000000714,3224.8978999999763,3225.3873000000713,3225.387399999976,3225.9497000000474,116,3225.9498000000713,1,3225.9503000000714,8,7,247,11,1,1,0.3,Time
,,czr,001,f,20,2025-06-03_18h59.27.766,Serial_Dependence_U,2023.2.3,Win32,60.240963855400565,,,,,,3225.950899999976,332,8,3225.9512000000477,332,,,,3229.7528999999763,3230.2308000000717,3229.236399999976,3229.7528000000716,3226.966,3229.2363000000714,3230.230899999976,3230.7238999999763,3230.7238999999763,3231.205100000024,83,3231.2052000000476,1,3231.2058000000716,8,8,248,22,1,1.2,0.3,Time
,,czr,001,f,20,2025-06-03_18h59.27.766,Serial_Dependence_U,2023.2.3,Win32,60.240963855400565,,,,,,3231.206200000048,213,8,3231.2063000000717,213,,,,3235.3958999999763,3235.8808000000713,3234.8882000000476,3235.3958000000716,3232.23,3234.888,3235.880899999976,3236.3807000000475,3236.3807000000475,3239.8296000000237,3113,3239.8297000000475,5,3239.830100000024,8,9,249,29,1,1.6,0.7,Time
,,czr,001,f,20,2025-06-03_18h59.27.766,Serial_Dependence_U,2023.2.3,Win32,60.240963855400565,,,,,,3239.8308999999763,269,8,3239.831200000048,269,,,,3243.1678999999763,3243.6473000000715,3242.637899999976,3243.1678000000716,3240.8055,3242.6378000000714,3243.647399999976,3244.147100000024,3244.1472000000476,3246.8406000000236,2229,3246.8407000000475,5,3246.841,8,10,250,15,1,0.8,0.7,Time
,,czr,001,f,20,2025-06-03_18h59.27.766,Serial_Dependence_U,2023.2.3,Win32,60.240963855400565,,,,,,3246.8415,84,8,3246.8417000000477,84,,,,3250.7288000000713,3251.214,3250.2041000000236,3250.7287000000474,3247.9025,3250.2038999999763,3251.214,3251.7137000000475,3251.7137000000475,3252.1543999999762,83,3252.1545,1,3252.1549999999997,8,11,251,12,1,1.2,0.3,Time
,,czr,001,f,20,2025-06-03_18h59.27.766,Serial_Dependence_U,2023.2.3,Win32,60.240963855400565,,,,,,3252.1556000000237,334,8,3252.155899999976,334,,,,3256.1197000000475,3256.6241000000236,3255.6145,3256.1195,3253.177899999976,3255.6143000000716,3256.6241000000236,3257.132,3257.132100000024,3259.8305,2219,3259.830600000024,5,3259.8308999999763,8,12,252,8,1,1.4,0.7,Time
,,czr,001,f,20,2025-06-03_18h59.27.766,Serial_Dependence_U,2023.2.3,Win32,60.240963855400565,,,,,,3259.8313000000717,283,8,3259.8316000000236,283,,,,3263.788100000024,3264.282399999976,3263.2813000000715,3263.788100000024,3260.8367000000476,3263.281100000024,3264.2825,3264.7488000000717,3264.748899999976,3267.771399999976,2547,3267.7715,5,3267.772,8,13,253,28,1,1.4,0.7,Time
,,czr,001,f,20,2025-06-03_18h59.27.766,Serial_Dependence_U,2023.2.3,Win32,60.240963855400565,,,,,,3267.772399999976,179,8,3267.772600000024,179,,,,3271.973600000024,3272.4662000000476,3271.4701000000236,3271.973399999976,3268.7896000000237,3271.47,3272.4662000000476,3272.9465,3272.946600000024,3273.4805,205,3273.480600000024,1,3273.4809999999998,8,14,254,14,1,1.6,0.3,Time
,,czr,001,f,20,2025-06-03_18h59.27.766,Serial_Dependence_U,2023.2.3,Win32,60.240963855400565,,,,,,3273.481399999976,195,8,3273.4816000000237,195,,,,3277.096600000024,3277.5803000000715,3276.559899999976,3277.0965,3274.481899999976,3276.5598000000714,3277.5803000000715,3278.0833000000716,3278.0833999999763,3278.563200000048,173,3278.5633000000716,1,3278.5636000000236,8,15,255,21,1,1,0.3,Time
,,czr,001,f,20,2025-06-03_18h59.27.766,Serial_Dependence_U,2023.2.3,Win32,60.240963855400565,,,,,,3278.5642000000475,329,8,3278.564399999976,329,,,,3281.9468999999763,3282.4294999999997,3281.4371000000237,3281.9468000000716,3279.5713000000715,3281.436899999976,3282.4294999999997,3282.930899999976,3282.930899999976,3285.5548000000713,2118,3285.5548000000713,5,3285.5552000000475,8,16,256,25,1,0.8,0.7,Time
,,czr,001,f,20,2025-06-03_18h59.27.766,Serial_Dependence_U,2023.2.3,Win32,60.240963855400565,,,,,,3285.5558000000715,318,8,3285.555899999976,318,,,,3289.748,3290.246100000024,3289.229899999976,3289.747899999976,3286.594,3289.2298000000715,3290.246100000024,3290.747600000024,3290.747600000024,3294.0792000000474,2962,3294.079399999976,5,3294.0798000000714,8,17,257,9,1,1.6,0.7,Time
