Scale_setup.started,Scale_setup.stopped,participant,session,sex,age,date,expName,psychopyVersion,OS,frameRate,Intro.started,Intro.stopped,key_resp_2.keys,key_resp_2.rt,key_resp_2.duration,block.started,direction,Block_id,block.stopped,trial_direction,Block_resp_2.keys,Block_resp_2.rt,Block_resp_2.duration,ITI.started,ITI.stopped,Mask_2.started,Mask_2.stopped,encoding.started,encoding.stopped,Cue.started,Cue.stopped,Response.started,Response.stopped,keyDuration,Feedback_Time.started,FeedbackID_T,Feedback_Time.stopped,trials.thisRepN,trials.thisTrialN,trials.thisN,trials.thisIndex,trials.ran,TimeDur,Coherence1,TrialType
0.0005999999999772854,0.0009000000000014552,txy,001,f,21,2025-06-03_14h32.48.895,Serial_Dependence_U,2023.2.3,Win32,59.880239520968516,,,,,,,,,,,,,,,,,,,,,,,,,,,,,,,,,,,
,,txy,001,f,21,2025-06-03_14h32.48.895,Serial_Dependence_U,2023.2.3,Win32,59.880239520968516,118.41470000000004,163.71439999999996,space,45.25060000000002,,,,,,,,,,,,,,,,,,,,,,,,,,,,,,,
,,txy,001,f,21,2025-06-03_14h32.48.895,Serial_Dependence_U,2023.2.3,Win32,59.880239520968516,,,,,,163.726,215,0,169.5471,215,s,5.793200000000013,,173.4977,173.997,172.99,173.4973,170.5539,172.9894,173.99739999999997,174.4975,174.49789999999996,187.18120000000005,129,187.18220000000002,1,188.18150000000003,0,0,0,18,1,1.4,0.7,Time
,,txy,001,f,21,2025-06-03_14h32.48.895,Serial_Dependence_U,2023.2.3,Win32,59.880239520968516,,,,,,188.1836,175,0,188.18959999999998,175,,,,191.9728,192.46480000000003,191.4579,191.9724,189.1836,191.45750000000004,192.4649,192.96520000000004,192.96520000000004,196.52300000000002,144,196.5231,1,197.51439999999997,0,1,1,22,1,1.2,0.3,Time
,,txy,001,f,21,2025-06-03_14h32.48.895,Serial_Dependence_U,2023.2.3,Win32,59.880239520968516,,,,,,197.5159,35,0,197.51639999999998,35,,,,201.48860000000002,201.9812,200.97320000000002,201.48829999999998,198.5312,200.97289999999998,201.98129999999998,202.4703,202.47039999999998,210.4538,7244,210.45439999999996,5,211.4475,0,2,2,8,1,1.4,0.7,Time
,,txy,001,f,21,2025-06-03_14h32.48.895,Serial_Dependence_U,2023.2.3,Win32,59.880239520968516,,,,,,211.44820000000004,38,0,211.4486,38,,,,214.7996,215.29870000000005,214.29829999999998,214.79930000000002,212.46389999999997,214.298,215.29880000000003,215.79809999999998,215.7982,225.7645,845,225.76459999999997,4,226.76479999999998,0,3,3,15,1,0.8,0.7,Time
,,txy,001,f,21,2025-06-03_14h32.48.895,Serial_Dependence_U,2023.2.3,Win32,59.880239520968516,,,,,,226.7658,228,0,226.76639999999998,228,,,,230.94009999999997,231.4314,230.43289999999996,230.93959999999998,227.76520000000005,230.4323,231.4314,231.9307,231.93079999999998,233.27300000000002,583,233.2731,1,234.26459999999997,0,4,4,24,1,1.6,0.3,Time
,,txy,001,f,21,2025-06-03_14h32.48.895,Serial_Dependence_U,2023.2.3,Win32,59.880239520968516,,,,,,234.2661,109,0,234.2668,109,,,,237.83159999999998,238.3304,237.32300000000004,237.8311,235.28820000000002,237.32270000000005,238.3306,238.8318,238.832,241.49039999999997,1716,241.4905,5,242.48059999999998,0,5,5,6,1,1,0.7,Time
,,txy,001,f,21,2025-06-03_14h32.48.895,Serial_Dependence_U,2023.2.3,Win32,59.880239520968516,,,,,,242.48160000000001,51,0,242.4821,51,,,,246.09859999999998,246.5978,245.5813,246.09820000000002,243.5047,245.58100000000002,246.59789999999998,247.0981,247.09820000000002,409.3317,4011,409.33199999999994,5,410.3303999999999,0,6,6,1,1,1,0.3,Time
,,txy,001,f,21,2025-06-03_14h32.48.895,Serial_Dependence_U,2023.2.3,Win32,59.880239520968516,,,,,,410.33160000000004,198,0,410.3321,198,,,,413.93149999999986,414.4303999999999,413.41439999999983,413.93119999999993,411.3478999999999,413.4141999999999,414.4304999999999,414.9308999999999,414.93099999999987,431.21379999999994,2040,431.2138999999999,5,432.21379999999994,0,7,7,11,1,1,0.3,Time
,,txy,001,f,21,2025-06-03_14h32.48.895,Serial_Dependence_U,2023.2.3,Win32,59.880239520968516,,,,,,432.2143999999999,241,0,432.2147999999999,241,,,,436.3652999999999,436.86359999999996,435.86409999999995,436.36489999999986,433.2306999999999,435.86399999999986,436.86359999999996,437.36409999999995,437.3641999999999,447.3652999999999,837,447.36539999999985,1,448.3646999999999,0,8,8,19,1,1.6,0.7,Time
,,txy,001,f,21,2025-06-03_14h32.48.895,Serial_Dependence_U,2023.2.3,Win32,59.880239520968516,,,,,,448.3655999999999,313,0,448.3661999999999,313,,,,452.53119999999996,453.0304999999998,452.0144999999998,452.5309999999999,449.3809999999998,452.0141999999999,453.0305999999999,453.5303999999998,453.5303999999998,456.43119999999993,2397,456.4312999999999,5,457.4303999999999,0,9,9,29,1,1.6,0.7,Time
,,txy,001,f,21,2025-06-03_14h32.48.895,Serial_Dependence_U,2023.2.3,Win32,59.880239520968516,,,,,,457.43099999999987,292,0,457.43109999999996,292,,,,461.2309999999998,461.7301999999999,460.71459999999996,461.2307999999999,458.4475999999999,460.7142999999999,461.7301999999999,462.2301999999999,462.2301999999999,484.09829999999994,1311,484.0983999999999,4,485.09729999999985,0,10,10,12,1,1.2,0.3,Time
,,txy,001,f,21,2025-06-03_14h32.48.895,Serial_Dependence_U,2023.2.3,Win32,59.880239520968516,,,,,,485.09769999999986,129,0,485.0979999999998,129,,,,488.6980999999999,489.19729999999987,488.18159999999995,488.69779999999986,486.11449999999985,488.18119999999993,489.19729999999987,489.69729999999987,489.69729999999987,500.3804999999998,585,500.3806999999999,1,501.3809999999998,0,11,11,21,1,1,0.3,Time
,,txy,001,f,21,2025-06-03_14h32.48.895,Serial_Dependence_U,2023.2.3,Win32,59.880239520968516,,,,,,501.3824999999999,203,0,501.38299999999987,203,,,,505.3818999999999,505.8810999999999,504.8646999999999,505.3816,502.39769999999993,504.8643999999999,505.88119999999986,506.3804999999998,506.3806999999999,509.8805999999999,2666,509.8806999999999,5,510.8804999999998,0,12,12,3,1,1.4,0.3,Time
,,txy,001,f,21,2025-06-03_14h32.48.895,Serial_Dependence_U,2023.2.3,Win32,59.880239520968516,,,,,,510.8810999999999,4,0,510.88119999999986,4,,,,514.2809,514.7803999999999,513.7649999999999,514.2807,511.8978999999999,513.7646,514.7804999999998,515.2810999999999,515.2818,517.9073999999998,1859,517.9074999999998,5,518.8970999999999,0,13,13,10,1,0.8,0.3,Time
,,txy,001,f,21,2025-06-03_14h32.48.895,Serial_Dependence_U,2023.2.3,Win32,59.880239520968516,,,,,,518.8988999999999,149,0,518.8992999999998,149,,,,522.2493999999999,522.7487999999998,521.7326,522.2491,519.9001999999998,521.7323999999999,522.7487999999998,523.2477999999999,523.2478999999998,524.9471999999998,1011,524.9472999999998,4,525.9469999999999,0,14,14,25,1,0.8,0.7,Time
,,txy,001,f,21,2025-06-03_14h32.48.895,Serial_Dependence_U,2023.2.3,Win32,59.880239520968516,,,,,,525.9476999999999,233,0,525.9478999999999,233,,,,529.7147,530.2139999999999,529.1997999999999,529.7142999999999,526.9644999999998,529.1994,530.2140999999999,530.7148,530.7148,532.4974,1008,532.4975999999999,2,533.4973,0,15,15,27,1,1.2,0.7,Time
,,txy,001,f,21,2025-06-03_14h32.48.895,Serial_Dependence_U,2023.2.3,Win32,59.880239520968516,,,,,,533.4983,75,0,533.4985999999999,75,,,,537.6976999999999,538.1970999999999,537.1812,537.6973999999998,534.5152999999998,537.1808999999998,538.1971999999998,538.6976,538.6979999999999,541.2163999999998,1974,541.2166,4,542.2147,0,16,16,14,1,1.6,0.3,Time
,,txy,001,f,21,2025-06-03_14h32.48.895,Serial_Dependence_U,2023.2.3,Win32,59.880239520968516,,,,,,542.2158999999999,250,0,542.2164999999998,250,,,,546.2067,546.6977999999999,545.6904,546.2060999999999,543.2216999999998,545.6901,546.6978999999999,547.1976,547.1976999999999,549.8426999999999,1945,549.8426999999999,5,550.8317,0,17,17,13,1,1.4,0.3,Time
,,txy,001,f,21,2025-06-03_14h32.48.895,Serial_Dependence_U,2023.2.3,Win32,59.880239520968516,,,,,,550.8326999999999,344,0,550.8329999999999,344,,,,554.9994999999999,555.4975,554.4907999999998,554.9983,551.8572999999999,554.4904999999999,555.4975999999999,555.9982,555.9983,558.3479999999997,1485,558.3479999999997,2,559.3477999999998,0,18,18,9,1,1.6,0.7,Time
,,txy,001,f,21,2025-06-03_14h32.48.895,Serial_Dependence_U,2023.2.3,Win32,59.880239520968516,,,,,,559.3483999999999,266,0,559.3488,266,,,,562.7484,563.2472,562.2397999999998,562.7481,560.3670999999999,562.2394999999999,563.2473,563.7483,563.7484,566.5973999999999,1896,566.5973999999999,5,567.5981999999999,0,19,19,20,1,0.8,0.3,Time
,,txy,001,f,21,2025-06-03_14h32.48.895,Serial_Dependence_U,2023.2.3,Win32,59.880239520968516,,,,,,567.5991999999999,337,0,567.5997,337,,,,570.9899999999998,571.4812,570.4739,570.9896999999999,568.6226999999999,570.4734999999998,571.4813999999999,571.9818999999998,571.9818999999998,574.7813999999998,1941,574.7816,5,575.7818,0,20,20,5,1,0.8,0.7,Time
,,txy,001,f,21,2025-06-03_14h32.48.895,Serial_Dependence_U,2023.2.3,Win32,59.880239520968516,,,,,,575.7828,49,0,575.7831999999999,49,,,,579.9826,580.4884999999999,579.4712,579.9817999999998,576.7984999999999,579.4708999999998,580.4884999999999,580.9881,580.9881,582.1646999999998,223,582.1647999999998,1,583.1648999999998,0,21,21,4,1,1.6,0.3,Time
,,txy,001,f,21,2025-06-03_14h32.48.895,Serial_Dependence_U,2023.2.3,Win32,59.880239520968516,,,,,,583.1659999999999,154,0,583.1662999999999,154,,,,587.1649999999997,587.6651999999999,586.6500999999998,587.1645999999998,584.1719999999998,586.6496999999999,587.6651999999999,588.1642999999999,588.1643999999999,590.4476999999999,1565,590.4477999999999,4,591.4476999999999,0,22,22,23,1,1.4,0.3,Time
,,txy,001,f,21,2025-06-03_14h32.48.895,Serial_Dependence_U,2023.2.3,Win32,59.880239520968516,,,,,,591.4486999999999,77,0,591.4491,77,,,,595.4205999999999,595.9145999999998,594.8982999999998,595.4205,592.4657,594.8979999999999,595.9147999999998,596.4150999999999,596.4151999999999,598.1596,1143,598.1597999999999,2,599.1647999999998,0,23,23,28,1,1.4,0.7,Time
,,txy,001,f,21,2025-06-03_14h32.48.895,Serial_Dependence_U,2023.2.3,Win32,59.880239520968516,,,,,,599.1658,78,0,599.1662999999999,78,,,,602.7319999999997,603.2309999999998,602.2238,602.7315999999998,600.1824999999999,602.2233999999999,603.2309999999998,603.7309999999998,603.7314999999999,605.1812,933,605.1813,2,606.1821,0,24,24,26,1,1,0.7,Time
,,txy,001,f,21,2025-06-03_14h32.48.895,Serial_Dependence_U,2023.2.3,Win32,59.880239520968516,,,,,,606.1827999999998,343,0,606.1829999999998,343,,,,609.7476999999999,610.2481,609.2318999999998,609.7475,607.1987999999999,609.2312,610.2481,610.7475999999999,610.7476999999999,614.0983999999999,1927,614.0987,5,615.0981999999999,0,25,25,16,1,1,0.7,Time
,,txy,001,f,21,2025-06-03_14h32.48.895,Serial_Dependence_U,2023.2.3,Win32,59.880239520968516,,,,,,615.0989999999999,176,0,615.0993999999998,176,,,,618.8649999999998,619.3644999999999,618.3483999999999,618.8646999999999,616.1162999999999,618.3477999999998,619.3645999999999,619.8652,619.8652,621.5817999999999,1181,621.5819999999999,3,622.5814999999998,0,26,26,17,1,1.2,0.7,Time
,,txy,001,f,21,2025-06-03_14h32.48.895,Serial_Dependence_U,2023.2.3,Win32,59.880239520968516,,,,,,622.5823999999998,354,0,622.5826999999999,354,,,,626.3329999999999,626.8314999999998,625.8157999999999,626.3326,623.5832999999998,625.8151,626.8316,627.3310999999999,627.3312999999998,628.7353999999998,851,628.7354999999998,2,629.7314999999999,0,27,27,7,1,1.2,0.7,Time
,,txy,001,f,21,2025-06-03_14h32.48.895,Serial_Dependence_U,2023.2.3,Win32,59.880239520968516,,,,,,629.7323999999999,63,0,629.7326,63,,,,633.5230999999999,634.0148999999999,633.0158999999999,633.5228,630.7538,633.0153999999998,634.0148999999999,634.5146,634.5147999999999,636.0419999999999,881,636.0421999999999,2,637.0314999999998,0,28,28,2,1,1.2,0.3,Time
,,txy,001,f,21,2025-06-03_14h32.48.895,Serial_Dependence_U,2023.2.3,Win32,59.880239520968516,,,,,,637.0326,234,0,637.0328999999999,234,,,,640.4313999999999,640.9311,639.9154999999998,640.4312,638.0404999999998,639.9149999999997,640.9313,641.4305999999999,641.4305999999999,643.1143999999999,1101,643.1144999999999,5,644.1144999999999,0,29,29,0,1,0.8,0.3,Time
,,txy,001,f,21,2025-06-03_14h32.48.895,Serial_Dependence_U,2023.2.3,Win32,59.880239520968516,,,,,,644.1158999999998,16,1,647.2312,16,s,3.08929999999998,,650.6077,651.0982999999999,650.0826999999999,650.6072999999999,648.2479999999998,650.0820999999999,651.0983999999999,651.5972999999999,651.5973999999999,652.8142999999998,576,652.8145,2,652.8151,1,0,30,15,1,0.8,0.7,Time
,,txy,001,f,21,2025-06-03_14h32.48.895,Serial_Dependence_U,2023.2.3,Win32,59.880239520968516,,,,,,652.8156999999999,167,1,652.8183999999999,167,,,,656.4206999999999,656.9149999999997,655.8996999999999,656.4204,653.8213999999998,655.8991999999998,656.9149999999997,657.4144999999999,657.4146999999998,659.1641999999999,1182,659.1642999999999,4,659.1651999999999,1,1,31,1,1,1,0.3,Time
,,txy,001,f,21,2025-06-03_14h32.48.895,Serial_Dependence_U,2023.2.3,Win32,59.880239520968516,,,,,,659.1654999999998,252,1,659.1658,252,,,,662.5324999999998,663.0303999999999,662.0310999999999,662.5319999999999,660.1653999999999,662.0309,663.0303999999999,663.5304999999998,663.5305999999998,664.9141999999999,686,664.9141999999999,2,664.9150999999999,1,2,32,20,1,0.8,0.3,Time
,,txy,001,f,21,2025-06-03_14h32.48.895,Serial_Dependence_U,2023.2.3,Win32,59.880239520968516,,,,,,664.9159,248,1,664.9160999999999,248,,,,668.8983999999998,669.3978,668.3816999999999,668.8981999999999,665.9149999999997,668.3812999999998,669.3979999999999,669.8978,669.8979999999999,671.6407999999999,899,671.6408999999999,1,671.6415,1,3,33,3,1,1.4,0.3,Time
,,txy,001,f,21,2025-06-03_14h32.48.895,Serial_Dependence_U,2023.2.3,Win32,59.880239520968516,,,,,,671.6422,162,1,671.6424999999999,162,,,,675.2239999999999,675.7185999999999,674.7218999999998,675.2237,672.6547999999998,674.7216999999998,675.7185999999999,676.2180999999998,676.2182,678.2904999999998,1283,678.2906,4,678.2912999999999,1,4,34,11,1,1,0.3,Time
,,txy,001,f,21,2025-06-03_14h32.48.895,Serial_Dependence_U,2023.2.3,Win32,59.880239520968516,,,,,,678.2917,7,1,678.2921999999999,7,,,,682.0321999999999,682.5308,681.5205999999998,682.0317,679.2830999999999,681.5204999999999,682.5309,683.0314999999998,683.0316,684.7696999999998,936,684.7696999999998,2,684.7699999999998,1,5,35,27,1,1.2,0.7,Time
,,txy,001,f,21,2025-06-03_14h32.48.895,Serial_Dependence_U,2023.2.3,Win32,59.880239520968516,,,,,,684.7702999999999,136,1,684.7703999999999,136,,,,688.1319999999998,688.6310999999998,687.6157999999998,688.1315999999999,685.7813999999998,687.6154999999999,688.6311999999998,689.1311999999998,689.1311999999998,690.2641999999998,758,690.2643999999998,2,690.2648999999999,1,6,36,25,1,0.8,0.7,Time
,,txy,001,f,21,2025-06-03_14h32.48.895,Serial_Dependence_U,2023.2.3,Win32,59.880239520968516,,,,,,690.2656999999999,130,1,690.2658999999999,130,,,,694.4662999999998,694.9637,693.9479999999999,694.4657,691.2817,693.9476,694.9638,695.4647,695.4648,696.5669999999998,452,696.5671,1,696.5681,1,7,37,24,1,1.6,0.3,Time
,,txy,001,f,21,2025-06-03_14h32.48.895,Serial_Dependence_U,2023.2.3,Win32,59.880239520968516,,,,,,696.5685999999998,304,1,696.5686999999998,304,,,,700.3397,700.8317999999999,699.8371999999999,700.3393999999998,697.5899999999999,699.8369999999998,700.8318999999999,701.3309999999999,701.3310999999999,703.2251999999999,1309,703.2252999999998,4,703.2257999999999,1,8,38,17,1,1.2,0.7,Time
,,txy,001,f,21,2025-06-03_14h32.48.895,Serial_Dependence_U,2023.2.3,Win32,59.880239520968516,,,,,,703.2262999999998,180,1,703.2266999999999,180,,,,707.3647999999998,707.8641,706.8542,707.3643,704.2221999999999,706.8538999999998,707.8643,708.3652,708.3652999999999,710.3582999999999,1418,710.3583999999998,2,710.3591999999999,1,9,39,9,1,1.6,0.7,Time
,,txy,001,f,21,2025-06-03_14h32.48.895,Serial_Dependence_U,2023.2.3,Win32,59.880239520968516,,,,,,710.3598,138,1,710.3599999999999,138,,,,713.7321999999999,714.2309999999998,713.2150999999999,713.7317999999998,711.3831,713.2147,714.2309999999998,714.7315999999998,714.7317999999998,715.9308999999998,621,715.9311,2,715.9313,1,10,40,5,1,0.8,0.7,Time
,,txy,001,f,21,2025-06-03_14h32.48.895,Serial_Dependence_U,2023.2.3,Win32,59.880239520968516,,,,,,715.9317999999998,287,1,715.9323999999999,287,,,,719.3230999999998,719.8153,718.8152,719.3227999999999,716.9477999999999,718.8147999999999,719.8153,720.3148999999999,720.3149999999998,721.6814999999999,716,721.6816999999999,2,721.6822,1,11,41,10,1,0.8,0.3,Time
,,txy,001,f,21,2025-06-03_14h32.48.895,Serial_Dependence_U,2023.2.3,Win32,59.880239520968516,,,,,,721.6829999999998,94,1,721.6834999999999,94,,,,725.2729999999999,725.7647999999999,724.7701,725.2727,722.6898999999999,724.7698999999998,725.7647999999999,726.2644999999998,726.2644999999998,727.8347999999999,573,727.8349999999998,1,727.8353999999999,1,12,42,21,1,1,0.3,Time
,,txy,001,f,21,2025-06-03_14h32.48.895,Serial_Dependence_U,2023.2.3,Win32,59.880239520968516,,,,,,727.8359999999998,169,1,727.8362,169,,,,731.6148999999998,732.1145999999999,731.1065999999998,731.6139999999998,728.8397,731.1062,732.1145999999999,732.6149999999998,732.6149999999998,734.2137,855,734.2138,2,734.2141999999999,1,13,43,22,1,1.2,0.3,Time
,,txy,001,f,21,2025-06-03_14h32.48.895,Serial_Dependence_U,2023.2.3,Win32,59.880239520968516,,,,,,734.2149999999999,6,1,734.2151999999999,6,,,,738.2212999999999,738.7139999999999,737.7038,738.2211,735.2313999999999,737.7035999999998,738.7139999999999,739.2142999999999,739.2144999999998,741.2138,1071,741.2138,2,741.2140999999999,1,14,44,13,1,1.4,0.3,Time
,,txy,001,f,21,2025-06-03_14h32.48.895,Serial_Dependence_U,2023.2.3,Win32,59.880239520968516,,,,,,741.2144999999998,298,1,741.2147,298,,,,745.3862999999999,745.8803999999998,744.8838999999998,745.3860999999999,742.2364999999998,744.8836999999999,745.8804999999998,746.3802999999998,746.3803999999998,746.8363999999999,28,746.8363999999999,1,746.8366999999998,1,15,45,29,1,1.6,0.7,Time
,,txy,001,f,21,2025-06-03_14h32.48.895,Serial_Dependence_U,2023.2.3,Win32,59.880239520968516,,,,,,746.8376999999998,206,1,746.8378999999998,206,,,,750.2321999999999,750.7312999999999,749.7222999999999,750.2315999999998,747.8581999999999,749.7218999999998,750.7313999999999,751.2317999999998,751.2318999999998,752.8517999999999,808,752.8518999999999,3,752.8522999999998,1,16,46,0,1,0.8,0.3,Time
,,txy,001,f,21,2025-06-03_14h32.48.895,Serial_Dependence_U,2023.2.3,Win32,59.880239520968516,,,,,,752.8529999999998,347,1,752.8533,347,,,,756.4396999999999,756.9314999999999,755.9219999999998,756.4394,753.8721,755.9216999999999,756.9314999999999,757.4312,757.4313999999999,759.0481,875,759.0481,2,759.0488999999998,1,17,47,16,1,1,0.7,Time
,,txy,001,f,21,2025-06-03_14h32.48.895,Serial_Dependence_U,2023.2.3,Win32,59.880239520968516,,,,,,759.0493999999999,247,1,759.0495999999998,247,,,,763.2475999999999,763.7468999999999,762.7308999999998,763.2474,760.0641999999998,762.7306999999998,763.7468999999999,764.2468999999999,764.2469999999998,766.2472,1334,766.2472,2,766.2476999999999,1,18,48,4,1,1.6,0.3,Time
,,txy,001,f,21,2025-06-03_14h32.48.895,Serial_Dependence_U,2023.2.3,Win32,59.880239520968516,,,,,,766.2479999999998,204,1,766.2482,204,,,,770.0143999999998,770.5139999999999,769.4976999999999,770.0142999999998,767.2638999999999,769.4975,770.5140999999999,771.0150999999998,771.0151999999998,772.6604999999997,854,772.6604999999997,2,772.6613,1,19,49,7,1,1.2,0.7,Time
,,txy,001,f,21,2025-06-03_14h32.48.895,Serial_Dependence_U,2023.2.3,Win32,59.880239520968516,,,,,,772.6616999999999,263,1,772.6619999999998,263,,,,776.6321,777.1304999999998,776.1237999999998,776.6317999999999,773.6903,776.1235999999999,777.1306,777.6312999999998,777.6315999999999,779.2312999999999,779,779.2313999999999,1,779.2319999999997,1,20,50,18,1,1.4,0.7,Time
,,txy,001,f,21,2025-06-03_14h32.48.895,Serial_Dependence_U,2023.2.3,Win32,59.880239520968516,,,,,,779.2327,0,1,779.2329,0,,,,783.1986999999999,783.6972999999998,782.6831999999999,783.1983999999998,780.2493,782.6828999999998,783.6972999999998,784.1972999999998,784.1972999999998,785.8970999999999,620,785.8971999999999,1,785.8976,1,21,51,28,1,1.4,0.7,Time
,,txy,001,f,21,2025-06-03_14h32.48.895,Serial_Dependence_U,2023.2.3,Win32,59.880239520968516,,,,,,785.8980999999999,341,1,785.8982999999998,341,,,,789.6980999999998,790.1971999999998,789.1807999999999,789.6977999999999,786.9142999999999,789.1805999999999,790.1972999999998,790.6969999999999,790.6971999999998,791.7977999999998,435,791.7979999999998,1,791.7985999999999,1,22,52,12,1,1.2,0.3,Time
,,txy,001,f,21,2025-06-03_14h32.48.895,Serial_Dependence_U,2023.2.3,Win32,59.880239520968516,,,,,,791.7992999999999,283,1,791.7995999999998,283,,,,795.5976999999998,796.0969999999998,795.0810999999999,795.5973999999999,792.8141999999998,795.0808999999999,796.0969999999998,796.5971,796.5971999999999,798.4979999999998,795,798.4981,1,798.4984999999999,1,23,53,2,1,1.2,0.3,Time
,,txy,001,f,21,2025-06-03_14h32.48.895,Serial_Dependence_U,2023.2.3,Win32,59.880239520968516,,,,,,798.4991,5,1,798.4993,5,,,,802.0651,802.5639999999999,801.5478999999998,802.0647999999999,799.5146,801.5476999999998,802.5639999999999,803.0637999999999,803.0637999999999,804.4974,667,804.4975999999999,1,804.4983,1,24,54,6,1,1,0.7,Time
,,txy,001,f,21,2025-06-03_14h32.48.895,Serial_Dependence_U,2023.2.3,Win32,59.880239520968516,,,,,,804.4993,72,1,804.4994999999999,72,,,,808.0493999999999,808.5491,807.5323999999998,808.0488999999998,805.4989999999998,807.5319999999999,808.5494999999999,809.0485999999999,809.0485999999999,810.3142999999998,683,810.3142999999998,1,810.3147999999999,1,25,55,26,1,1,0.7,Time
,,txy,001,f,21,2025-06-03_14h32.48.895,Serial_Dependence_U,2023.2.3,Win32,59.880239520968516,,,,,,810.3153,187,1,810.3155999999999,187,,,,814.5156999999999,815.0146,813.9985999999999,814.5154999999997,811.3310999999999,813.9982,815.0146,815.5150999999998,815.5151999999998,816.6645999999998,561,816.6647999999998,1,816.6650999999999,1,26,56,14,1,1.6,0.3,Time
,,txy,001,f,21,2025-06-03_14h32.48.895,Serial_Dependence_U,2023.2.3,Win32,59.880239520968516,,,,,,816.6661999999999,345,1,816.6664999999998,345,,,,820.6151,821.1145999999999,820.0988,820.6147999999998,817.6662999999999,820.0986,821.1145999999999,821.6146999999999,821.6147999999998,823.1319999999998,730,823.1321999999998,1,823.1333,1,27,57,8,1,1.4,0.7,Time
,,txy,001,f,21,2025-06-03_14h32.48.895,Serial_Dependence_U,2023.2.3,Win32,59.880239520968516,,,,,,823.1341999999997,47,1,823.1343999999999,47,,,,827.2996999999998,827.7983999999999,826.7819,827.2993999999999,824.1487999999999,826.7816,827.7984999999999,828.2982999999999,828.2983999999999,829.6316999999997,695,829.6317999999999,1,829.6324,1,28,58,19,1,1.6,0.7,Time
,,txy,001,f,21,2025-06-03_14h32.48.895,Serial_Dependence_U,2023.2.3,Win32,59.880239520968516,,,,,,829.6329999999998,191,1,829.6331999999998,191,,,,833.6333,834.1315999999999,833.1165999999998,833.6327999999999,830.6489999999999,833.1161,834.1315999999999,834.6314,834.6314,835.8831,642,835.8833,1,835.8842999999999,1,29,59,23,1,1.4,0.3,Time
,,txy,001,f,21,2025-06-03_14h32.48.895,Serial_Dependence_U,2023.2.3,Win32,59.880239520968516,,,,,,835.8849,138,2,837.9152999999999,138,s,2.003500000000031,,842.0827999999999,842.5814999999998,841.5724,842.0818999999999,838.9239,841.5721999999998,842.5816999999997,843.0814,843.0814999999998,844.6729999999998,883,844.6729999999998,1,844.6735999999999,2,0,60,19,1,1.6,0.7,Time
,,txy,001,f,21,2025-06-03_14h32.48.895,Serial_Dependence_U,2023.2.3,Win32,59.880239520968516,,,,,,844.6749,347,2,844.6768,347,,,,848.0657999999999,848.5649999999998,847.5571,848.0654,845.6825999999999,847.5567999999998,848.5651,849.0651,849.0653,850.1813999999999,458,850.1814999999999,1,850.1822999999999,2,1,61,0,1,0.8,0.3,Time
,,txy,001,f,21,2025-06-03_14h32.48.895,Serial_Dependence_U,2023.2.3,Win32,59.880239520968516,,,,,,850.1831999999997,128,2,850.1833999999999,128,,,,853.9991,854.4977999999999,853.4901,853.9985999999999,851.2067999999999,853.4899,854.4979000000001,854.9979000000001,854.9981999999998,857.3479,763,857.3479999999997,1,857.3484999999998,2,2,62,22,1,1.2,0.3,Time
,,txy,001,f,21,2025-06-03_14h32.48.895,Serial_Dependence_U,2023.2.3,Win32,59.880239520968516,,,,,,857.3491999999999,261,2,857.3496,261,,,,861.3155999999999,861.8145,860.7992999999999,861.3147999999999,858.3644999999999,860.7985999999999,861.8145999999999,862.3139999999999,862.3140999999998,863.7573,700,863.7573,1,863.7576999999999,2,3,63,28,1,1.4,0.7,Time
,,txy,001,f,21,2025-06-03_14h32.48.895,Serial_Dependence_U,2023.2.3,Win32,59.880239520968516,,,,,,863.7581,147,2,863.7583,147,,,,867.9487999999999,868.4484,867.4395999999999,867.9480999999998,864.7561999999998,867.4392999999998,868.4484,868.9479999999999,868.9480999999998,870.8317999999999,768,870.8318999999999,1,870.8324999999998,2,4,64,14,1,1.6,0.3,Time
,,txy,001,f,21,2025-06-03_14h32.48.895,Serial_Dependence_U,2023.2.3,Win32,59.880239520968516,,,,,,870.8337999999999,73,2,870.8341999999998,73,,,,874.9999999999998,875.4981,874.4817999999998,874.9993,871.8480999999999,874.4809999999998,875.4981,875.9971999999998,875.9971999999998,877.4480999999998,508,877.4480999999998,1,877.4486999999997,2,5,65,9,1,1.6,0.7,Time
,,txy,001,f,21,2025-06-03_14h32.48.895,Serial_Dependence_U,2023.2.3,Win32,59.880239520968516,,,,,,877.4491999999998,99,2,877.4493,99,,,,881.4160999999999,881.9146999999998,880.9076999999997,881.4156999999998,878.4650999999999,880.9074,881.9146999999998,882.4152999999999,882.4152999999999,883.9809999999998,839,883.9811,1,883.9821999999997,2,6,66,18,1,1.4,0.7,Time
,,txy,001,f,21,2025-06-03_14h32.48.895,Serial_Dependence_U,2023.2.3,Win32,59.880239520968516,,,,,,883.9830999999999,175,2,883.9832999999999,175,,,,888.1569,888.6482999999998,887.6496999999997,888.1566,884.983,887.6492999999998,888.6484,889.1549,889.1549,891.1082999999999,666,891.1084999999998,1,891.1089,2,7,67,24,1,1.6,0.3,Time
,,txy,001,f,21,2025-06-03_14h32.48.895,Serial_Dependence_U,2023.2.3,Win32,59.880239520968516,,,,,,891.1096,157,2,891.1098999999999,157,,,,894.8986999999997,895.3982999999998,894.3831,894.8984,892.1155999999999,894.3824999999999,895.3984,895.8984999999998,895.8986,897.4321,723,897.4321999999997,1,897.4325999999999,2,8,68,12,1,1.2,0.3,Time
,,txy,001,f,21,2025-06-03_14h32.48.895,Serial_Dependence_U,2023.2.3,Win32,59.880239520968516,,,,,,897.4332999999999,72,2,897.4334999999999,72,,,,900.9989,901.4981,900.4815999999998,900.9984,898.4476999999997,900.4813999999999,901.4981999999998,901.9977999999999,901.9979000000001,903.2477999999999,585,903.2477999999999,1,903.2481,2,9,69,26,1,1,0.7,Time
,,txy,001,f,21,2025-06-03_14h32.48.895,Serial_Dependence_U,2023.2.3,Win32,59.880239520968516,,,,,,903.2491,79,2,903.2493,79,,,,907.4571999999998,907.9476999999997,906.9399999999998,907.4567999999999,904.2664,906.9396999999999,907.9477999999999,908.4480999999998,908.4482999999998,909.6936999999998,568,909.6936999999998,1,909.6942999999999,2,10,70,4,1,1.6,0.3,Time
,,txy,001,f,21,2025-06-03_14h32.48.895,Serial_Dependence_U,2023.2.3,Win32,59.880239520968516,,,,,,909.6949,339,2,909.6951999999999,339,,,,913.4906000000001,913.9821000000002,912.9733000000001,913.4904000000001,910.7056,912.9731000000002,913.9821000000002,914.4821999999999,914.4824000000001,915.6496000000002,611,915.6499000000001,1,915.6503,2,11,71,2,1,1.2,0.3,Time
,,txy,001,f,21,2025-06-03_14h32.48.895,Serial_Dependence_U,2023.2.3,Win32,59.880239520968516,,,,,,915.6509000000001,288,2,915.6510000000001,288,,,,919.6489000000001,920.1481000000001,919.1398000000002,919.6487,916.6661999999999,919.1396000000002,920.1481999999999,920.6481999999999,920.6483000000001,922.1320000000001,638,922.1321,1,922.1326000000001,2,12,72,23,1,1.4,0.3,Time
,,txy,001,f,21,2025-06-03_14h32.48.895,Serial_Dependence_U,2023.2.3,Win32,59.880239520968516,,,,,,922.1331,219,2,922.1338000000001,219,,,,925.8992000000001,926.3986000000002,925.3842,925.8986000000002,923.1484000000003,925.3834000000002,926.3987,926.8985,926.8986000000002,928.6079000000002,867,928.6079000000002,2,928.6084000000001,2,13,73,17,1,1.2,0.7,Time
,,txy,001,f,21,2025-06-03_14h32.48.895,Serial_Dependence_U,2023.2.3,Win32,59.880239520968516,,,,,,928.6089000000002,279,2,928.6089999999999,279,,,,931.9659000000001,932.4704999999999,931.4486000000002,931.9657,929.6161999999999,931.4484000000002,932.4706000000001,932.9648,932.9648,934.0645,355,934.0646000000002,1,934.065,2,14,74,15,1,0.8,0.7,Time
,,txy,001,f,21,2025-06-03_14h32.48.895,Serial_Dependence_U,2023.2.3,Win32,59.880239520968516,,,,,,934.0654000000002,122,2,934.0656000000001,122,,,,937.4665,937.9641999999999,936.9566000000002,937.4660000000001,935.0816000000002,936.9564000000003,937.9643000000001,938.4645,938.4646,939.5143,469,939.5144000000003,1,939.5147,2,15,75,10,1,0.8,0.3,Time
,,txy,001,f,21,2025-06-03_14h32.48.895,Serial_Dependence_U,2023.2.3,Win32,59.880239520968516,,,,,,939.5152,221,2,939.5156999999999,221,,,,943.2811000000002,943.7809000000002,942.7656999999999,943.2808,940.5326,942.7654000000002,943.7809000000002,944.281,944.281,945.4145000000001,617,945.4146000000001,1,945.4151000000002,2,16,76,27,1,1.2,0.7,Time
,,txy,001,f,21,2025-06-03_14h32.48.895,Serial_Dependence_U,2023.2.3,Win32,59.880239520968516,,,,,,945.4159000000002,56,2,945.4161999999999,56,,,,949.4156,949.9146000000001,948.8981000000001,949.4151999999999,946.4316000000001,948.8979000000002,949.9146000000001,950.4147,950.4148,951.7655,620,951.7658000000001,1,951.7666000000002,2,17,77,3,1,1.4,0.3,Time
,,txy,001,f,21,2025-06-03_14h32.48.895,Serial_Dependence_U,2023.2.3,Win32,59.880239520968516,,,,,,951.7678000000001,243,2,951.7683,243,,,,955.7653,956.2646000000002,955.2486999999999,955.7651000000001,952.7819999999999,955.2483,956.2647,956.7649000000001,956.7650000000001,957.9476999999999,735,957.9478000000001,1,957.9482,2,18,78,13,1,1.4,0.3,Time
,,txy,001,f,21,2025-06-03_14h32.48.895,Serial_Dependence_U,2023.2.3,Win32,59.880239520968516,,,,,,957.9492,198,2,957.9495,198,,,,961.3481000000002,961.8481000000002,960.8329000000001,961.3479000000002,958.9655,960.8324000000002,961.8481999999999,962.3489999999999,962.3489999999999,963.8404,690,963.8409000000001,2,963.8415,2,19,79,20,1,0.8,0.3,Time
,,txy,001,f,21,2025-06-03_14h32.48.895,Serial_Dependence_U,2023.2.3,Win32,59.880239520968516,,,,,,963.8420000000001,14,2,963.8421000000001,14,,,,968.0156000000002,968.5151000000001,967.5074000000002,968.0153,964.8514000000002,967.5072,968.5152,969.0150000000001,969.0150000000001,970.615,816,970.6152,1,970.6158,2,20,80,29,1,1.6,0.7,Time
,,txy,001,f,21,2025-06-03_14h32.48.895,Serial_Dependence_U,2023.2.3,Win32,59.880239520968516,,,,,,970.6166000000001,68,2,970.6168,68,,,,974.1822,974.6814000000002,973.6654000000001,974.1816999999999,971.6334999999999,973.6653000000001,974.6816999999999,975.1814000000002,975.1814000000002,977.0313000000001,836,977.0315,2,977.0319000000002,2,21,81,6,1,1,0.7,Time
,,txy,001,f,21,2025-06-03_14h32.48.895,Serial_Dependence_U,2023.2.3,Win32,59.880239520968516,,,,,,977.0329000000002,147,2,977.0332000000001,147,,,,980.5981999999999,981.0988,980.0822000000001,980.5979000000002,978.0491000000002,980.0816000000002,981.0989000000002,981.5983000000001,981.5984000000001,983.2592,609,983.2593000000002,1,983.2598,2,22,82,16,1,1,0.7,Time
,,txy,001,f,21,2025-06-03_14h32.48.895,Serial_Dependence_U,2023.2.3,Win32,59.880239520968516,,,,,,983.2601999999999,158,2,983.2604000000001,158,,,,986.8491000000001,987.3387,986.3320000000001,986.8486,984.2652,986.3317,987.3387,987.8320000000001,987.8321000000001,989.2815,652,989.2817,1,989.2819999999999,2,23,83,21,1,1,0.3,Time
,,txy,001,f,21,2025-06-03_14h32.48.895,Serial_Dependence_U,2023.2.3,Win32,59.880239520968516,,,,,,989.2826,290,2,989.2832000000001,290,,,,992.6494000000002,993.1481999999999,992.1400000000001,992.6490000000001,990.307,992.1397,993.1483000000001,993.6479000000002,993.6479999999999,995.6678000000002,986,995.6680000000001,4,995.6686000000002,2,24,84,5,1,0.8,0.7,Time
,,txy,001,f,21,2025-06-03_14h32.48.895,Serial_Dependence_U,2023.2.3,Win32,59.880239520968516,,,,,,995.6691000000001,143,2,995.6694000000002,143,,,,999.0335,999.531,998.5237,999.0331000000001,996.6886999999999,998.5233000000001,999.5311999999999,1000.0325,1000.0326,1002.3091999999999,802,1002.3091999999999,3,1002.3101000000001,2,25,85,25,1,0.8,0.7,Time
,,txy,001,f,21,2025-06-03_14h32.48.895,Serial_Dependence_U,2023.2.3,Win32,59.880239520968516,,,,,,1002.3106,283,2,1002.3108,283,,,,1006.0821000000001,1006.5820000000001,1005.5707,1006.0817,1003.3393000000001,1005.5705,1006.5820000000001,1007.0818000000002,1007.0819000000001,1008.9816000000001,947,1008.9817,2,1008.9821999999999,2,26,86,7,1,1.2,0.7,Time
,,txy,001,f,21,2025-06-03_14h32.48.895,Serial_Dependence_U,2023.2.3,Win32,59.880239520968516,,,,,,1008.9827,307,2,1008.9829000000002,307,,,,1012.5819000000001,1013.0822000000001,1012.0659,1012.5816000000002,1009.9988000000001,1012.065,1013.0822000000001,1013.5815,1013.5816000000002,1015.1812,572,1015.1812,1,1015.1818000000001,2,27,87,1,1,1,0.3,Time
,,txy,001,f,21,2025-06-03_14h32.48.895,Serial_Dependence_U,2023.2.3,Win32,59.880239520968516,,,,,,1015.1826000000001,312,2,1015.1828,312,,,,1018.7815,1019.2811999999999,1018.2654000000002,1018.7813000000001,1016.1985,1018.2651000000001,1019.2814000000001,1019.7811000000002,1019.7811999999999,1021.3320000000001,497,1021.3321000000001,1,1021.3326999999999,2,28,88,11,1,1,0.3,Time
,,txy,001,f,21,2025-06-03_14h32.48.895,Serial_Dependence_U,2023.2.3,Win32,59.880239520968516,,,,,,1021.3336999999999,105,2,1021.3339000000001,105,,,,1025.2988,1025.7985,1024.7824,1025.2985,1022.3489000000002,1024.7821000000001,1025.7985,1026.2978,1026.2978,1027.4151000000002,464,1027.4153000000001,1,1027.4157,2,29,89,8,1,1.4,0.7,Time
,,txy,001,f,21,2025-06-03_14h32.48.895,Serial_Dependence_U,2023.2.3,Win32,59.880239520968516,,,,,,1027.4162,298,3,1029.1822,298,s,1.7453999999997905,,1032.9495,1033.4487,1032.4331000000002,1032.9491,1030.1992,1032.4315,1033.4487,1033.9481,1033.9483,1035.4314000000002,556,1035.4315,1,1035.4318,3,0,90,17,1,1.2,0.7,Time
,,txy,001,f,21,2025-06-03_14h32.48.895,Serial_Dependence_U,2023.2.3,Win32,59.880239520968516,,,,,,1035.4323000000002,318,3,1035.4346,318,,,,1038.7994,1039.2982,1038.2904,1038.7989000000002,1036.4495,1038.2902,1039.2983000000002,1039.7986,1039.7987,1040.9082,474,1040.9087,1,1040.9091,3,1,91,15,1,0.8,0.7,Time
,,txy,001,f,21,2025-06-03_14h32.48.895,Serial_Dependence_U,2023.2.3,Win32,59.880239520968516,,,,,,1040.9096000000002,157,3,1040.9098000000001,157,,,,1045.0986,1045.5978,1044.5819000000001,1045.0984,1041.915,1044.5811,1045.5979000000002,1046.0985,1046.0986,1047.7647,884,1047.7649000000001,1,1047.7654000000002,3,2,92,24,1,1.6,0.3,Time
,,txy,001,f,21,2025-06-03_14h32.48.895,Serial_Dependence_U,2023.2.3,Win32,59.880239520968516,,,,,,1047.766,63,3,1047.7662,63,,,,1051.3318000000002,1051.8314000000003,1050.8155,1051.3315,1048.7828,1050.8151,1051.8315,1052.3327,1052.3328000000001,1053.916,949,1053.9161000000001,2,1053.9166,3,3,93,26,1,1,0.7,Time
,,txy,001,f,21,2025-06-03_14h32.48.895,Serial_Dependence_U,2023.2.3,Win32,59.880239520968516,,,,,,1053.9173,110,3,1053.9174,110,,,,1057.9167,1058.4154,1057.3990000000001,1057.9161000000001,1054.9327,1057.3985,1058.4155,1058.9152,1058.9153000000001,1059.8146000000002,168,1059.8147,1,1059.8149,3,4,94,3,1,1.4,0.3,Time
,,txy,001,f,21,2025-06-03_14h32.48.895,Serial_Dependence_U,2023.2.3,Win32,59.880239520968516,,,,,,1059.8154000000002,187,3,1059.8159,187,,,,1064.0161,1064.5144000000003,1063.4989,1064.0157,1060.8323,1063.4983,1064.5144000000003,1065.0148000000002,1065.0148000000002,1066.3479000000002,784,1066.348,1,1066.3487,3,5,95,4,1,1.6,0.3,Time
,,txy,001,f,21,2025-06-03_14h32.48.895,Serial_Dependence_U,2023.2.3,Win32,59.880239520968516,,,,,,1066.3494,312,3,1066.3496,312,,,,1070.3149,1070.8145,1069.799,1070.3146000000002,1067.3656,1069.7986,1070.8146000000002,1071.3151,1071.3152,1072.8254000000002,981,1072.8255,2,1072.8261,3,6,96,8,1,1.4,0.7,Time
,,txy,001,f,21,2025-06-03_14h32.48.895,Serial_Dependence_U,2023.2.3,Win32,59.880239520968516,,,,,,1072.8266,196,3,1072.827,196,,,,1076.9666000000002,1077.4653,1076.4563,1076.9660000000001,1073.8234000000002,1076.4561,1077.4655,1077.9654,1077.9655,1079.7646000000002,1002,1079.7647,1,1079.7653,3,7,97,29,1,1.6,0.7,Time
,,txy,001,f,21,2025-06-03_14h32.48.895,Serial_Dependence_U,2023.2.3,Win32,59.880239520968516,,,,,,1079.7657,336,3,1079.766,336,,,,1083.1312,1083.6314000000002,1082.6155,1083.131,1080.7825,1082.6151000000002,1083.6314000000002,1084.1321,1084.1322,1085.6818,896,1085.6819,4,1085.6824000000001,3,8,98,25,1,0.8,0.7,Time
,,txy,001,f,21,2025-06-03_14h32.48.895,Serial_Dependence_U,2023.2.3,Win32,59.880239520968516,,,,,,1085.683,18,3,1085.6832,18,,,,1089.2828,1089.7806,1088.7673,1089.2825,1086.6989,1088.7668,1089.7806,1090.2815,1090.2816,1091.9152,1014,1091.9153000000001,3,1091.916,3,9,99,21,1,1,0.3,Time
,,txy,001,f,21,2025-06-03_14h32.48.895,Serial_Dependence_U,2023.2.3,Win32,59.880239520968516,,,,,,1091.9166,94,3,1091.9169000000002,94,,,,1095.4827,1095.9816,1094.9659000000001,1095.4822,1092.9322,1094.9655,1095.9817,1096.4809000000002,1096.481,1098.0982,784,1098.0983,2,1098.0989000000002,3,10,100,6,1,1,0.7,Time
,,txy,001,f,21,2025-06-03_14h32.48.895,Serial_Dependence_U,2023.2.3,Win32,59.880239520968516,,,,,,1098.0995,16,3,1098.0997,16,,,,1101.6985,1102.1981,1101.1839000000002,1101.6983,1099.1164,1101.1834000000001,1102.1981,1102.6985,1102.6986000000002,1103.7977,533,1103.7978,1,1103.798,3,11,101,11,1,1,0.3,Time
,,txy,001,f,21,2025-06-03_14h32.48.895,Serial_Dependence_U,2023.2.3,Win32,59.880239520968516,,,,,,1103.7989000000002,7,3,1103.7992,7,,,,1107.1988000000001,1107.6984000000002,1106.6822,1107.1983,1104.8149,1106.6814000000002,1107.6984000000002,1108.1988000000001,1108.1989,1109.3414000000002,517,1109.3415,1,1109.3424000000002,3,12,102,20,1,0.8,0.3,Time
,,txy,001,f,21,2025-06-03_14h32.48.895,Serial_Dependence_U,2023.2.3,Win32,59.880239520968516,,,,,,1109.343,198,3,1109.3432,198,,,,1113.0991999999999,1113.5983,1112.5815,1113.0988,1110.339,1112.5811999999999,1113.5983,1114.0983,1114.0984,1115.6646,1003,1115.6647,2,1115.665,3,13,103,7,1,1.2,0.7,Time
,,txy,001,f,21,2025-06-03_14h32.48.895,Serial_Dependence_U,2023.2.3,Win32,59.880239520968516,,,,,,1115.6659000000002,237,3,1115.6662,237,,,,1119.4661,1119.9646,1118.9484000000002,1119.4654,1116.6826,1118.9481,1119.9646,1120.4646,1120.4647,1122.1478,1149,1122.1479000000002,3,1122.1483,3,14,104,22,1,1.2,0.3,Time
,,txy,001,f,21,2025-06-03_14h32.48.895,Serial_Dependence_U,2023.2.3,Win32,59.880239520968516,,,,,,1122.1490000000001,215,3,1122.1494000000002,215,,,,1125.5154000000002,1126.015,1125.0068,1125.5151,1123.1657,1125.0065,1126.015,1126.5216,1126.5217,1127.8813,823,1127.8813,3,1127.8816000000002,3,15,105,5,1,0.8,0.7,Time
,,txy,001,f,21,2025-06-03_14h32.48.895,Serial_Dependence_U,2023.2.3,Win32,59.880239520968516,,,,,,1127.8822,293,3,1127.8824000000002,293,,,,1131.2821999999999,1131.7812,1130.7654000000002,1131.2816,1128.8994000000002,1130.765,1131.7812,1132.2808,1132.2808,1133.3814000000002,588,1133.3815,2,1133.382,3,16,106,0,1,0.8,0.3,Time
,,txy,001,f,21,2025-06-03_14h32.48.895,Serial_Dependence_U,2023.2.3,Win32,59.880239520968516,,,,,,1133.383,291,3,1133.3835,291,,,,1137.5663,1138.0647,1137.0504,1137.5656999999999,1134.3826999999999,1137.0499000000002,1138.0648,1138.5651,1138.5652,1140.4603,1419,1140.4604000000002,2,1140.4613000000002,3,17,107,14,1,1.6,0.3,Time
,,txy,001,f,21,2025-06-03_14h32.48.895,Serial_Dependence_U,2023.2.3,Win32,59.880239520968516,,,,,,1140.4617,262,3,1140.4619000000002,262,,,,1143.8646999999999,1144.3652,1143.3584,1143.8644000000002,1141.4729000000002,1143.358,1144.3652,1144.8653000000002,1144.8654000000001,1146.6751000000002,1168,1146.6754,5,1146.676,3,18,108,10,1,0.8,0.3,Time
,,txy,001,f,21,2025-06-03_14h32.48.895,Serial_Dependence_U,2023.2.3,Win32,59.880239520968516,,,,,,1146.6765,8,3,1146.6768,8,,,,1150.2341999999999,1150.732,1149.7241999999999,1150.2339000000002,1147.6825000000001,1149.724,1150.7321000000002,1151.2316,1151.2318,1153.3145,1436,1153.3146000000002,5,1153.3151,3,19,109,16,1,1,0.7,Time
,,txy,001,f,21,2025-06-03_14h32.48.895,Serial_Dependence_U,2023.2.3,Win32,59.880239520968516,,,,,,1153.3159,105,3,1153.3163,105,,,,1156.9161000000001,1157.414,1156.3988000000002,1156.9157,1154.3341,1156.3986000000002,1157.414,1157.9148,1157.9149000000002,1159.7647,1120,1159.7648000000002,4,1159.7657,3,20,110,1,1,1,0.3,Time
,,txy,001,f,21,2025-06-03_14h32.48.895,Serial_Dependence_U,2023.2.3,Win32,59.880239520968516,,,,,,1159.7664000000002,117,3,1159.7667,117,,,,1163.9164,1164.4148,1163.4147,1163.916,1160.7814,1163.4144000000001,1164.4148,1164.9146,1164.9148,1167.0641,1101,1167.0641,1,1167.0643,3,21,111,9,1,1.6,0.7,Time
,,txy,001,f,21,2025-06-03_14h32.48.895,Serial_Dependence_U,2023.2.3,Win32,59.880239520968516,,,,,,1167.0646000000002,117,3,1167.0648,117,,,,1170.8237,1171.3152,1170.3156999999999,1170.8234000000002,1168.0824000000002,1170.3153,1171.3153,1171.8148,1171.8149,1173.8407,1416,1173.8407,4,1173.8413,3,22,112,27,1,1.2,0.7,Time
,,txy,001,f,21,2025-06-03_14h32.48.895,Serial_Dependence_U,2023.2.3,Win32,59.880239520968516,,,,,,1173.8421,339,3,1173.8423,339,,,,1177.6157,1178.1152,1177.1078,1177.6153000000002,1174.8401000000001,1177.1075,1178.1154000000001,1178.6152,1178.6153000000002,1180.2244,1127,1180.2247,2,1180.2254000000003,3,23,113,12,1,1.2,0.3,Time
,,txy,001,f,21,2025-06-03_14h32.48.895,Serial_Dependence_U,2023.2.3,Win32,59.880239520968516,,,,,,1180.2261,201,3,1180.2262,201,,,,1184.2155,1184.7144,1183.6984000000002,1184.215,1181.224,1183.6982,1184.7145,1185.2149000000002,1185.2149000000002,1186.9319,963,1186.9321000000002,1,1186.9331000000002,3,24,114,23,1,1.4,0.3,Time
,,txy,001,f,21,2025-06-03_14h32.48.895,Serial_Dependence_U,2023.2.3,Win32,59.880239520968516,,,,,,1186.9342,342,3,1186.9345,342,,,,1190.732,1191.2313000000001,1190.2155,1190.7317,1187.949,1190.2151000000001,1191.2313000000001,1191.7314000000001,1191.7315,1193.4318,1218,1193.4319,3,1193.4327,3,25,115,2,1,1.2,0.3,Time
,,txy,001,f,21,2025-06-03_14h32.48.895,Serial_Dependence_U,2023.2.3,Win32,59.880239520968516,,,,,,1193.4334000000001,324,3,1193.4342,324,,,,1197.406,1197.8983,1196.8825,1197.4057,1194.4491,1196.8821,1197.8983,1198.3988000000002,1198.3988000000002,1200.1218000000001,1129,1200.122,2,1200.1227,3,26,116,28,1,1.4,0.7,Time
,,txy,001,f,21,2025-06-03_14h32.48.895,Serial_Dependence_U,2023.2.3,Win32,59.880239520968516,,,,,,1200.1233,164,3,1200.1234000000002,164,,,,1204.2661,1204.7654000000002,1203.7499000000003,1204.2658000000001,1201.1171000000002,1203.7496,1204.7655,1205.2646000000002,1205.2647,1207.0809000000002,1085,1207.0811,1,1207.0818000000002,3,27,117,19,1,1.6,0.7,Time
,,txy,001,f,21,2025-06-03_14h32.48.895,Serial_Dependence_U,2023.2.3,Win32,59.880239520968516,,,,,,1207.0824000000002,47,3,1207.0826000000002,47,,,,1211.0827,1211.581,1210.5652,1211.0825,1208.0981000000002,1210.5649,1211.581,1212.0814000000003,1212.0815,1213.4515000000001,859,1213.4516,1,1213.4524000000001,3,28,118,13,1,1.4,0.3,Time
,,txy,001,f,21,2025-06-03_14h32.48.895,Serial_Dependence_U,2023.2.3,Win32,59.880239520968516,,,,,,1213.4531000000002,28,3,1213.4533000000001,28,,,,1217.3992,1217.8981999999999,1216.8906000000002,1217.3989000000001,1214.4578000000001,1216.8903,1217.8981999999999,1218.3975,1218.3975,1220.1596000000002,1043,1220.1596000000002,2,1220.16,3,29,119,18,1,1.4,0.7,Time
,,txy,001,f,21,2025-06-03_14h32.48.895,Serial_Dependence_U,2023.2.3,Win32,59.880239520968516,,,,,,1220.1604000000002,14,4,1221.6155,14,s,1.438200000000279,,1225.4161000000001,1225.9147,1224.9077,1225.4158,1222.6326000000001,1224.9074,1225.9148,1226.4152,1226.4153000000001,1227.7812,737,1227.7813,1,1227.7816,4,0,120,12,1,1.2,0.3,Time
,,txy,001,f,21,2025-06-03_14h32.48.895,Serial_Dependence_U,2023.2.3,Win32,59.880239520968516,,,,,,1227.7825,292,4,1227.7851,292,,,,1231.9491,1232.449,1231.4315,1231.9485,1228.7983000000002,1231.4312,1232.4491,1232.9488000000001,1232.9488000000001,1233.9483,418,1233.9484000000002,1,1233.9486000000002,4,1,121,29,1,1.6,0.7,Time
,,txy,001,f,21,2025-06-03_14h32.48.895,Serial_Dependence_U,2023.2.3,Win32,59.880239520968516,,,,,,1233.9491,10,4,1233.9497,10,,,,1237.9493,1238.4476000000002,1237.4328,1237.9491,1234.9657,1237.4325000000001,1238.4477,1238.9486000000002,1238.9486000000002,1240.5317,889,1240.5318,1,1240.5321999999999,4,2,122,13,1,1.4,0.3,Time
,,txy,001,f,21,2025-06-03_14h32.48.895,Serial_Dependence_U,2023.2.3,Win32,59.880239520968516,,,,,,1240.5328,274,4,1240.533,274,,,,1244.1325,1244.6313,1243.6163000000001,1244.1321,1241.5498,1243.6159000000002,1244.6314000000002,1245.1314000000002,1245.1315,1246.5597,583,1246.5598,1,1246.5601000000001,4,3,123,1,1,1,0.3,Time
,,txy,001,f,21,2025-06-03_14h32.48.895,Serial_Dependence_U,2023.2.3,Win32,59.880239520968516,,,,,,1246.5607,328,4,1246.5609000000002,328,,,,1250.7323000000001,1251.2317,1250.2158000000002,1250.732,1247.5736000000002,1250.2153,1251.2317,1251.7312,1251.7313000000001,1253.2812,849,1253.2813,1,1253.2817,4,4,124,19,1,1.6,0.7,Time
,,txy,001,f,21,2025-06-03_14h32.48.895,Serial_Dependence_U,2023.2.3,Win32,59.880239520968516,,,,,,1253.2821000000001,292,4,1253.2823,292,,,,1257.2493,1257.7484000000002,1256.7323000000001,1257.2491,1254.2981000000002,1256.7319000000002,1257.7484000000002,1258.249,1258.2491,1259.4486000000002,598,1259.4487,1,1259.4493,4,5,125,18,1,1.4,0.7,Time
,,txy,001,f,21,2025-06-03_14h32.48.895,Serial_Dependence_U,2023.2.3,Win32,59.880239520968516,,,,,,1259.4501,10,4,1259.4503,10,,,,1263.4161000000001,1263.915,1262.8993,1263.4157,1260.4653,1262.8990000000001,1263.915,1264.4155,1264.4155,1265.5155,605,1265.5156000000002,1,1265.5159,4,6,126,28,1,1.4,0.7,Time
,,txy,001,f,21,2025-06-03_14h32.48.895,Serial_Dependence_U,2023.2.3,Win32,59.880239520968516,,,,,,1265.5165,198,4,1265.5166000000002,198,,,,1268.9152,1269.4147,1268.3989000000001,1268.9147,1266.5325,1268.3987,1269.4148,1269.9152,1269.9153000000001,1270.733,727,1270.7331000000001,2,1270.7339000000002,4,7,127,20,1,0.8,0.3,Time
,,txy,001,f,21,2025-06-03_14h32.48.895,Serial_Dependence_U,2023.2.3,Win32,59.880239520968516,,,,,,1270.7344,152,4,1270.7346,152,,,,1274.5323,1275.0311000000002,1274.0166000000002,1274.5319000000002,1271.7496,1274.0153,1275.0325,1275.5316,1275.5316,1277.5584000000001,967,1277.5584000000001,2,1277.5589000000002,4,8,128,22,1,1.2,0.3,Time
,,txy,001,f,21,2025-06-03_14h32.48.895,Serial_Dependence_U,2023.2.3,Win32,59.880239520968516,,,,,,1277.5596,348,4,1277.5598,348,,,,1281.1159000000002,1281.6148,1280.6037,1281.1155,1278.5666,1280.6035,1281.6148,1282.1149000000003,1282.115,1283.815,863,1283.8151,2,1283.8162,4,9,129,16,1,1,0.7,Time
,,txy,001,f,21,2025-06-03_14h32.48.895,Serial_Dependence_U,2023.2.3,Win32,59.880239520968516,,,,,,1283.8169000000003,132,4,1283.8171000000002,132,,,,1287.7821999999999,1288.2821000000001,1287.2654000000002,1287.7818,1284.832,1287.2651,1288.2821000000001,1288.7813,1288.7814,1290.3935,613,1290.3936,1,1290.3944000000001,4,10,130,8,1,1.4,0.7,Time
,,txy,001,f,21,2025-06-03_14h32.48.895,Serial_Dependence_U,2023.2.3,Win32,59.880239520968516,,,,,,1290.3949000000002,205,4,1290.3951000000002,205,,,,1293.9985,1294.4984000000002,1293.4901000000002,1293.9983,1291.4071000000001,1293.4899000000003,1294.4984000000002,1294.9983,1294.9984000000002,1296.6486000000002,690,1296.6486000000002,1,1296.6494000000002,4,11,131,21,1,1,0.3,Time
,,txy,001,f,21,2025-06-03_14h32.48.895,Serial_Dependence_U,2023.2.3,Win32,59.880239520968516,,,,,,1296.65,164,4,1296.6504000000002,164,,,,1300.0317,1300.5319000000002,1299.5148000000002,1300.0315,1297.6681,1299.5146000000002,1300.5319000000002,1301.0316,1301.0317,1302.2145,653,1302.2146,2,1302.2151000000001,4,12,132,15,1,0.8,0.7,Time
,,txy,001,f,21,2025-06-03_14h32.48.895,Serial_Dependence_U,2023.2.3,Win32,59.880239520968516,,,,,,1302.2158000000002,166,4,1302.2161,166,,,,1305.9823000000001,1306.4815,1305.4659000000001,1305.9821000000002,1303.2321000000002,1305.4654,1306.4815,1306.982,1306.9821000000002,1308.5149000000001,714,1308.5151,1,1308.5155,4,13,133,27,1,1.2,0.7,Time
,,txy,001,f,21,2025-06-03_14h32.48.895,Serial_Dependence_U,2023.2.3,Win32,59.880239520968516,,,,,,1308.516,88,4,1308.5162,88,,,,1312.5164000000002,1313.0148000000002,1311.9997,1312.5161,1309.533,1311.9994000000002,1313.0148000000002,1313.5159,1313.516,1315.2825,748,1315.2825,1,1315.2831,4,14,134,23,1,1.4,0.3,Time
,,txy,001,f,21,2025-06-03_14h32.48.895,Serial_Dependence_U,2023.2.3,Win32,59.880239520968516,,,,,,1315.2837,127,4,1315.2839000000001,127,,,,1318.8494,1319.3487,1318.3334000000002,1318.8491999999999,1316.2997,1318.3329,1319.3487,1319.8485,1319.8487,1320.9149000000002,301,1320.915,1,1320.9156,4,15,135,6,1,1,0.7,Time
,,txy,001,f,21,2025-06-03_14h32.48.895,Serial_Dependence_U,2023.2.3,Win32,59.880239520968516,,,,,,1320.9164,9,4,1320.9166,9,,,,1324.3154000000002,1324.8153,1323.7998,1324.3152,1321.9325000000001,1323.7994,1324.8154000000002,1325.3149,1325.315,1326.9313,1004,1326.9314000000002,4,1326.9319,4,16,136,0,1,0.8,0.3,Time
,,txy,001,f,21,2025-06-03_14h32.48.895,Serial_Dependence_U,2023.2.3,Win32,59.880239520968516,,,,,,1326.9325000000001,302,4,1326.9329000000002,302,,,,1330.5323,1331.0316,1330.017,1330.5318,1327.9489,1330.0166000000002,1331.0316,1331.5335,1331.5336000000002,1333.2991000000002,785,1333.2992,2,1333.2998,4,17,137,11,1,1,0.3,Time
,,txy,001,f,21,2025-06-03_14h32.48.895,Serial_Dependence_U,2023.2.3,Win32,59.880239520968516,,,,,,1333.3005,259,4,1333.3007,259,,,,1337.4663,1337.9649000000002,1336.949,1337.4662,1334.3158,1336.9486000000002,1337.9651000000001,1338.464,1338.4641000000001,1340.2315,1011,1340.2316,1,1340.2324,4,18,138,9,1,1.6,0.7,Time
,,txy,001,f,21,2025-06-03_14h32.48.895,Serial_Dependence_U,2023.2.3,Win32,59.880239520968516,,,,,,1340.2332,135,4,1340.2335,135,,,,1344.4158,1344.9142,1343.8989000000001,1344.4155,1341.2324,1343.8986000000002,1344.9142,1345.4146,1345.4148,1347.0142,982,1347.0142,1,1347.0145,4,19,139,14,1,1.6,0.3,Time
,,txy,001,f,21,2025-06-03_14h32.48.895,Serial_Dependence_U,2023.2.3,Win32,59.880239520968516,,,,,,1347.0149000000001,358,4,1347.0151,358,,,,1350.4151000000002,1350.9146,1349.8981999999999,1350.4149000000002,1348.0314,1349.898,1350.9147,1351.4142,1351.4143000000001,1353.1317,839,1353.1317,3,1353.1321,4,20,140,10,1,0.8,0.3,Time
,,txy,001,f,21,2025-06-03_14h32.48.895,Serial_Dependence_U,2023.2.3,Win32,59.880239520968516,,,,,,1353.1325,223,4,1353.1326999999999,223,,,,1356.4979,1356.9975,1355.9815,1356.4976000000001,1354.1481999999999,1355.9812,1356.9975,1357.4976000000001,1357.4976000000001,1359.8813,1085,1359.8815,5,1359.8819,4,21,141,5,1,0.8,0.7,Time
,,txy,001,f,21,2025-06-03_14h32.48.895,Serial_Dependence_U,2023.2.3,Win32,59.880239520968516,,,,,,1359.8825,129,4,1359.8826000000001,129,,,,1364.0813,1364.5811999999999,1363.5648,1364.0811999999999,1360.898,1363.5645,1364.5811999999999,1365.0814000000003,1365.0815,1366.6644000000001,970,1366.6645,1,1366.6649000000002,4,22,142,24,1,1.6,0.3,Time
,,txy,001,f,21,2025-06-03_14h32.48.895,Serial_Dependence_U,2023.2.3,Win32,59.880239520968516,,,,,,1366.6653000000001,252,4,1366.6654,252,,,,1370.4328,1370.9311,1369.9159000000002,1370.4324000000001,1367.681,1369.9154,1370.9311,1371.4311,1371.4311,1373.0988,939,1373.0991000000001,2,1373.1001,4,23,143,17,1,1.2,0.7,Time
,,txy,001,f,21,2025-06-03_14h32.48.895,Serial_Dependence_U,2023.2.3,Win32,59.880239520968516,,,,,,1373.1009000000001,331,4,1373.1012,331,,,,1376.8665,1377.3655,1376.3494,1376.8662,1374.1149000000003,1376.3491000000001,1377.3655,1377.8656,1377.8657,1379.0157,367,1379.0158000000001,1,1379.0164000000002,4,24,144,7,1,1.2,0.7,Time
,,txy,001,f,21,2025-06-03_14h32.48.895,Serial_Dependence_U,2023.2.3,Win32,59.880239520968516,,,,,,1379.0171,334,4,1379.0173,334,,,,1383.0152,1383.5157,1382.499,1383.0149000000001,1380.0327,1382.4986999999999,1383.5157,1384.0154000000002,1384.0155,1385.8188,917,1385.819,1,1385.8194,4,25,145,3,1,1.4,0.3,Time
,,txy,001,f,21,2025-06-03_14h32.48.895,Serial_Dependence_U,2023.2.3,Win32,59.880239520968516,,,,,,1385.8201000000001,316,4,1385.8203,316,,,,1389.3821,1389.8809,1388.8653000000002,1389.3818,1386.8321,1388.865,1389.8809,1390.3818,1390.3819,1392.275,816,1392.275,2,1392.2755,4,26,146,26,1,1,0.7,Time
,,txy,001,f,21,2025-06-03_14h32.48.895,Serial_Dependence_U,2023.2.3,Win32,59.880239520968516,,,,,,1392.2759,226,4,1392.2761,226,,,,1395.6329,1396.1313,1395.1168,1395.6326000000001,1393.2831,1395.1164,1396.1313,1396.6315,1396.6317,1398.1328,752,1398.133,2,1398.1336999999999,4,27,147,25,1,0.8,0.7,Time
,,txy,001,f,21,2025-06-03_14h32.48.895,Serial_Dependence_U,2023.2.3,Win32,59.880239520968516,,,,,,1398.1345000000001,92,4,1398.135,92,,,,1401.9323000000002,1402.4319,1401.4157,1401.9319,1399.1490000000001,1401.4155,1402.432,1402.9326,1402.9327,1404.7424,1061,1404.7424,2,1404.7429000000002,4,28,148,2,1,1.2,0.3,Time
,,txy,001,f,21,2025-06-03_14h32.48.895,Serial_Dependence_U,2023.2.3,Win32,59.880239520968516,,,,,,1404.7434,305,4,1404.7439000000002,305,,,,1408.9578000000001,1409.4556,1408.4402,1408.9574000000002,1405.7731,1408.4398,1409.4557,1409.9565,1409.9565,1411.2081,616,1411.2083,1,1411.2087,4,29,149,4,1,1.6,0.3,Time
,,txy,001,f,21,2025-06-03_14h32.48.895,Serial_Dependence_U,2023.2.3,Win32,59.880239520968516,,,,,,1411.2094000000002,217,5,1412.7985,217,s,1.5669000000000324,,1416.1821000000002,1416.6819,1415.6656,1416.1816000000001,1413.8246000000001,1415.6654,1416.682,1417.1816999999999,1417.1818,1418.8828,1132,1418.8828,5,1418.8835,5,0,150,25,1,0.8,0.7,Time
,,txy,001,f,21,2025-06-03_14h32.48.895,Serial_Dependence_U,2023.2.3,Win32,59.880239520968516,,,,,,1418.8841000000002,70,5,1418.8864,70,,,,1422.4831000000001,1422.9814000000001,1421.9663,1422.4828,1419.8996000000002,1421.9659000000001,1422.9814000000001,1423.4817,1423.4818,1425.1486000000002,799,1425.1486000000002,2,1425.1491,5,1,151,11,1,1,0.3,Time
,,txy,001,f,21,2025-06-03_14h32.48.895,Serial_Dependence_U,2023.2.3,Win32,59.880239520968516,,,,,,1425.1499000000001,175,5,1425.15,175,,,,1428.5495,1429.048,1428.0332,1428.5489000000002,1426.1655,1428.0329000000002,1429.048,1429.5487,1429.5487,1430.8989000000001,564,1430.8990000000001,2,1430.8994000000002,5,2,152,0,1,0.8,0.3,Time
,,txy,001,f,21,2025-06-03_14h32.48.895,Serial_Dependence_U,2023.2.3,Win32,59.880239520968516,,,,,,1430.9,227,5,1430.9002,227,,,,1435.05,1435.5485,1434.5321000000001,1435.0494,1431.9004000000002,1434.5318,1435.5485,1436.0485,1436.0487,1437.2813,450,1437.2814,1,1437.2823,5,3,153,9,1,1.6,0.7,Time
,,txy,001,f,21,2025-06-03_14h32.48.895,Serial_Dependence_U,2023.2.3,Win32,59.880239520968516,,,,,,1437.2828,86,5,1437.283,86,,,,1441.0487,1441.5488,1440.5321999999999,1441.0485,1438.2996,1440.5319000000002,1441.5489000000002,1442.0482,1442.0482,1443.6647,753,1443.6647,1,1443.6651000000002,5,4,154,17,1,1.2,0.7,Time
,,txy,001,f,21,2025-06-03_14h32.48.895,Serial_Dependence_U,2023.2.3,Win32,59.880239520968516,,,,,,1443.6659000000002,339,5,1443.6663,339,,,,1447.2324,1447.7314000000001,1446.7155,1447.2322,1444.6827,1446.715,1447.7315,1448.2321000000002,1448.2322,1449.5321999999999,974,1449.5323,3,1449.5329000000002,5,5,155,16,1,1,0.7,Time
,,txy,001,f,21,2025-06-03_14h32.48.895,Serial_Dependence_U,2023.2.3,Win32,59.880239520968516,,,,,,1449.5341,347,5,1449.5346000000002,347,,,,1453.0897,1453.5824000000002,1452.5822,1453.0894,1450.5491000000002,1452.5819000000001,1453.5824000000002,1454.0827,1454.0828000000001,1456.4158,1147,1456.4158,4,1456.4163,5,6,156,26,1,1,0.7,Time
,,txy,001,f,21,2025-06-03_14h32.48.895,Serial_Dependence_U,2023.2.3,Win32,59.880239520968516,,,,,,1456.4168,65,5,1456.417,65,,,,1459.8163,1460.3155,1459.2992,1459.816,1457.4315,1459.2987,1460.3156999999999,1460.8149,1460.815,1462.4326,694,1462.4327,2,1462.4333000000001,5,7,157,20,1,0.8,0.3,Time
,,txy,001,f,21,2025-06-03_14h32.48.895,Serial_Dependence_U,2023.2.3,Win32,59.880239520968516,,,,,,1462.4341000000002,214,5,1462.4345,214,,,,1466.3992,1466.8986000000002,1465.8823,1466.3988000000002,1463.4495,1465.8821,1466.8986000000002,1467.3983,1467.3985,1469.0647,852,1469.0648,1,1469.0655,5,8,158,28,1,1.4,0.7,Time
,,txy,001,f,21,2025-06-03_14h32.48.895,Serial_Dependence_U,2023.2.3,Win32,59.880239520968516,,,,,,1469.0661,349,5,1469.0663,349,,,,1472.8656,1473.3648,1472.3485,1472.865,1470.0819000000001,1472.3483,1473.3649000000003,1473.8646,1473.8646,1474.7981000000002,371,1474.7981000000002,1,1474.7984000000001,5,9,159,2,1,1.2,0.3,Time
,,txy,001,f,21,2025-06-03_14h32.48.895,Serial_Dependence_U,2023.2.3,Win32,59.880239520968516,,,,,,1474.799,164,5,1474.7994,164,,,,1478.9995000000001,1479.4986999999999,1478.4824,1478.9988,1475.8154000000002,1478.4821000000002,1479.4988,1479.9988,1479.9988,1481.5588,984,1481.5589000000002,1,1481.5594,5,10,160,24,1,1.6,0.3,Time
,,txy,001,f,21,2025-06-03_14h32.48.895,Serial_Dependence_U,2023.2.3,Win32,59.880239520968516,,,,,,1481.5599000000002,208,5,1481.56,208,,,,1485.516,1486.0152,1485.0073,1485.5155,1482.5589000000002,1485.0068,1486.0153,1486.5155,1486.5157,1487.7483,713,1487.7484000000002,1,1487.7488,5,11,161,8,1,1.4,0.7,Time
,,txy,001,f,21,2025-06-03_14h32.48.895,Serial_Dependence_U,2023.2.3,Win32,59.880239520968516,,,,,,1487.7494000000002,77,5,1487.75,77,,,,1491.5048000000002,1491.9989,1490.9824,1491.5043,1488.7494000000002,1490.982,1491.999,1492.4984000000002,1492.4985,1494.2825,1043,1494.2826,2,1494.2833,5,12,162,7,1,1.2,0.7,Time
,,txy,001,f,21,2025-06-03_14h32.48.895,Serial_Dependence_U,2023.2.3,Win32,59.880239520968516,,,,,,1494.2842,168,5,1494.2845,168,,,,1498.4828,1498.9825,1497.9658000000002,1498.4825,1495.3001000000002,1497.9654,1498.9826,1499.4823000000001,1499.4824,1500.9645,868,1500.9646,1,1500.9648,5,13,163,14,1,1.6,0.3,Time
,,txy,001,f,21,2025-06-03_14h32.48.895,Serial_Dependence_U,2023.2.3,Win32,59.880239520968516,,,,,,1500.9657,19,5,1500.9660000000001,19,,,,1504.9662,1505.4651999999999,1504.4491,1504.9658000000002,1501.9827,1504.4485,1505.4653,1505.965,1505.9651000000001,1507.5254000000002,700,1507.5254000000002,1,1507.5258000000001,5,14,164,13,1,1.4,0.3,Time
,,txy,001,f,21,2025-06-03_14h32.48.895,Serial_Dependence_U,2023.2.3,Win32,59.880239520968516,,,,,,1507.5262,208,5,1507.5263,208,,,,1510.908,1511.3985,1510.3890000000001,1510.9078,1508.523,1510.3886,1511.3986000000002,1511.902,1511.9022,1513.2324,612,1513.2325,2,1513.2331000000001,5,15,165,10,1,0.8,0.3,Time
,,txy,001,f,21,2025-06-03_14h32.48.895,Serial_Dependence_U,2023.2.3,Win32,59.880239520968516,,,,,,1513.2336,273,5,1513.2338,273,,,,1517.2160000000001,1517.7149000000002,1516.6989,1517.2156,1514.2328,1516.6986000000002,1517.715,1518.2151000000001,1518.2151000000001,1520.0209000000002,958,1520.021,1,1520.0213,5,16,166,23,1,1.4,0.3,Time
,,txy,001,f,21,2025-06-03_14h32.48.895,Serial_Dependence_U,2023.2.3,Win32,59.880239520968516,,,,,,1520.0219000000002,199,5,1520.022,199,,,,1523.9825,1524.482,1523.4658000000002,1523.9823000000001,1521.0336000000002,1523.4655,1524.4821000000002,1524.9822,1524.9824,1526.2153,630,1526.2154,1,1526.2157,5,17,167,18,1,1.4,0.7,Time
,,txy,001,f,21,2025-06-03_14h32.48.895,Serial_Dependence_U,2023.2.3,Win32,59.880239520968516,,,,,,1526.2164000000002,169,5,1526.2166000000002,169,,,,1529.5833,1530.0821,1529.0724000000002,1529.5827,1527.2322,1529.0723,1530.0822,1530.582,1530.5821,1533.2537,762,1533.2538,3,1533.2541999999999,5,18,168,5,1,0.8,0.7,Time
,,txy,001,f,21,2025-06-03_14h32.48.895,Serial_Dependence_U,2023.2.3,Win32,59.880239520968516,,,,,,1533.2548000000002,196,5,1533.2551,196,,,,1537.0711999999999,1537.5724000000002,1536.5488,1537.0709000000002,1534.2754000000002,1536.5484000000001,1537.5725,1538.0656999999999,1538.066,1539.8652,949,1539.8652,2,1539.8659000000002,5,19,169,12,1,1.2,0.3,Time
,,txy,001,f,21,2025-06-03_14h32.48.895,Serial_Dependence_U,2023.2.3,Win32,59.880239520968516,,,,,,1539.8666,304,5,1539.8668,304,,,,1543.6657,1544.1644000000001,1543.1484000000003,1543.6654,1540.8833,1543.1483,1544.1644000000001,1544.6656,1544.6656,1546.5149000000001,1104,1546.515,2,1546.5155,5,20,170,22,1,1.2,0.3,Time
,,txy,001,f,21,2025-06-03_14h32.48.895,Serial_Dependence_U,2023.2.3,Win32,59.880239520968516,,,,,,1546.5161,127,5,1546.5163,127,,,,1550.516,1551.0155,1550.0008,1550.5158000000001,1547.5334000000003,1550.0004000000001,1551.0156000000002,1551.5157,1551.5157,1552.9816,386,1552.9817,1,1552.9821000000002,5,21,171,3,1,1.4,0.3,Time
,,txy,001,f,21,2025-06-03_14h32.48.895,Serial_Dependence_U,2023.2.3,Win32,59.880239520968516,,,,,,1552.9826,160,5,1552.9829000000002,160,,,,1556.7499000000003,1557.2485,1556.2331000000001,1556.7493,1553.9991,1556.2327,1557.2485,1557.7485,1557.7486000000001,1559.3155,932,1559.3156000000001,2,1559.3164000000002,5,22,172,27,1,1.2,0.7,Time
,,txy,001,f,21,2025-06-03_14h32.48.895,Serial_Dependence_U,2023.2.3,Win32,59.880239520968516,,,,,,1559.3172,95,5,1559.3174000000001,95,,,,1562.9158,1563.4155,1562.3996000000002,1562.9156,1560.3325,1562.3992,1563.4155,1563.9158,1563.9159000000002,1565.375,499,1565.3754000000001,1,1565.376,5,23,173,1,1,1,0.3,Time
,,txy,001,f,21,2025-06-03_14h32.48.895,Serial_Dependence_U,2023.2.3,Win32,59.880239520968516,,,,,,1565.3765,210,5,1565.3766,210,,,,1568.9828,1569.4818,1568.4651000000001,1568.9823000000001,1566.3913,1568.4649000000002,1569.4818,1569.9818,1569.9819000000002,1571.4271999999999,787,1571.4273,2,1571.4279000000001,5,24,174,21,1,1,0.3,Time
,,txy,001,f,21,2025-06-03_14h32.48.895,Serial_Dependence_U,2023.2.3,Win32,59.880239520968516,,,,,,1571.4284000000002,35,5,1571.4286000000002,35,,,,1575.6004000000003,1576.0986,1575.0927,1575.6001999999999,1572.457,1575.0924000000002,1576.0986,1576.5983,1576.5984,1577.9992,816,1577.9993,1,1578,5,25,175,19,1,1.6,0.7,Time
,,txy,001,f,21,2025-06-03_14h32.48.895,Serial_Dependence_U,2023.2.3,Win32,59.880239520968516,,,,,,1578.0004000000001,99,5,1578.0009000000002,99,,,,1582.1666,1582.6649000000002,1581.6492,1582.1664,1579.0162,1581.6489000000001,1582.665,1583.165,1583.1651000000002,1584.6916999999999,683,1584.692,1,1584.6924000000001,5,26,176,29,1,1.6,0.7,Time
,,txy,001,f,21,2025-06-03_14h32.48.895,Serial_Dependence_U,2023.2.3,Win32,59.880239520968516,,,,,,1584.6929000000002,186,5,1584.6931000000002,186,,,,1588.0498,1588.5488,1587.5486,1588.0495,1585.7065,1587.548,1588.5489000000002,1589.0484000000001,1589.0485,1590.5985,432,1590.5987,1,1590.599,5,27,177,15,1,0.8,0.7,Time
,,txy,001,f,21,2025-06-03_14h32.48.895,Serial_Dependence_U,2023.2.3,Win32,59.880239520968516,,,,,,1590.5999000000002,21,5,1590.6003,21,,,,1594.7995,1595.2994,1594.2829000000002,1594.7992,1591.6149000000003,1594.2824,1595.2995,1595.7986,1595.7987,1597.1328,578,1597.133,1,1597.1341000000002,5,28,178,4,1,1.6,0.3,Time
,,txy,001,f,21,2025-06-03_14h32.48.895,Serial_Dependence_U,2023.2.3,Win32,59.880239520968516,,,,,,1597.1347,187,5,1597.135,187,,,,1600.6749000000002,1601.166,1600.1667,1600.6746,1598.1336999999999,1600.1663,1601.166,1601.6645,1601.6646,1603.6149000000003,702,1603.6149000000003,2,1603.6153000000002,5,29,179,6,1,1,0.7,Time
,,txy,001,f,21,2025-06-03_14h32.48.895,Serial_Dependence_U,2023.2.3,Win32,59.880239520968516,,,,,,1603.6161000000002,193,6,1605.1816999999999,193,s,1.5457000000001244,,1608.9322,1609.4326,1608.4157,1608.9319,1606.1823000000002,1608.4153000000001,1609.4327,1609.9318,1609.9318,1635.8083000000001,716,1635.8084000000001,1,1635.8088,6,0,180,7,1,1.2,0.7,Time
,,txy,001,f,21,2025-06-03_14h32.48.895,Serial_Dependence_U,2023.2.3,Win32,59.880239520968516,,,,,,1635.8092,126,6,1635.8109000000002,126,,,,1639.1741000000002,1639.6722,1638.6577,1639.1739000000002,1636.8168,1638.6573,1639.6724000000002,1640.1655,1640.1656,1642.059,864,1642.0591000000002,4,1642.0598,6,1,181,5,1,0.8,0.7,Time
,,txy,001,f,21,2025-06-03_14h32.48.895,Serial_Dependence_U,2023.2.3,Win32,59.880239520968516,,,,,,1642.0603,242,6,1642.0605,242,,,,1645.8482,1646.3484,1645.334,1645.848,1643.0663,1645.3334000000002,1646.3484,1646.849,1646.8491000000001,1648.3989000000001,611,1648.3991,1,1648.3999000000001,6,2,182,22,1,1.2,0.3,Time
,,txy,001,f,21,2025-06-03_14h32.48.895,Serial_Dependence_U,2023.2.3,Win32,59.880239520968516,,,,,,1648.4006000000002,66,6,1648.4009,66,,,,1652.3657,1652.8654000000001,1651.8491999999999,1652.3654000000001,1649.4155,1651.849,1652.8654000000001,1653.3653000000002,1653.3653000000002,1655.9818,1114,1655.9818,2,1655.9823000000001,6,3,183,18,1,1.4,0.7,Time
,,txy,001,f,21,2025-06-03_14h32.48.895,Serial_Dependence_U,2023.2.3,Win32,59.880239520968516,,,,,,1655.9828,110,6,1655.9833,110,,,,1659.3826000000001,1659.8823,1658.8666,1659.3821,1656.9981,1658.8662,1659.8824000000002,1660.3825,1660.3826000000001,1662.6599,685,1662.6601,2,1662.6607,6,4,184,10,1,0.8,0.3,Time
,,txy,001,f,21,2025-06-03_14h32.48.895,Serial_Dependence_U,2023.2.3,Win32,59.880239520968516,,,,,,1662.6613,177,6,1662.6615,177,,,,1666.283,1666.7824,1665.7746000000002,1666.2827,1663.6922,1665.7743,1666.7827,1667.2821999999999,1667.2821999999999,1669.2818,868,1669.2819000000002,2,1669.2824,6,5,185,11,1,1,0.3,Time
,,txy,001,f,21,2025-06-03_14h32.48.895,Serial_Dependence_U,2023.2.3,Win32,59.880239520968516,,,,,,1669.2829000000002,232,6,1669.2831,232,,,,1673.4828,1673.9819000000002,1672.9665,1673.4825,1670.2999000000002,1672.9660000000001,1673.982,1674.4821000000002,1674.4821000000002,1676.1265,636,1676.1266,1,1676.1269000000002,6,6,186,4,1,1.6,0.3,Time
,,txy,001,f,21,2025-06-03_14h32.48.895,Serial_Dependence_U,2023.2.3,Win32,59.880239520968516,,,,,,1676.1274,194,6,1676.1275,194,,,,1680.3156000000001,1680.8152,1679.8073000000002,1680.3153,1677.1404000000002,1679.807,1680.8153,1681.3152,1681.3153,1683.7153,786,1683.7153,1,1683.7159000000001,6,7,187,24,1,1.6,0.3,Time
,,txy,001,f,21,2025-06-03_14h32.48.895,Serial_Dependence_U,2023.2.3,Win32,59.880239520968516,,,,,,1683.7167,64,6,1683.717,64,,,,1687.0989000000002,1687.5983,1686.5828000000001,1687.0985,1684.7168000000001,1686.5824000000002,1687.5983,1688.0983,1688.0983,1689.9261000000001,817,1689.9261999999999,3,1689.9269000000002,6,8,188,0,1,0.8,0.3,Time
,,txy,001,f,21,2025-06-03_14h32.48.895,Serial_Dependence_U,2023.2.3,Win32,59.880239520968516,,,,,,1689.9274000000003,269,6,1689.9275,269,,,,1693.2908,1693.7821000000001,1692.7668,1693.2905,1690.9331000000002,1692.7664000000002,1693.7821999999999,1694.2894000000001,1694.2894000000001,1696.5152,1154,1696.5152,5,1696.5156000000002,6,9,189,15,1,0.8,0.7,Time
,,txy,001,f,21,2025-06-03_14h32.48.895,Serial_Dependence_U,2023.2.3,Win32,59.880239520968516,,,,,,1696.516,331,6,1696.5162,331,,,,1700.0822,1700.5821,1699.5656000000001,1700.0819000000001,1697.5321000000001,1699.5654000000002,1700.5822,1701.0815,1701.0816000000002,1702.6186,667,1702.6187,1,1702.6196000000002,6,10,190,6,1,1,0.7,Time
,,txy,001,f,21,2025-06-03_14h32.48.895,Serial_Dependence_U,2023.2.3,Win32,59.880239520968516,,,,,,1702.6201,275,6,1702.6203,275,,,,1706.5994,1707.0991000000001,1706.0919000000001,1706.5991000000001,1703.6243,1706.0917,1707.0991000000001,1707.5993,1707.5994,1709.4161000000001,1024,1709.4163,2,1709.4166,6,11,191,13,1,1.4,0.3,Time
,,txy,001,f,21,2025-06-03_14h32.48.895,Serial_Dependence_U,2023.2.3,Win32,59.880239520968516,,,,,,1709.4171999999999,125,6,1709.4174,125,,,,1712.9999000000003,1713.4979,1712.4983,1712.9995000000001,1710.4327,1712.4982,1713.498,1713.9986999999999,1713.9986999999999,1715.4827,936,1715.4827,2,1715.4831000000001,6,12,192,21,1,1,0.3,Time
,,txy,001,f,21,2025-06-03_14h32.48.895,Serial_Dependence_U,2023.2.3,Win32,59.880239520968516,,,,,,1715.4837,302,6,1715.4841999999999,302,,,,1719.0671000000002,1719.5658,1718.5655,1719.0666999999999,1716.4995000000001,1718.5652,1719.5658,1720.065,1720.065,1721.7769,638,1721.7769,1,1721.7772,6,13,193,1,1,1,0.3,Time
,,txy,001,f,21,2025-06-03_14h32.48.895,Serial_Dependence_U,2023.2.3,Win32,59.880239520968516,,,,,,1721.7776999999999,163,6,1721.7778,163,,,,1725.959,1726.4489,1725.4334000000001,1725.9585,1722.7998,1725.433,1726.449,1726.9497,1726.9499,1728.354,761,1728.3541,1,1728.3545,6,14,194,29,1,1.6,0.7,Time
,,txy,001,f,21,2025-06-03_14h32.48.895,Serial_Dependence_U,2023.2.3,Win32,59.880239520968516,,,,,,1728.3551,293,6,1728.3554000000001,293,,,,1731.9173,1732.4157,1731.4073,1731.9166,1729.3745000000001,1731.407,1732.4158,1732.9154,1732.9155,1734.6259000000002,619,1734.6262,1,1734.6266,6,15,195,16,1,1,0.7,Time
,,txy,001,f,21,2025-06-03_14h32.48.895,Serial_Dependence_U,2023.2.3,Win32,59.880239520968516,,,,,,1734.6272,9,6,1734.6275,9,,,,1738.5833,1739.082,1738.0662,1738.5829,1735.6324000000002,1738.0655,1739.082,1739.5816000000002,1739.5817,1741.4981,749,1741.4982,1,1741.4985,6,16,196,28,1,1.4,0.7,Time
,,txy,001,f,21,2025-06-03_14h32.48.895,Serial_Dependence_U,2023.2.3,Win32,59.880239520968516,,,,,,1741.499,203,6,1741.4995000000001,203,,,,1745.6671000000001,1746.1657,1745.1503,1745.6667,1742.5164000000002,1745.1497,1746.1659000000002,1746.6657,1746.6659000000002,1748.8435,817,1748.8436000000002,1,1748.8439,6,17,197,19,1,1.6,0.7,Time
,,txy,001,f,21,2025-06-03_14h32.48.895,Serial_Dependence_U,2023.2.3,Win32,59.880239520968516,,,,,,1748.8443,55,6,1748.8445,55,,,,1752.2498,1752.7489,1751.7428,1752.2493,1749.8576,1751.7426,1752.749,1753.248,1753.2482,1754.666,631,1754.6661000000001,2,1754.6667,6,18,198,20,1,0.8,0.3,Time
,,txy,001,f,21,2025-06-03_14h32.48.895,Serial_Dependence_U,2023.2.3,Win32,59.880239520968516,,,,,,1754.6673,104,6,1754.6680000000001,104,,,,1758.2335,1758.7326,1757.7154,1758.2333,1755.6819,1757.7151999999999,1758.7327,1759.2316,1759.2317,1761.2418,1272,1761.2419000000002,4,1761.2425,6,19,199,26,1,1,0.7,Time
,,txy,001,f,21,2025-06-03_14h32.48.895,Serial_Dependence_U,2023.2.3,Win32,59.880239520968516,,,,,,1761.2428,181,6,1761.2432,181,,,,1765.3829,1765.8816000000002,1764.8764,1765.3825,1762.2421000000002,1764.876,1765.8816000000002,1766.3874,1766.3874,1775.4253,583,1775.4253,1,1775.4257,6,20,200,9,1,1.6,0.7,Time
,,txy,001,f,21,2025-06-03_14h32.48.895,Serial_Dependence_U,2023.2.3,Win32,59.880239520968516,,,,,,1775.4261000000001,359,6,1775.4263,359,,,,1779.3664,1779.8653000000002,1778.8495,1779.3661000000002,1776.4171000000001,1778.8487,1779.8653000000002,1780.3653000000002,1780.3654000000001,1782.0314,1053,1782.0315,2,1782.032,6,21,201,8,1,1.4,0.7,Time
,,txy,001,f,21,2025-06-03_14h32.48.895,Serial_Dependence_U,2023.2.3,Win32,59.880239520968516,,,,,,1782.0324,222,6,1782.0329000000002,222,,,,1785.8233,1786.3155,1785.2996,1785.8231,1783.0325,1785.299,1786.3156999999999,1786.8154000000002,1786.8155,1789.8277,1269,1789.8278,4,1789.8285,6,22,202,12,1,1.2,0.3,Time
,,txy,001,f,21,2025-06-03_14h32.48.895,Serial_Dependence_U,2023.2.3,Win32,59.880239520968516,,,,,,1789.829,101,6,1789.8291000000002,101,,,,1793.1994000000002,1793.6989,1792.6913,1793.1991,1790.8411,1792.6909,1793.6989,1794.1985,1794.1986000000002,1795.7817,767,1795.7818,3,1795.7821999999999,6,23,203,25,1,0.8,0.7,Time
,,txy,001,f,21,2025-06-03_14h32.48.895,Serial_Dependence_U,2023.2.3,Win32,59.880239520968516,,,,,,1795.7831,87,6,1795.7835,87,,,,1799.7825,1800.2819000000002,1799.2653,1799.7821000000001,1796.7997,1799.2651,1800.2819000000002,1800.7817,1800.7818,1802.9432,909,1802.9432,1,1802.9439000000002,6,24,204,23,1,1.4,0.3,Time
,,txy,001,f,21,2025-06-03_14h32.48.895,Serial_Dependence_U,2023.2.3,Win32,59.880239520968516,,,,,,1802.9443,311,6,1802.9447,311,,,,1806.7658000000001,1807.266,1806.2585,1806.7654000000002,1803.9747,1806.2583,1807.2661,1807.766,1807.766,1810.2726,830,1810.2728,1,1810.2731,6,25,205,2,1,1.2,0.3,Time
,,txy,001,f,21,2025-06-03_14h32.48.895,Serial_Dependence_U,2023.2.3,Win32,59.880239520968516,,,,,,1810.2736000000002,157,6,1810.2738000000002,157,,,,1814.4651999999999,1814.9659000000001,1813.9491,1814.465,1811.2834000000003,1813.9489,1814.9660000000001,1815.4658000000002,1815.4658000000002,1817.5221999999999,1163,1817.5223,2,1817.5227,6,26,206,14,1,1.6,0.3,Time
,,txy,001,f,21,2025-06-03_14h32.48.895,Serial_Dependence_U,2023.2.3,Win32,59.880239520968516,,,,,,1817.5231999999999,196,6,1817.5235,196,,,,1821.5063,1821.9991,1820.9896999999999,1821.506,1818.5239000000001,1820.9894000000002,1821.9992,1822.499,1822.4991,1824.2986,949,1824.2986,1,1824.2991000000002,6,27,207,3,1,1.4,0.3,Time
,,txy,001,f,21,2025-06-03_14h32.48.895,Serial_Dependence_U,2023.2.3,Win32,59.880239520968516,,,,,,1824.2999000000002,299,6,1824.3004,299,,,,1828.0492,1828.5489000000002,1827.5326,1828.049,1825.2994,1827.5324,1828.5491000000002,1829.0484000000001,1829.0484000000001,1830.8323,1233,1830.8324000000002,3,1830.8329,6,28,208,27,1,1.2,0.7,Time
,,txy,001,f,21,2025-06-03_14h32.48.895,Serial_Dependence_U,2023.2.3,Win32,59.880239520968516,,,,,,1830.8335,142,6,1830.8339,142,,,,1834.5994,1835.0996,1834.0827,1834.5991999999999,1831.8485,1834.0824000000002,1835.0997,1835.5991999999999,1835.5993,1836.7817,332,1836.7818,1,1836.782,6,29,209,17,1,1.2,0.7,Time
,,txy,001,f,21,2025-06-03_14h32.48.895,Serial_Dependence_U,2023.2.3,Win32,59.880239520968516,,,,,,1836.7826,258,7,1838.5648,258,s,1.759999999999991,,1842.5663,1843.0655,1842.0582,1842.5662,1839.5831,1842.058,1843.0656000000001,1843.5658,1843.5658,1845.4489,896,1845.449,1,1845.4495,7,0,210,23,1,1.4,0.3,Time
,,txy,001,f,21,2025-06-03_14h32.48.895,Serial_Dependence_U,2023.2.3,Win32,59.880239520968516,,,,,,1845.4506999999999,303,7,1845.4538,303,,,,1848.8162,1849.3156000000001,1848.3095,1848.8156999999999,1846.4649000000002,1848.3093000000001,1849.3156000000001,1849.8156000000001,1849.8156999999999,1851.4986000000001,694,1851.4986999999999,2,1851.4991,7,1,211,5,1,0.8,0.7,Time
,,txy,001,f,21,2025-06-03_14h32.48.895,Serial_Dependence_U,2023.2.3,Win32,59.880239520968516,,,,,,1851.4999000000003,26,7,1851.5005,26,,,,1855.4661,1855.9666000000002,1854.9494000000002,1855.4657,1852.5155,1854.9491,1855.9667,1856.4649000000002,1856.465,1859.9822,181,1859.9823000000001,1,1859.9829000000002,7,2,212,8,1,1.4,0.7,Time
,,txy,001,f,21,2025-06-03_14h32.48.895,Serial_Dependence_U,2023.2.3,Win32,59.880239520968516,,,,,,1859.9836,53,7,1859.984,53,,,,1863.5494,1864.0482,1863.0325,1863.549,1860.9989,1863.0321999999999,1864.0484000000001,1864.5485,1864.5485,1866.1653000000001,879,1866.1654,2,1866.166,7,3,213,16,1,1,0.7,Time
,,txy,001,f,21,2025-06-03_14h32.48.895,Serial_Dependence_U,2023.2.3,Win32,59.880239520968516,,,,,,1866.1669000000002,112,7,1866.1675,112,,,,1869.7494000000002,1870.2489,1869.2330000000002,1869.7490000000003,1867.1861,1869.2325999999998,1870.2489,1870.7486,1870.7486999999999,1872.2317,685,1872.2317,1,1872.2322,7,4,214,26,1,1,0.7,Time
,,txy,001,f,21,2025-06-03_14h32.48.895,Serial_Dependence_U,2023.2.3,Win32,59.880239520968516,,,,,,1872.2327,66,7,1872.2333,66,,,,1875.7912,1876.2827,1875.2680999999998,1875.7910000000002,1873.2335999999998,1875.2676,1876.2828,1876.7819000000002,1876.7820000000002,1878.5090999999998,935,1878.5093000000002,2,1878.5099000000002,7,5,215,6,1,1,0.7,Time
,,txy,001,f,21,2025-06-03_14h32.48.895,Serial_Dependence_U,2023.2.3,Win32,59.880239520968516,,,,,,1878.5102,312,7,1878.5105000000003,312,,,,1882.6990999999998,1883.1984000000002,1882.1986,1882.6990000000003,1879.5212,1882.1983,1883.1984000000002,1883.6984000000002,1883.6984000000002,1884.8812,614,1884.8813,1,1884.8816,7,6,216,14,1,1.6,0.3,Time
,,txy,001,f,21,2025-06-03_14h32.48.895,Serial_Dependence_U,2023.2.3,Win32,59.880239520968516,,,,,,1884.8820000000003,131,7,1884.8822,131,,,,1888.2828,1888.7818,1887.7660999999998,1888.2825000000003,1885.8984000000003,1887.7658000000001,1888.7819000000002,1889.2820000000002,1889.2820000000002,1891.0489000000002,985,1891.0490000000002,4,1891.0497,7,7,217,10,1,0.8,0.3,Time
,,txy,001,f,21,2025-06-03_14h32.48.895,Serial_Dependence_U,2023.2.3,Win32,59.880239520968516,,,,,,1891.0502,100,7,1891.0507,100,,,,1894.4171999999999,1894.9155999999998,1893.8993,1894.4165000000003,1892.0659,1893.8992,1894.9157,1895.4157,1895.4158,1897.7483,967,1897.7484000000002,4,1897.7486999999999,7,8,218,25,1,0.8,0.7,Time
,,txy,001,f,21,2025-06-03_14h32.48.895,Serial_Dependence_U,2023.2.3,Win32,59.880239520968516,,,,,,1897.7498,46,7,1897.7501,46,,,,1901.9493,1902.4482,1901.4325999999999,1901.9490000000003,1898.7657,1901.4323000000002,1902.4482,1902.9485000000002,1902.9486,1905.1319,655,1905.1319,1,1905.1325000000002,7,9,219,24,1,1.6,0.3,Time
,,txy,001,f,21,2025-06-03_14h32.48.895,Serial_Dependence_U,2023.2.3,Win32,59.880239520968516,,,,,,1905.1334000000002,244,7,1905.1339,244,,,,1909.2991,1909.7988,1908.7842,1909.2988,1906.1498000000001,1908.7832,1909.7989000000002,1910.2991,1910.2991,1912.2985999999999,1297,1912.2987,2,1912.2990000000002,7,10,220,29,1,1.6,0.7,Time
,,txy,001,f,21,2025-06-03_14h32.48.895,Serial_Dependence_U,2023.2.3,Win32,59.880239520968516,,,,,,1912.2995000000003,292,7,1912.3001,292,,,,1916.3005000000003,1916.8057,1915.7901,1916.3001,1913.3084000000001,1915.7897,1916.8058,1917.3040999999998,1917.3040999999998,1919.0404,831,1919.0405000000003,1,1919.0408,7,11,221,3,1,1.4,0.3,Time
,,txy,001,f,21,2025-06-03_14h32.48.895,Serial_Dependence_U,2023.2.3,Win32,59.880239520968516,,,,,,1919.0412,43,7,1919.0415000000003,43,,,,1922.8075999999999,1923.2992,1922.2925000000002,1922.8073000000002,1920.0385000000003,1922.2917,1923.2993000000001,1923.7989000000002,1923.7989000000002,1925.6087,1168,1925.6087,3,1925.6091,7,12,222,7,1,1.2,0.7,Time
,,txy,001,f,21,2025-06-03_14h32.48.895,Serial_Dependence_U,2023.2.3,Win32,59.880239520968516,,,,,,1925.6095999999998,328,7,1925.6098,328,,,,1929.1993,1929.6990000000003,1928.6839000000002,1929.1989,1926.6153000000002,1928.6834000000001,1929.6990000000003,1930.1994000000002,1930.1994000000002,1931.6653000000001,846,1931.6654,2,1931.6659000000002,7,13,223,21,1,1,0.3,Time
,,txy,001,f,21,2025-06-03_14h32.48.895,Serial_Dependence_U,2023.2.3,Win32,59.880239520968516,,,,,,1931.6665999999998,72,7,1931.6671,72,,,,1935.8332,1936.3324,1935.3160999999998,1935.8329,1932.6828,1935.3156999999999,1936.3324,1936.8315000000005,1936.8319000000004,1938.3588000000002,881,1938.3589,1,1938.3592999999998,7,14,224,19,1,1.6,0.7,Time
,,txy,001,f,21,2025-06-03_14h32.48.895,Serial_Dependence_U,2023.2.3,Win32,59.880239520968516,,,,,,1938.3596999999997,345,7,1938.3598,345,,,,1941.9485000000002,1942.4490000000003,1941.4327,1941.9482,1939.3579000000002,1941.4324000000004,1942.4491,1942.9486,1942.9487000000001,1946.4430000000004,699,1946.4430999999997,1,1946.4435,7,15,225,11,1,1,0.3,Time
,,txy,001,f,21,2025-06-03_14h32.48.895,Serial_Dependence_U,2023.2.3,Win32,59.880239520968516,,,,,,1946.4440000000002,36,7,1946.4442999999999,36,,,,1950.2575000000004,1950.7489000000003,1949.7332,1950.2571999999998,1947.4550000000002,1949.7328,1950.749,1951.2486999999999,1951.2489000000003,1952.6162000000002,722,1952.6163,1,1952.6166999999998,7,16,226,2,1,1.2,0.3,Time
,,txy,001,f,21,2025-06-03_14h32.48.895,Serial_Dependence_U,2023.2.3,Win32,59.880239520968516,,,,,,1952.6173000000001,327,7,1952.6175999999998,327,,,,1956.3903000000003,1956.8819,1955.8660000000002,1956.39,1953.6336,1955.8657,1956.8821,1957.3821999999998,1957.3823,1959.1946999999998,947,1959.1948,2,1959.1953,7,17,227,17,1,1.2,0.7,Time
,,txy,001,f,21,2025-06-03_14h32.48.895,Serial_Dependence_U,2023.2.3,Win32,59.880239520968516,,,,,,1959.1957,262,7,1959.1960000000001,262,,,,1963.4086,1963.8993000000003,1962.8915999999997,1963.4083000000003,1960.2257000000002,1962.8913,1963.8994,1964.3988000000002,1964.3989000000004,1966.1317000000001,1120,1966.1317999999999,1,1966.1328,7,18,228,4,1,1.6,0.3,Time
,,txy,001,f,21,2025-06-03_14h32.48.895,Serial_Dependence_U,2023.2.3,Win32,59.880239520968516,,,,,,1966.1334,204,7,1966.1336,204,,,,1970.0995999999998,1970.5986,1969.5825000000002,1970.0994000000003,1967.1498,1969.5823000000003,1970.5986,1971.0990999999997,1971.0990999999997,1972.5993,1031,1972.5995,2,1972.5999,7,19,229,28,1,1.4,0.7,Time
,,txy,001,f,21,2025-06-03_14h32.48.895,Serial_Dependence_U,2023.2.3,Win32,59.880239520968516,,,,,,1972.6007000000002,44,7,1972.6010000000003,44,,,,1976.3824000000002,1976.8817999999999,1975.8666999999998,1976.3821999999998,1973.6026,1975.8663,1976.8817999999999,1977.3819,1977.3820000000003,1979.2328,873,1979.2329000000002,2,1979.2333,7,20,230,22,1,1.2,0.3,Time
,,txy,001,f,21,2025-06-03_14h32.48.895,Serial_Dependence_U,2023.2.3,Win32,59.880239520968516,,,,,,1979.2338000000002,50,7,1979.2341,50,,,,1982.5995,1983.0988,1982.0827000000002,1982.5993,1980.2501,1982.082,1983.0989000000002,1983.5989000000002,1983.5990000000004,1984.8334000000002,636,1984.8335000000004,2,1984.8339000000003,7,21,231,15,1,0.8,0.7,Time
,,txy,001,f,21,2025-06-03_14h32.48.895,Serial_Dependence_U,2023.2.3,Win32,59.880239520968516,,,,,,1984.8344,200,7,1984.8347999999999,200,,,,1988.6165000000003,1989.1146,1988.0992000000003,1988.6162000000002,1985.8330000000003,1988.0990000000004,1989.1147000000003,1989.6156000000003,1989.6156000000003,1991.3151,818,1991.3151,1,1991.3161000000002,7,22,232,12,1,1.2,0.3,Time
,,txy,001,f,21,2025-06-03_14h32.48.895,Serial_Dependence_U,2023.2.3,Win32,59.880239520968516,,,,,,1991.3167,71,7,1991.3170000000007,71,,,,1995.0834000000002,1995.5819000000004,1994.5741,1995.0830000000003,1992.3330000000003,1994.5737000000001,1995.5819000000004,1996.0706000000002,1996.0706000000002,1997.5996000000002,821,1997.5998000000002,1,1997.6005000000007,7,23,233,27,1,1.2,0.7,Time
,,txy,001,f,21,2025-06-03_14h32.48.895,Serial_Dependence_U,2023.2.3,Win32,59.880239520968516,,,,,,1997.6014000000002,246,7,1997.6018000000001,246,,,,2000.9924000000003,2001.4824000000006,2000.4754000000005,2000.9921000000002,1998.5998000000002,2000.4750000000006,2001.4824000000006,2001.9821,2001.9822000000001,2003.0829000000006,367,2003.0831,1,2003.0837000000004,7,24,234,0,1,0.8,0.3,Time
,,txy,001,f,21,2025-06-03_14h32.48.895,Serial_Dependence_U,2023.2.3,Win32,59.880239520968516,,,,,,2003.0850000000003,239,7,2003.0853000000004,239,,,,2007.0831,2007.5819000000004,2006.5725000000004,2007.0827000000002,2004.1002,2006.5720000000003,2007.5819000000004,2008.0836000000002,2008.0837000000004,2009.6586,733,2009.6587000000002,1,2009.6594000000002,7,25,235,13,1,1.4,0.3,Time
,,txy,001,f,21,2025-06-03_14h32.48.895,Serial_Dependence_U,2023.2.3,Win32,59.880239520968516,,,,,,2009.6599000000003,304,7,2009.6602,304,,,,2013.2490000000005,2013.7487000000003,2012.7332000000004,2013.2487000000003,2010.6667,2012.7325000000003,2013.7488,2014.2487000000003,2014.2488,2015.5327,712,2015.5328000000002,2,2015.5332,7,26,236,1,1,1,0.3,Time
,,txy,001,f,21,2025-06-03_14h32.48.895,Serial_Dependence_U,2023.2.3,Win32,59.880239520968516,,,,,,2015.5343000000005,1,7,2015.5348000000001,1,,,,2018.9332000000002,2019.4318,2018.4166000000002,2018.9330000000007,2016.5501000000002,2018.4160000000004,2019.4319000000003,2019.9323000000002,2019.9324000000004,2021.1661000000001,683,2021.1662000000003,2,2021.1667,7,27,237,20,1,0.8,0.3,Time
,,txy,001,f,21,2025-06-03_14h32.48.895,Serial_Dependence_U,2023.2.3,Win32,59.880239520968516,,,,,,2021.1674000000005,76,7,2021.1680000000003,76,,,,2025.1328,2025.6326000000001,2024.6163000000004,2025.1326000000001,2022.1825000000006,2024.6159000000005,2025.6328,2026.1315000000006,2026.1315000000006,2027.7158000000002,663,2027.7160000000006,1,2027.7172000000003,7,28,238,18,1,1.4,0.7,Time
,,txy,001,f,21,2025-06-03_14h32.48.895,Serial_Dependence_U,2023.2.3,Win32,59.880239520968516,,,,,,2027.7178000000001,177,7,2027.7181000000003,177,,,,2031.8751,2032.3653000000002,2031.3656000000003,2031.8743000000002,2028.7328000000005,2031.3653000000002,2032.3654000000004,2032.8659000000005,2032.8661,2034.6985000000006,1152,2034.6985000000006,2,2034.6988000000003,7,29,239,9,1,1.6,0.7,Time
,,txy,001,f,21,2025-06-03_14h32.48.895,Serial_Dependence_U,2023.2.3,Win32,59.880239520968516,,,,,,2034.6997000000003,260,8,2036.3156000000001,260,s,1.5919000000003507,,2039.7156000000002,2040.2157000000004,2039.2004000000004,2039.7152000000003,2037.3341000000003,2039.1991,2040.2158000000002,2040.7152000000003,2040.7153,2042.1585000000007,831,2042.1586,3,2042.1594000000002,8,0,240,0,1,0.8,0.3,Time
,,txy,001,f,21,2025-06-03_14h32.48.895,Serial_Dependence_U,2023.2.3,Win32,59.880239520968516,,,,,,2042.1599000000003,253,8,2042.1620000000005,253,,,,2045.5342000000003,2046.0322000000003,2045.0248000000004,2045.5338000000004,2043.1920000000007,2045.0245000000007,2046.0323,2046.5323,2046.5324000000003,2048.2925999999998,864,2048.2927,4,2048.2931,8,1,241,5,1,0.8,0.7,Time
,,txy,001,f,21,2025-06-03_14h32.48.895,Serial_Dependence_U,2023.2.3,Win32,59.880239520968516,,,,,,2048.2935,120,8,2048.2938,120,,,,2052.2747,2052.7654,2051.7575,2052.2743,2049.3243,2051.7572,2052.7655000000004,2053.2659000000003,2053.2659000000003,2054.8151,855,2054.8152,1,2054.8159,8,2,242,8,1,1.4,0.7,Time
,,txy,001,f,21,2025-06-03_14h32.48.895,Serial_Dependence_U,2023.2.3,Win32,59.880239520968516,,,,,,2054.8165999999997,233,8,2054.8168,233,,,,2058.8066,2059.2990999999997,2058.2994000000003,2058.8063,2055.8328,2058.2993,2059.2992,2059.7999,2059.8001,2061.6819,1171,2061.6821,2,2061.6826,8,3,243,23,1,1.4,0.3,Time
,,txy,001,f,21,2025-06-03_14h32.48.895,Serial_Dependence_U,2023.2.3,Win32,59.880239520968516,,,,,,2061.6834000000003,166,8,2061.6837,166,,,,2065.4669000000004,2065.9657,2064.9491,2065.4667,2062.6838000000002,2064.9487,2065.9658,2066.4656,2066.4657,2068.1658,867,2068.166,2,2068.1668,8,4,244,2,1,1.2,0.3,Time
,,txy,001,f,21,2025-06-03_14h32.48.895,Serial_Dependence_U,2023.2.3,Win32,59.880239520968516,,,,,,2068.1677,51,8,2068.168,51,,,,2071.5737,2072.0697,2071.0576,2071.5734,2069.1894,2071.0573,2072.0698,2072.5654,2072.5655,2075.1992,795,2075.1993,3,2075.2001,8,5,245,10,1,0.8,0.3,Time
,,txy,001,f,21,2025-06-03_14h32.48.895,Serial_Dependence_U,2023.2.3,Win32,59.880239520968516,,,,,,2075.2010999999998,186,8,2075.2016,186,,,,2079.166,2079.6653,2078.6492,2079.1657,2076.2077,2078.6490000000003,2079.6653,2080.1656,2080.1656,2082.1506,627,2082.1507,1,2082.1512,8,6,246,28,1,1.4,0.7,Time
,,txy,001,f,21,2025-06-03_14h32.48.895,Serial_Dependence_U,2023.2.3,Win32,59.880239520968516,,,,,,2082.1525,348,8,2082.1530000000002,348,,,,2085.7578,2086.2488,2085.2331,2085.7575,2083.166,2085.2328,2086.2488,2086.7491999999997,2086.7491999999997,2088.8821,764,2088.8822,2,2088.8831999999998,8,7,247,1,1,1,0.3,Time
,,txy,001,f,21,2025-06-03_14h32.48.895,Serial_Dependence_U,2023.2.3,Win32,59.880239520968516,,,,,,2088.8843,151,8,2088.8848000000003,151,,,,2092.4495,2092.9489000000003,2091.9325000000003,2092.4493,2089.8995999999997,2091.9322,2092.949,2093.4489000000003,2093.449,2095.1089,729,2095.1089,2,2095.1093,8,8,248,16,1,1,0.7,Time
,,txy,001,f,21,2025-06-03_14h32.48.895,Serial_Dependence_U,2023.2.3,Win32,59.880239520968516,,,,,,2095.1098,231,8,2095.11,231,,,,2098.8424,2099.3324000000002,2098.3325999999997,2098.842,2096.1000000000004,2098.3324000000002,2099.3324000000002,2099.8324000000002,2099.8325000000004,2101.5490999999997,665,2101.5490999999997,1,2101.5496,8,9,249,7,1,1.2,0.7,Time
,,txy,001,f,21,2025-06-03_14h32.48.895,Serial_Dependence_U,2023.2.3,Win32,59.880239520968516,,,,,,2101.5501,32,8,2101.5507,32,,,,2105.6991,2106.1985999999997,2105.1825000000003,2105.6988,2102.5498000000002,2105.1822,2106.1987,2106.6992,2106.6993,2108.1662,976,2108.1664,1,2108.1670000000004,8,10,250,9,1,1.6,0.7,Time
,,txy,001,f,21,2025-06-03_14h32.48.895,Serial_Dependence_U,2023.2.3,Win32,59.880239520968516,,,,,,2108.1678,208,8,2108.1683000000003,208,,,,2111.7567,2112.2493,2111.2500000000005,2111.7565000000004,2109.1827,2111.2496,2112.2494,2112.7393,2112.7395,2114.5107,733,2114.5108,2,2114.5114000000003,8,11,251,21,1,1,0.3,Time
,,txy,001,f,21,2025-06-03_14h32.48.895,Serial_Dependence_U,2023.2.3,Win32,59.880239520968516,,,,,,2114.5119,357,8,2114.5122,357,,,,2118.7004,2119.1887,2118.184,2118.6999,2115.5212,2118.1836,2119.1888,2119.6820000000002,2119.6822,2121.3940000000002,768,2121.3941,1,2121.3943,8,12,252,4,1,1.6,0.3,Time
,,txy,001,f,21,2025-06-03_14h32.48.895,Serial_Dependence_U,2023.2.3,Win32,59.880239520968516,,,,,,2121.3948,1,8,2121.3950999999997,1,,,,2124.7498,2125.2491,2124.242,2124.7494,2122.4072,2124.2416,2125.2491999999997,2125.7485,2125.7486,2127.1153,703,2127.1154,2,2127.1156,8,13,253,25,1,0.8,0.7,Time
,,txy,001,f,21,2025-06-03_14h32.48.895,Serial_Dependence_U,2023.2.3,Win32,59.880239520968516,,,,,,2127.1164000000003,226,8,2127.1168000000002,226,,,,2130.4826,2130.9819,2129.9663,2130.4824000000003,2128.1325,2129.9661,2130.9822,2131.4818,2131.4819,2132.7992,648,2132.7992,2,2132.7997,8,14,254,15,1,0.8,0.7,Time
,,txy,001,f,21,2025-06-03_14h32.48.895,Serial_Dependence_U,2023.2.3,Win32,59.880239520968516,,,,,,2132.8009,232,8,2132.8012,232,,,,2136.5496,2137.0484,2136.0325000000003,2136.5494000000003,2133.8001,2136.0322,2137.0485000000003,2137.5486,2137.5487,2138.9659,694,2138.9661,1,2138.9664000000002,8,15,255,17,1,1.2,0.7,Time
,,txy,001,f,21,2025-06-03_14h32.48.895,Serial_Dependence_U,2023.2.3,Win32,59.880239520968516,,,,,,2138.9672,201,8,2138.9679,201,,,,2143.1333,2143.6322,2142.6157,2143.1331,2139.9685000000004,2142.6154,2143.6322,2144.1328,2144.1329,2145.3320000000003,671,2145.3321,1,2145.3327,8,16,256,19,1,1.6,0.7,Time
,,txy,001,f,21,2025-06-03_14h32.48.895,Serial_Dependence_U,2023.2.3,Win32,59.880239520968516,,,,,,2145.3336,165,8,2145.3339,165,,,,2148.8995000000004,2149.3992,2148.3827,2148.8992,2146.3494,2148.3823,2149.3993,2149.8990000000003,2149.8990000000003,2151.7320999999997,737,2151.7323,2,2151.7326,8,17,257,26,1,1,0.7,Time
,,txy,001,f,21,2025-06-03_14h32.48.895,Serial_Dependence_U,2023.2.3,Win32,59.880239520968516,,,,,,2151.733,301,8,2151.7331,301,,,,2155.4998,2155.9994,2154.9828,2155.4995000000004,2152.7497,2154.9825,2155.9994,2156.4993,2156.4993,2158.282,652,2158.2821,1,2158.2825000000003,8,18,258,27,1,1.2,0.7,Time
,,txy,001,f,21,2025-06-03_14h32.48.895,Serial_Dependence_U,2023.2.3,Win32,59.880239520968516,,,,,,2158.2832,276,8,2158.2837,276,,,,2161.6745,2162.1742,2161.166,2161.6740999999997,2159.2988,2161.1657,2162.1742,2162.6728000000003,2162.6728000000003,2163.9597,366,2163.9597,1,2163.9603,8,19,259,20,1,0.8,0.3,Time
,,txy,001,f,21,2025-06-03_14h32.48.895,Serial_Dependence_U,2023.2.3,Win32,59.880239520968516,,,,,,2163.9606,232,8,2163.9609,232,,,,2167.7665,2168.2654,2167.2495000000004,2167.7663000000002,2164.9752,2167.2491999999997,2168.2655000000004,2168.7661,2168.7661,2170.5822,1018,2170.5822,2,2170.5829000000003,8,20,260,12,1,1.2,0.3,Time
,,txy,001,f,21,2025-06-03_14h32.48.895,Serial_Dependence_U,2023.2.3,Win32,59.880239520968516,,,,,,2170.5836,78,8,2170.5838,78,,,,2174.1824,2174.6825000000003,2173.6675999999998,2174.1822,2171.6000000000004,2173.6672,2174.6825000000003,2175.1822,2175.1823,2177.0494000000003,732,2177.0495,2,2177.05,8,21,261,11,1,1,0.3,Time
,,txy,001,f,21,2025-06-03_14h32.48.895,Serial_Dependence_U,2023.2.3,Win32,59.880239520968516,,,,,,2177.0509,28,8,2177.0513,28,,,,2180.5995000000003,2181.0989,2180.0835,2180.5993,2178.0497,2180.083,2181.099,2181.5994,2181.5995000000003,2183.0996,785,2183.0998,2,2183.1003,8,22,262,6,1,1,0.7,Time
,,txy,001,f,21,2025-06-03_14h32.48.895,Serial_Dependence_U,2023.2.3,Win32,59.880239520968516,,,,,,2183.1016,103,8,2183.1020000000003,103,,,,2186.9002,2187.3988,2186.3825,2186.8995000000004,2184.1165,2186.3823,2187.3989,2187.8988,2187.8989,2189.7984,985,2189.7984,2,2189.7987,8,23,263,22,1,1.2,0.3,Time
,,txy,001,f,21,2025-06-03_14h32.48.895,Serial_Dependence_U,2023.2.3,Win32,59.880239520968516,,,,,,2189.7995,189,8,2189.7999,189,,,,2193.7994000000003,2194.2990000000004,2193.2831,2193.7990999999997,2190.8163,2193.2828,2194.2990000000004,2194.7990999999997,2194.7993,2196.7333,1224,2196.7334,2,2196.7343,8,24,264,13,1,1.4,0.3,Time
,,txy,001,f,21,2025-06-03_14h32.48.895,Serial_Dependence_U,2023.2.3,Win32,59.880239520968516,,,,,,2196.7348,85,8,2196.735,85,,,,2200.9325000000003,2201.4325000000003,2200.4162,2200.9323,2197.7418000000002,2200.416,2201.4325000000003,2201.9323,2201.9324,2203.7661,998,2203.7662,1,2203.7670000000003,8,25,265,24,1,1.6,0.3,Time
,,txy,001,f,21,2025-06-03_14h32.48.895,Serial_Dependence_U,2023.2.3,Win32,59.880239520968516,,,,,,2203.7681,231,8,2203.7685,231,,,,2207.7335000000003,2208.2385999999997,2207.2161,2207.733,2204.7831,2207.2158,2208.2385999999997,2208.7325,2208.7325,2210.0616,730,2210.0616999999997,1,2210.0622,8,26,266,18,1,1.4,0.7,Time
,,txy,001,f,21,2025-06-03_14h32.48.895,Serial_Dependence_U,2023.2.3,Win32,59.880239520968516,,,,,,2210.0627,306,8,2210.0629000000004,306,,,,2214.0657,2214.5657,2213.5572,2214.0654,2211.0910000000003,2213.5569,2214.5657,2215.0660000000003,2215.0660000000003,2216.7659000000003,815,2216.766,1,2216.7667,8,27,267,3,1,1.4,0.3,Time
,,txy,001,f,21,2025-06-03_14h32.48.895,Serial_Dependence_U,2023.2.3,Win32,59.880239520968516,,,,,,2216.7678,306,8,2216.7682,306,,,,2220.9579000000003,2221.4489000000003,2220.4493,2220.9575000000004,2217.7830000000004,2220.4491,2221.4489000000003,2221.9491,2221.9492,2223.5081,608,2223.5081999999998,1,2223.5087,8,28,268,14,1,1.6,0.3,Time
,,txy,001,f,21,2025-06-03_14h32.48.895,Serial_Dependence_U,2023.2.3,Win32,59.880239520968516,,,,,,2223.5092,144,8,2223.5094000000004,144,,,,2227.6568,2228.1493,2227.1499000000003,2227.6566,2224.5074,2227.1495000000004,2228.1493,2228.6396,2228.6398,2230.6914,1199,2230.6914,2,2230.6920000000005,8,29,269,29,1,1.6,0.7,Time